set title 'mp-1078219 - Density of States'
set xlabel 'Energy (eV)'
set ylabel 'DOS (states/eV)'
set grid
set xrange [-10:10]
set yrange [0:17.167]
set xzeroaxis lt -1
set terminal png size 800,600
set output 'mp-1078219_dos_gnuplot.png'
plot '-' using 1:2 with lines title 'DOS'
-22.364400 0.000000
-22.340100 0.000000
-22.315800 0.000000
-22.291500 0.000000
-22.267100 0.000000
-22.242800 0.000000
-22.218500 0.000000
-22.194200 0.000000
-22.169900 0.000000
-22.145600 0.000000
-22.121300 0.000000
-22.097000 0.000000
-22.072700 0.000000
-22.048400 0.000000
-22.024100 0.000000
-21.999800 0.000000
-21.975400 0.000000
-21.951100 0.000000
-21.926800 0.000000
-21.902500 0.000000
-21.878200 0.000000
-21.853900 0.000000
-21.829600 0.000000
-21.805300 0.000000
-21.781000 0.000000
-21.756700 0.000000
-21.732400 0.000000
-21.708000 0.000000
-21.683700 0.000000
-21.659400 0.000000
-21.635100 0.000000
-21.610800 0.000000
-21.586500 0.000000
-21.562200 0.000000
-21.537900 0.000000
-21.513600 0.000000
-21.489300 0.000000
-21.465000 0.000000
-21.440700 0.000000
-21.416300 0.000000
-21.392000 0.000000
-21.367700 0.000000
-21.343400 0.000000
-21.319100 0.000000
-21.294800 0.000000
-21.270500 0.000000
-21.246200 0.000000
-21.221900 0.000000
-21.197600 0.000000
-21.173300 0.000000
-21.148900 0.000000
-21.124600 0.000000
-21.100300 0.000000
-21.076000 0.000000
-21.051700 0.000000
-21.027400 0.000000
-21.003100 0.000000
-20.978800 0.000000
-20.954500 0.000000
-20.930200 0.000000
-20.905900 0.000000
-20.881600 0.000000
-20.857200 0.000000
-20.832900 0.000000
-20.808600 0.000000
-20.784300 0.000000
-20.760000 0.000000
-20.735700 0.000000
-20.711400 0.000000
-20.687100 0.000000
-20.662800 0.000000
-20.638500 0.000000
-20.614200 0.000000
-20.589800 0.000000
-20.565500 0.000000
-20.541200 0.000000
-20.516900 0.000000
-20.492600 0.000000
-20.468300 0.000000
-20.444000 0.000000
-20.419700 0.000000
-20.395400 0.000000
-20.371100 0.000000
-20.346800 0.000000
-20.322500 0.000000
-20.298100 0.000000
-20.273800 0.000000
-20.249500 0.000000
-20.225200 0.000000
-20.200900 0.000000
-20.176600 0.000000
-20.152300 0.097100
-20.128000 4.728600
-20.103700 3.506100
-20.079400 6.949200
-20.055100 9.373100
-20.030700 4.874200
-20.006400 4.732800
-19.982100 4.241000
-19.957800 4.027300
-19.933500 2.965400
-19.909200 2.965400
-19.884900 2.965400
-19.860600 2.965400
-19.836300 2.901300
-19.812000 2.700300
-19.787700 2.584900
-19.763400 2.167100
-19.739000 2.167100
-19.714700 2.167100
-19.690400 2.167100
-19.666100 2.167100
-19.641800 2.167100
-19.617500 2.167100
-19.593200 2.063800
-19.568900 2.026800
-19.544600 1.872100
-19.520300 1.744400
-19.496000 1.744400
-19.471600 1.744400
-19.447300 1.744400
-19.423000 1.744400
-19.398700 1.744400
-19.374400 1.744400
-19.350100 1.744400
-19.325800 1.744400
-19.301500 1.663400
-19.277200 1.663400
-19.252900 1.500400
-19.228600 1.500400
-19.204300 1.500400
-19.179900 1.500400
-19.155600 1.500400
-19.131300 1.500400
-19.107000 1.500400
-19.082700 1.500400
-19.058400 1.500400
-19.034100 1.500400
-19.009800 1.500400
-18.985500 1.496300
-18.961200 1.455600
-18.936900 1.433300
-18.912500 1.365700
-18.888200 1.365700
-18.863900 1.365700
-18.839600 1.365700
-18.815300 1.365700
-18.791000 1.365700
-18.766700 1.365700
-18.742400 1.365700
-18.718100 1.365700
-18.693800 1.365700
-18.669500 1.365700
-18.645200 1.365700
-18.620800 1.365700
-18.596500 1.350100
-18.572200 1.343700
-18.547900 1.319300
-18.523600 1.319300
-18.499300 1.319300
-18.475000 1.319300
-18.450700 1.319300
-18.426400 1.319300
-18.402100 1.319300
-18.377800 1.319300
-18.353400 1.319300
-18.329100 1.319300
-18.304800 1.319300
-18.280500 1.319300
-18.256200 1.319300
-18.231900 1.322500
-18.207600 1.337600
-18.183300 1.369900
-18.159000 1.375300
-18.134700 1.375300
-18.110400 1.375300
-18.086100 1.375300
-18.061700 1.375300
-18.037400 1.375300
-18.013100 1.375400
-17.988800 1.375400
-17.964500 1.375400
-17.940200 1.375400
-17.915900 1.375400
-17.891600 1.375400
-17.867300 1.382400
-17.843000 1.453300
-17.818700 1.611700
-17.794300 1.611700
-17.770000 1.611700
-17.745700 1.611700
-17.721400 1.611700
-17.697100 1.611700
-17.672800 1.611700
-17.648500 1.611700
-17.624200 1.611700
-17.599900 1.611700
-17.575600 1.611700
-17.551300 1.667300
-17.527000 1.855700
-17.502600 2.350400
-17.478300 2.350400
-17.454000 2.350400
-17.429700 2.350400
-17.405400 2.350400
-17.381100 2.350400
-17.356800 2.350400
-17.332500 3.302200
-17.308200 4.247200
-17.283900 6.556000
-17.259600 6.091100
-17.235200 4.387900
-17.210900 0.000000
-17.186600 0.000000
-17.162300 0.000000
-17.138000 0.000000
-17.113700 0.000000
-17.089400 0.000000
-17.065100 0.000000
-17.040800 0.000000
-17.016500 0.000000
-16.992200 0.000000
-16.967900 0.000000
-16.943500 0.000000
-16.919200 0.000000
-16.894900 0.000000
-16.870600 0.000000
-16.846300 0.000000
-16.822000 0.000000
-16.797700 0.000000
-16.773400 0.000000
-16.749100 0.000000
-16.724800 0.000000
-16.700500 0.000000
-16.676100 0.000000
-16.651800 0.000000
-16.627500 0.000000
-16.603200 0.000000
-16.578900 0.000000
-16.554600 0.000000
-16.530300 0.000000
-16.506000 0.000000
-16.481700 0.000000
-16.457400 0.000000
-16.433100 0.000000
-16.408800 0.000000
-16.384400 0.000000
-16.360100 0.000000
-16.335800 0.000000
-16.311500 0.000000
-16.287200 0.000000
-16.262900 0.000000
-16.238600 0.000000
-16.214300 0.000000
-16.190000 0.000000
-16.165700 0.000000
-16.141400 0.000000
-16.117000 0.000000
-16.092700 0.000000
-16.068400 0.000000
-16.044100 0.000000
-16.019800 0.000000
-15.995500 0.000000
-15.971200 0.000000
-15.946900 0.000000
-15.922600 0.000000
-15.898300 0.000000
-15.874000 0.000000
-15.849700 0.000000
-15.825300 0.000000
-15.801000 0.000000
-15.776700 0.000000
-15.752400 0.000000
-15.728100 0.000000
-15.703800 0.000000
-15.679500 0.000000
-15.655200 0.000000
-15.630900 0.000000
-15.606600 0.000000
-15.582300 0.000000
-15.557900 0.000000
-15.533600 0.000000
-15.509300 0.000000
-15.485000 0.000000
-15.460700 0.000000
-15.436400 0.000000
-15.412100 0.000000
-15.387800 0.000000
-15.363500 0.000000
-15.339200 0.000000
-15.314900 0.000000
-15.290600 0.000000
-15.266200 0.000000
-15.241900 0.000000
-15.217600 0.000000
-15.193300 0.000000
-15.169000 0.000000
-15.144700 0.000000
-15.120400 0.000000
-15.096100 0.000000
-15.071800 0.000000
-15.047500 0.000000
-15.023200 0.000000
-14.998800 0.000000
-14.974500 0.000000
-14.950200 0.000000
-14.925900 0.000000
-14.901600 0.000000
-14.877300 0.000000
-14.853000 0.000000
-14.828700 0.000000
-14.804400 0.000000
-14.780100 0.000000
-14.755800 0.000000
-14.731400 0.000000
-14.707100 0.000000
-14.682800 0.000000
-14.658500 4.442600
-14.634200 2.043600
-14.609900 1.488200
-14.585600 1.488200
-14.561300 1.488200
-14.537000 1.488200
-14.512700 0.901800
-14.488400 0.901800
-14.464100 0.901800
-14.439700 0.901800
-14.415400 0.901800
-14.391100 0.901800
-14.366800 0.901800
-14.342500 0.901800
-14.318200 0.654600
-14.293900 0.654600
-14.269600 0.654600
-14.245300 0.654600
-14.221000 0.654600
-14.196700 0.654600
-14.172300 0.654600
-14.148000 0.654600
-14.123700 0.654600
-14.099400 0.654600
-14.075100 0.521700
-14.050800 0.521700
-14.026500 0.521700
-14.002200 0.521700
-13.977900 0.521700
-13.953600 0.521700
-13.929300 0.521700
-13.905000 0.521700
-13.880600 0.521700
-13.856300 0.521700
-13.832000 0.521700
-13.807700 0.521700
-13.783400 0.521700
-13.759100 0.442400
-13.734800 0.442400
-13.710500 0.442400
-13.686200 0.442400
-13.661900 0.442400
-13.637600 0.442400
-13.613200 0.442400
-13.588900 0.442400
-13.564600 0.442400
-13.540300 0.442400
-13.516000 0.442400
-13.491700 0.442400
-13.467400 0.442400
-13.443100 0.442400
-13.418800 0.442400
-13.394500 0.442400
-13.370200 0.394900
-13.345900 0.394900
-13.321500 0.394900
-13.297200 0.394900
-13.272900 0.394900
-13.248600 0.394900
-13.224300 0.394900
-13.200000 0.394900
-13.175700 0.394900
-13.151400 0.394900
-13.127100 0.394900
-13.102800 0.394900
-13.078500 0.394900
-13.054100 0.394900
-13.029800 0.394900
-13.005500 0.394900
-12.981200 0.394900
-12.956900 0.371300
-12.932600 0.371300
-12.908300 0.371300
-12.884000 0.371300
-12.859700 0.371300
-12.835400 0.371300
-12.811100 0.371300
-12.786800 0.371300
-12.762400 0.371300
-12.738100 0.371300
-12.713800 0.371300
-12.689500 0.371300
-12.665200 0.371300
-12.640900 0.371300
-12.616600 0.371300
-12.592300 0.371300
-12.568000 0.371300
-12.543700 0.371300
-12.519400 0.371300
-12.495000 0.373700
-12.470700 0.373700
-12.446400 0.373700
-12.422100 0.373700
-12.397800 0.373700
-12.373500 0.373700
-12.349200 0.373700
-12.324900 0.373700
-12.300600 0.373700
-12.276300 0.373700
-12.252000 0.373700
-12.227700 0.373700
-12.203300 0.373700
-12.179000 0.373700
-12.154700 0.373700
-12.130400 0.373700
-12.106100 0.373700
-12.081800 0.373700
-12.057500 0.419500
-12.033200 0.419500
-12.008900 0.419500
-11.984600 0.419500
-11.960300 0.419500
-11.935900 0.419500
-11.911600 0.419500
-11.887300 0.419500
-11.863000 0.419500
-11.838700 0.419500
-11.814400 0.419500
-11.790100 0.419500
-11.765800 0.419500
-11.741500 0.419500
-11.717200 0.419500
-11.692900 0.419500
-11.668600 0.585900
-11.644200 0.585900
-11.619900 0.585900
-11.595600 0.585900
-11.571300 0.585900
-11.547000 0.585900
-11.522700 0.585900
-11.498400 0.585900
-11.474100 0.585900
-11.449800 0.585900
-11.425500 0.585900
-11.401200 0.585900
-11.376800 1.588100
-11.352500 1.588100
-11.328200 1.588100
-11.303900 1.588100
-11.279600 0.000000
-11.255300 0.000000
-11.231000 0.000000
-11.206700 0.000000
-11.182400 0.000000
-11.158100 0.000000
-11.133800 0.000000
-11.109500 0.000000
-11.085100 0.000000
-11.060800 0.000000
-11.036500 0.000000
-11.012200 0.000000
-10.987900 0.000000
-10.963600 0.000000
-10.939300 0.000000
-10.915000 0.000000
-10.890700 0.000000
-10.866400 0.000000
-10.842100 0.000000
-10.817700 0.000000
-10.793400 0.000000
-10.769100 0.000000
-10.744800 0.000000
-10.720500 0.000000
-10.696200 0.000000
-10.671900 0.000000
-10.647600 0.000000
-10.623300 0.000000
-10.599000 0.000000
-10.574700 0.000000
-10.550400 0.000000
-10.526000 0.000000
-10.501700 0.000000
-10.477400 0.000000
-10.453100 0.000000
-10.428800 0.000000
-10.404500 0.000000
-10.380200 0.000000
-10.355900 0.000000
-10.331600 0.000000
-10.307300 0.000000
-10.283000 0.000000
-10.258600 0.000000
-10.234300 0.000000
-10.210000 0.000000
-10.185700 0.000000
-10.161400 0.000000
-10.137100 0.000000
-10.112800 0.000000
-10.088500 0.000000
-10.064200 0.000000
-10.039900 0.000000
-10.015600 0.000000
-9.991300 0.000000
-9.966900 0.000000
-9.942600 0.000000
-9.918300 0.000000
-9.894000 0.000000
-9.869700 0.000000
-9.845400 0.000000
-9.821100 0.000000
-9.796800 0.000000
-9.772500 0.000000
-9.748200 0.000000
-9.723900 0.000000
-9.699500 0.000000
-9.675200 0.000000
-9.650900 0.000000
-9.626600 0.000000
-9.602300 0.000000
-9.578000 0.000000
-9.553700 0.000000
-9.529400 0.000000
-9.505100 0.000000
-9.480800 0.000000
-9.456500 0.000000
-9.432200 0.000000
-9.407800 0.000000
-9.383500 0.000000
-9.359200 0.000000
-9.334900 0.000000
-9.310600 0.000000
-9.286300 0.000000
-9.262000 0.000000
-9.237700 0.000000
-9.213400 0.000000
-9.189100 0.000000
-9.164800 0.000000
-9.140400 0.000000
-9.116100 0.000000
-9.091800 0.000000
-9.067500 0.000000
-9.043200 0.000000
-9.018900 0.000000
-8.994600 0.000000
-8.970300 0.000000
-8.946000 0.000000
-8.921700 0.000000
-8.897400 0.000000
-8.873100 0.000000
-8.848700 0.000000
-8.824400 0.000000
-8.800100 0.000000
-8.775800 0.000000
-8.751500 0.000000
-8.727200 0.000000
-8.702900 0.000000
-8.678600 0.250700
-8.654300 1.899300
-8.630000 2.017400
-8.605700 1.647600
-8.581300 1.538600
-8.557000 1.573700
-8.532700 1.555900
-8.508400 1.366500
-8.484100 1.167900
-8.459800 1.022400
-8.435500 0.947000
-8.411200 1.181800
-8.386900 2.048800
-8.362600 2.152800
-8.338300 2.739900
-8.314000 3.195600
-8.289600 4.623500
-8.265300 4.753000
-8.241000 4.865300
-8.216700 5.476700
-8.192400 5.952300
-8.168100 5.380000
-8.143800 3.980600
-8.119500 3.920300
-8.095200 3.992800
-8.070900 4.230200
-8.046600 4.497500
-8.022200 5.451900
-7.997900 4.533800
-7.973600 3.998500
-7.949300 3.947300
-7.925000 3.843800
-7.900700 3.664900
-7.876400 3.272400
-7.852100 3.163300
-7.827800 3.060200
-7.803500 2.983300
-7.779200 2.890900
-7.754900 2.774500
-7.730500 2.744800
-7.706200 2.702400
-7.681900 2.590600
-7.657600 2.551800
-7.633300 2.517800
-7.609000 2.476300
-7.584700 2.419500
-7.560400 2.394200
-7.536100 2.384300
-7.511800 2.374800
-7.487500 2.364200
-7.463100 2.346200
-7.438800 2.321100
-7.414500 2.278100
-7.390200 2.278200
-7.365900 2.278200
-7.341600 2.270200
-7.317300 2.243600
-7.293000 2.226400
-7.268700 2.191700
-7.244400 2.130400
-7.220100 2.101400
-7.195700 2.059300
-7.171400 2.029400
-7.147100 2.020200
-7.122800 2.006300
-7.098500 1.972800
-7.074200 1.970700
-7.049900 1.970700
-7.025600 1.970800
-7.001300 1.970800
-6.977000 1.970900
-6.952700 1.970900
-6.928400 1.966500
-6.904000 1.958300
-6.879700 1.945300
-6.855400 1.926600
-6.831100 1.997300
-6.806800 2.592200
-6.782500 2.947000
-6.758200 3.292700
-6.733900 3.662400
-6.709600 1.428000
-6.685300 1.250400
-6.661000 1.231500
-6.636600 1.231500
-6.612300 1.231500
-6.588000 1.231500
-6.563700 1.232700
-6.539400 1.925200
-6.515100 2.574300
-6.490800 4.333800
-6.466500 3.145000
-6.442200 2.294000
-6.417900 1.270900
-6.393600 1.105900
-6.369300 0.999200
-6.344900 0.886800
-6.320600 0.752700
-6.296300 0.554200
-6.272000 0.210600
-6.247700 0.000000
-6.223400 0.000000
-6.199100 0.000000
-6.174800 0.000000
-6.150500 0.000000
-6.126200 0.000000
-6.101900 0.209500
-6.077500 0.754900
-6.053200 0.952600
-6.028900 1.049000
-6.004600 1.095300
-5.980300 1.112700
-5.956000 1.237300
-5.931700 1.561900
-5.907400 2.330000
-5.883100 3.785800
-5.858800 4.480600
-5.834500 4.043700
-5.810200 4.263700
-5.785800 4.574500
-5.761500 4.827200
-5.737200 4.661400
-5.712900 6.079800
-5.688600 5.678200
-5.664300 4.821800
-5.640000 4.765400
-5.615700 4.631100
-5.591400 4.388000
-5.567100 4.261600
-5.542800 4.180600
-5.518400 4.131600
-5.494100 4.118700
-5.469800 4.095800
-5.445500 4.059600
-5.421200 4.006800
-5.396900 3.953700
-5.372600 3.916800
-5.348300 5.906600
-5.324000 9.673600
-5.299700 6.352600
-5.275400 6.368500
-5.251100 6.382900
-5.226700 6.406300
-5.202400 5.591500
-5.178100 5.261000
-5.153800 5.677100
-5.129500 5.629000
-5.105200 5.038700
-5.080900 4.454900
-5.056600 3.987000
-5.032300 3.764700
-5.008000 6.922600
-4.983700 6.304000
-4.959300 3.795800
-4.935000 2.970400
-4.910700 2.960200
-4.886400 2.984000
-4.862100 3.135400
-4.837800 3.307800
-4.813500 3.399300
-4.789200 3.549400
-4.764900 3.890600
-4.740600 4.312700
-4.716300 4.670700
-4.692000 4.166300
-4.667600 4.684600
-4.643300 4.267300
-4.619000 3.816700
-4.594700 3.432500
-4.570400 3.672000
-4.546100 9.298800
-4.521800 6.382200
-4.497500 4.585900
-4.473200 2.598000
-4.448900 2.164100
-4.424600 1.726000
-4.400200 1.689500
-4.375900 3.216200
-4.351600 4.645500
-4.327300 8.005900
-4.303000 8.102500
-4.278700 8.755600
-4.254400 8.490300
-4.230100 8.180400
-4.205800 7.236400
-4.181500 5.862200
-4.157200 6.364700
-4.132900 5.695800
-4.108500 5.607300
-4.084200 6.154200
-4.059900 7.263400
-4.035600 8.659500
-4.011300 8.300100
-3.987000 3.755300
-3.962700 2.285200
-3.938400 2.236300
-3.914100 2.275700
-3.889800 2.321100
-3.865500 2.319900
-3.841100 2.319000
-3.816800 2.318400
-3.792500 2.318100
-3.768200 2.318100
-3.743900 2.275000
-3.719600 2.132700
-3.695300 2.141200
-3.671000 1.949500
-3.646700 1.484300
-3.622400 1.472800
-3.598100 1.516300
-3.573800 1.513300
-3.549400 1.503100
-3.525100 1.498500
-3.500800 1.501500
-3.476500 1.511200
-3.452200 1.522900
-3.427900 1.535100
-3.403600 1.545400
-3.379300 1.564500
-3.355000 1.599300
-3.330700 1.643000
-3.306400 1.674600
-3.282000 1.680000
-3.257700 1.685700
-3.233400 1.691500
-3.209100 1.698500
-3.184800 1.875000
-3.160500 2.640800
-3.136200 3.057600
-3.111900 2.420200
-3.087600 2.114900
-3.063300 4.967700
-3.039000 4.617400
-3.014700 3.778300
-2.990300 2.835500
-2.966000 3.595500
-2.941700 3.954200
-2.917400 3.086100
-2.893100 2.464000
-2.868800 3.787000
-2.844500 3.453600
-2.820200 0.628200
-2.795900 0.304400
-2.771600 0.304300
-2.747300 0.304300
-2.722900 0.304200
-2.698600 0.304200
-2.674300 0.305100
-2.650000 0.330700
-2.625700 0.391700
-2.601400 0.471700
-2.577100 0.558100
-2.552800 0.639300
-2.528500 0.705200
-2.504200 0.849600
-2.479900 1.071200
-2.455600 1.305500
-2.431200 1.247800
-2.406900 1.228500
-2.382600 1.229100
-2.358300 1.195600
-2.334000 1.214500
-2.309700 1.204000
-2.285400 1.103400
-2.261100 2.586400
-2.236800 5.582100
-2.212500 5.691100
-2.188200 4.923400
-2.163800 7.291200
-2.139500 8.344800
-2.115200 5.656200
-2.090900 5.469900
-2.066600 5.029200
-2.042300 4.559000
-2.018000 4.522800
-1.993700 5.126600
-1.969400 5.947500
-1.945100 5.262700
-1.920800 5.087700
-1.896500 5.809200
-1.872100 9.302100
-1.847800 7.313200
-1.823500 8.419900
-1.799200 9.148600
-1.774900 6.100900
-1.750600 4.350200
-1.726300 3.723000
-1.702000 3.240400
-1.677700 3.050000
-1.653400 2.899500
-1.629100 2.690800
-1.604700 2.578300
-1.580400 2.637400
-1.556100 3.120000
-1.531800 3.032900
-1.507500 3.023100
-1.483200 3.015200
-1.458900 3.226100
-1.434600 4.241600
-1.410300 4.982600
-1.386000 7.176000
-1.361700 6.692100
-1.337400 5.776700
-1.313000 4.715400
-1.288700 4.392400
-1.264400 3.905100
-1.240100 3.651000
-1.215800 3.646000
-1.191500 3.571600
-1.167200 3.544200
-1.142900 3.499600
-1.118600 3.281700
-1.094300 3.211100
-1.070000 3.912300
-1.045600 4.551400
-1.021300 4.603100
-0.997000 4.646000
-0.972700 4.642800
-0.948400 4.677800
-0.924100 4.248600
-0.899800 4.043500
-0.875500 4.031800
-0.851200 4.027900
-0.826900 3.926300
-0.802600 2.839500
-0.778300 2.839500
-0.753900 2.839600
-0.729600 2.839700
-0.705300 2.839800
-0.681000 3.561000
-0.656700 3.600800
-0.632400 3.600900
-0.608100 5.056600
-0.583800 6.198600
-0.559500 13.801400
-0.535200 7.149200
-0.510900 8.830200
-0.486500 0.921100
-0.462200 0.921100
-0.437900 0.923000
-0.413600 0.937500
-0.389300 0.947200
-0.365000 0.947200
-0.340700 0.951100
-0.316400 0.959300
-0.292100 0.975600
-0.267800 0.975600
-0.243500 0.975600
-0.219200 0.975600
-0.194800 0.975600
-0.170500 0.975600
-0.146200 0.975600
-0.121900 0.975600
-0.097600 0.975600
-0.073300 1.056100
-0.049000 1.160600
-0.024700 1.282000
-0.000400 1.444100
0.023900 1.645800
0.048200 1.696100
0.072600 1.697400
0.096900 1.698100
0.121200 1.701800
0.145500 1.738500
0.169800 1.870800
0.194100 1.885400
0.218400 1.754200
0.242700 1.731600
0.267000 1.849200
0.291300 2.007000
0.315600 2.197500
0.339900 2.280700
0.364300 2.903900
0.388600 2.904500
0.412900 2.906800
0.437200 2.894100
0.461500 2.771100
0.485800 2.692000
0.510100 2.632900
0.534400 2.584600
0.558700 2.542300
0.583000 2.456600
0.607300 2.155300
0.631700 2.125600
0.656000 2.125600
0.680300 2.125600
0.704600 2.785000
0.728900 4.151800
0.753200 4.151900
0.777500 4.152000
0.801800 4.152000
0.826100 4.097100
0.850400 4.078300
0.874700 2.154100
0.899100 0.911500
0.923400 0.911500
0.947700 0.911500
0.972000 0.911500
0.996300 0.911500
1.020600 0.911500
1.044900 0.911500
1.069200 0.911600
1.093500 0.911600
1.117800 0.884900
1.142100 0.862800
1.166400 0.851800
1.190800 0.839300
1.215100 0.816100
1.239400 0.784300
1.263700 0.784300
1.288000 0.784300
1.312300 0.784300
1.336600 0.809200
1.360900 0.809200
1.385200 0.809200
1.409500 0.809200
1.433800 0.809200
1.458200 0.809200
1.482500 0.809200
1.506800 0.809200
1.531100 0.809200
1.555400 0.809200
1.579700 0.809200
1.604000 0.809200
1.628300 0.809200
1.652600 0.809200
1.676900 0.791700
1.701200 0.785800
1.725500 0.784900
1.749900 0.784900
1.774200 0.784900
1.798500 0.784900
1.822800 0.784900
1.847100 0.784900
1.871400 0.784900
1.895700 0.784900
1.920000 0.784900
1.944300 0.784900
1.968600 0.764900
1.992900 0.760300
2.017300 0.755300
2.041600 0.744500
2.065900 0.737100
2.090200 0.737100
2.114500 0.922000
2.138800 1.071400
2.163100 1.071300
2.187400 1.071200
2.211700 1.071200
2.236000 1.071100
2.260300 1.602900
2.284600 3.451600
2.309000 4.668000
2.333300 3.242200
2.357600 2.712400
2.381900 2.711600
2.406200 2.157500
2.430500 1.189700
2.454800 0.531000
2.479100 0.527600
2.503400 0.527600
2.527700 0.527600
2.552000 0.527600
2.576400 0.527600
2.600700 0.542900
2.625000 2.429000
2.649300 2.429000
2.673600 2.678900
2.697900 3.791000
2.722200 6.784400
2.746500 15.606700
2.770800 2.166500
2.795100 2.380700
2.819400 2.857500
2.843700 3.776400
2.868100 5.393900
2.892400 4.018300
2.916700 2.655400
2.941000 2.823300
2.965300 3.093900
2.989600 3.420200
3.013900 3.830600
3.038200 3.603600
3.062500 3.586300
3.086800 3.567000
3.111100 3.492900
3.135500 3.430100
3.159800 3.358100
3.184100 3.740100
3.208400 3.718400
3.232700 3.677100
3.257000 3.582600
3.281300 3.573400
3.305600 3.563000
3.329900 2.369500
3.354200 2.348300
3.378500 2.314300
3.402800 2.287700
3.427200 2.568200
3.451500 2.669800
3.475800 2.697500
3.500100 2.675500
3.524400 2.624200
3.548700 2.618900
3.573000 2.612900
3.597300 2.046200
3.621600 1.734200
3.645900 1.560100
3.670200 1.449300
3.694600 1.447700
3.718900 1.447700
3.743200 1.447800
3.767500 1.448800
3.791800 1.742000
3.816100 4.242600
3.840400 4.859700
3.864700 1.537200
3.889000 1.695800
3.913300 2.655400
3.937600 1.561900
3.961900 0.941600
3.986300 1.013700
4.010600 1.013000
4.034900 1.012500
4.059200 1.012200
4.083500 1.012100
4.107800 1.012200
4.132100 1.050600
4.156400 0.968100
4.180700 1.174900
4.205000 1.566500
4.229300 1.616100
4.253700 1.679400
4.278000 1.792100
4.302300 1.967700
4.326600 2.210500
4.350900 2.210600
4.375200 2.210700
4.399500 2.210800
4.423800 2.210900
4.448100 2.211000
4.472400 2.240600
4.496700 2.268200
4.521000 2.277700
4.545400 2.288000
4.569700 2.295200
4.594000 2.299200
4.618300 2.303800
4.642600 2.305400
4.666900 2.305500
4.691200 2.305500
4.715500 2.305600
4.739800 2.306700
4.764100 2.407200
4.788400 2.479900
4.812800 2.586600
4.837100 2.626400
4.861400 2.653600
4.885700 2.673800
4.910000 2.703000
4.934300 2.776100
4.958600 3.477100
4.982900 3.766700
5.007200 3.746000
5.031500 2.772700
5.055800 2.508700
5.080100 2.511100
5.104500 2.331700
5.128800 2.226000
5.153100 2.236500
5.177400 2.399200
5.201700 2.399600
5.226000 2.735900
5.250300 3.994200
5.274600 4.345300
5.298900 3.408300
5.323200 2.114800
5.347500 2.731000
5.371900 2.331300
5.396200 0.664200
5.420500 0.484900
5.444800 0.484900
5.469100 0.484900
5.493400 0.484900
5.517700 0.484900
5.542000 0.484900
5.566300 0.484900
5.590600 0.484900
5.614900 0.484900
5.639200 0.484900
5.663600 0.484900
5.687900 0.484900
5.712200 0.484900
5.736500 0.484900
5.760800 0.484900
5.785100 0.484900
5.809400 0.486800
5.833700 0.491600
5.858000 0.492200
5.882300 0.492200
5.906600 0.492200
5.931000 0.492200
5.955300 0.492200
5.979600 0.492200
6.003900 0.501100
6.028200 0.505200
6.052500 0.507100
6.076800 0.507100
6.101100 0.507100
6.125400 0.507100
6.149700 0.507100
6.174000 0.507100
6.198300 0.507100
6.222700 0.507100
6.247000 0.507100
6.271300 0.507100
6.295600 0.507200
6.319900 0.507200
6.344200 0.507200
6.368500 0.507200
6.392800 0.507200
6.417100 0.507200
6.441400 0.507200
6.465700 0.507200
6.490100 0.507200
6.514400 0.507200
6.538700 0.507200
6.563000 0.507200
6.587300 0.507200
6.611600 0.507200
6.635900 0.507200
6.660200 0.507200
6.684500 0.507200
6.708800 0.507200
6.733100 0.507200
6.757400 0.507200
6.781800 0.507200
6.806100 0.507200
6.830400 0.523600
6.854700 0.526400
6.879000 0.526400
6.903300 0.526400
6.927600 0.526400
6.951900 0.526400
6.976200 0.549800
7.000500 0.560500
7.024800 0.566200
7.049200 0.566200
7.073500 0.566200
7.097800 0.566200
7.122100 0.566200
7.146400 0.566200
7.170700 0.566200
7.195000 0.566200
7.219300 0.566200
7.243600 0.566200
7.267900 0.566200
7.292200 0.566200
7.316500 0.566200
7.340900 0.566200
7.365200 0.566200
7.389500 0.566200
7.413800 0.566200
7.438100 0.566200
7.462400 0.566200
7.486700 0.566200
7.511000 0.566200
7.535300 0.566200
7.559600 0.566200
7.583900 0.566200
7.608300 0.566200
7.632600 0.566200
7.656900 0.566200
7.681200 0.566200
7.705500 0.566200
7.729800 0.861300
7.754100 0.860800
7.778400 0.860300
7.802700 0.859800
7.827000 0.859300
7.851300 0.939100
7.875600 1.864800
7.900000 3.253200
7.924300 3.091000
7.948600 2.704800
7.972900 2.465900
7.997200 2.440500
8.021500 2.430900
8.045800 1.757300
8.070100 1.258900
8.094400 0.906700
8.118700 0.737000
8.143000 0.658100
8.167400 0.596100
8.191700 0.551200
8.216000 0.523100
8.240300 0.512000
8.264600 0.511800
8.288900 0.511800
8.313200 0.511800
8.337500 0.909100
8.361800 1.291100
8.386100 1.548100
8.410400 1.760900
8.434800 2.030800
8.459100 2.273200
8.483400 2.402600
8.507700 2.461700
8.532000 2.493300
8.556300 2.685500
8.580600 3.220100
8.604900 2.781000
8.629200 2.414200
8.653500 2.213500
8.677800 2.166000
8.702100 2.171100
8.726500 2.223300
8.750800 2.194300
8.775100 2.058600
8.799400 2.039400
8.823700 2.077000
8.848000 2.155000
8.872300 1.994400
8.896600 2.213500
8.920900 2.508200
8.945200 3.479100
8.969500 2.616400
8.993900 2.250200
9.018200 2.280600
9.042500 2.487900
9.066800 2.871500
9.091100 3.638400
9.115400 4.125500
9.139700 4.479900
9.164000 4.744600
9.188300 6.736100
9.212600 5.673200
9.236900 4.986000
9.261200 3.919000
9.285600 3.884700
9.309900 2.104800
9.334200 1.587400
9.358500 1.562700
9.382800 1.585700
9.407100 1.660500
9.431400 1.754200
9.455700 1.859300
9.480000 1.978900
9.504300 2.119700
9.528600 2.265600
9.553000 2.391700
9.577300 2.487300
9.601600 2.568800
9.625900 2.598400
9.650200 2.583200
9.674500 2.541000
9.698800 2.465300
9.723100 2.405700
9.747400 2.335800
9.771700 2.254500
9.796000 2.190600
9.820300 2.142600
9.844700 2.099500
9.869000 2.058300
9.893300 2.016800
9.917600 1.977900
9.941900 1.943500
9.966200 1.915000
9.990500 1.890700
10.014800 1.868600
10.039100 1.851000
10.063400 1.834600
10.087700 1.822500
10.112100 1.808300
10.136400 1.790100
10.160700 1.774800
10.185000 1.761500
10.209300 1.749600
10.233600 1.739900
10.257900 1.731400
10.282200 1.723000
10.306500 1.712900
10.330800 1.701800
10.355100 1.690300
10.379400 1.679300
10.403800 1.669200
10.428100 1.658000
10.452400 1.645700
10.476700 1.636700
10.501000 1.740900
10.525300 1.932900
10.549600 1.931000
10.573900 1.996700
10.598200 2.551300
10.622500 3.391000
10.646800 3.386100
10.671200 3.539400
10.695500 3.685600
10.719800 5.685400
10.744100 3.867100
10.768400 3.213100
10.792700 2.725900
10.817000 2.478000
10.841300 2.349500
10.865600 2.125500
10.889900 1.815200
10.914200 1.553500
10.938500 1.346500
10.962900 1.233900
10.987200 1.211600
11.011500 1.213100
11.035800 1.221400
11.060100 1.239600
11.084400 1.255000
11.108700 1.259800
11.133000 1.256900
11.157300 1.519300
11.181600 3.163000
11.205900 3.573300
11.230300 2.860500
11.254600 2.698600
11.278900 2.602900
11.303200 2.557400
11.327500 2.511500
11.351800 2.431900
11.376100 2.187700
11.400400 2.111500
11.424700 2.108800
11.449000 3.154900
11.473300 4.173100
11.497600 4.501600
11.522000 4.485800
11.546300 4.652300
11.570600 4.834800
11.594900 3.007200
11.619200 2.478600
11.643500 2.147500
11.667800 1.925000
11.692100 1.889200
11.716400 1.972100
11.740700 2.076900
11.765000 2.199900
11.789400 2.433000
11.813700 3.240500
11.838000 4.211300
11.862300 4.324400
11.886600 4.152000
11.910900 3.663600
11.935200 4.510400
11.959500 2.527300
11.983800 2.171900
12.008100 2.181600
12.032400 1.861200
12.056700 2.345800
12.081100 2.783200
12.105400 2.757200
12.129700 2.515100
12.154000 2.692900
12.178300 3.341300
12.202600 3.568900
12.226900 3.249500
12.251200 2.934700
12.275500 2.790900
12.299800 2.674200
12.324100 2.579700
12.348500 2.485300
12.372800 2.392000
12.397100 2.307400
12.421400 2.265300
12.445700 2.226500
12.470000 2.185700
12.494300 2.152100
12.518600 2.131700
12.542900 2.111900
12.567200 2.086600
12.591500 2.063900
12.615800 2.032400
12.640200 2.008900
12.664500 2.025400
12.688800 2.068000
12.713100 2.094100
12.737400 2.115400
12.761700 2.141300
12.786000 2.181000
12.810300 2.238200
12.834600 2.322100
12.858900 2.822100
12.883200 3.087000
12.907600 3.257200
12.931900 3.484800
12.956200 3.738200
12.980500 3.550500
13.004800 2.953200
13.029100 2.813800
13.053400 2.677100
13.077700 2.576100
13.102000 2.485700
13.126300 2.407200
13.150600 2.309400
13.174900 2.157700
13.199300 1.844300
13.223600 1.712900
13.247900 1.671900
13.272200 1.636500
13.296500 1.607400
13.320800 1.585900
13.345100 1.566600
13.369400 1.544900
13.393700 1.524400
13.418000 1.505400
13.442300 1.492300
13.466700 1.480700
13.491000 1.469700
13.515300 1.465200
13.539600 1.483200
13.563900 1.488700
13.588200 1.490900
13.612500 1.500400
13.636800 1.702400
13.661100 2.393800
13.685400 2.814900
13.709700 2.545700
13.734000 2.589500
13.758400 2.616300
13.782700 2.604300
13.807000 2.510100
13.831300 2.425500
13.855600 2.429400
13.879900 2.497300
13.904200 2.649600
13.928500 2.947300
13.952800 3.805300
13.977100 3.491800
14.001400 2.946000
14.025800 2.458600
14.050100 2.491900
14.074400 2.559100
14.098700 2.530100
14.123000 2.713200
14.147300 2.834300
14.171600 2.181800
14.195900 2.021000
14.220200 1.905300
14.244500 1.860200
14.268800 1.837900
14.293100 1.761800
14.317500 1.801300
14.341800 1.814800
14.366100 1.789600
14.390400 1.726100
14.414700 1.624500
14.439000 1.515600
14.463300 1.405000
14.487600 1.292700
14.511900 1.198200
14.536200 1.160000
14.560500 1.145800
14.584900 1.126100
14.609200 1.104400
14.633500 1.084900
14.657800 1.113600
14.682100 1.193100
14.706400 1.355900
14.730700 1.654900
14.755000 2.335700
14.779300 3.041200
14.803600 3.424000
14.827900 3.741600
14.852200 3.750700
14.876600 3.670400
14.900900 3.638900
14.925200 3.397500
14.949500 3.029000
14.973800 2.504600
14.998100 2.275600
15.022400 3.101600
15.046700 3.278900
15.071000 3.029500
15.095300 2.809600
15.119600 2.773400
15.144000 2.723000
15.168300 2.634400
15.192600 2.598400
15.216900 2.589800
15.241200 2.598600
15.265500 2.594600
15.289800 2.578200
15.314100 2.581400
15.338400 2.614300
15.362700 2.833800
15.387000 3.178400
15.411300 3.528600
15.435700 3.809000
15.460000 3.709400
15.484300 3.367100
15.508600 3.197500
15.532900 2.917700
15.557200 2.730800
15.581500 2.593300
15.605800 2.515000
15.630100 2.522500
15.654400 2.556300
15.678700 2.771200
15.703100 2.918100
15.727400 3.008900
15.751700 3.085000
15.776000 3.169100
15.800300 3.133300
15.824600 3.048000
15.848900 2.976900
15.873200 2.889100
15.897500 2.775600
15.921800 2.758100
15.946100 2.791500
15.970400 2.836300
15.994800 2.898500
16.019100 2.989200
16.043400 3.148200
16.067700 3.627200
16.092000 4.317300
16.116300 4.732900
16.140600 4.367300
16.164900 4.250400
16.189200 4.193000
16.213500 4.245800
16.237800 4.333700
16.262200 4.313300
16.286500 4.101900
16.310800 3.580800
16.335100 3.242100
16.359400 3.321700
16.383700 3.361300
16.408000 3.318900
16.432300 3.337800
16.456600 3.371700
16.480900 3.414200
16.505200 3.542600
16.529600 3.735100
16.553900 3.978900
16.578200 4.244200
16.602500 4.404900
16.626800 4.610300
16.651100 4.503500
16.675400 4.649300
16.699700 4.709800
16.724000 4.453900
16.748300 3.609500
16.772600 3.266900
16.796900 3.069900
16.821300 2.701900
16.845600 2.597500
16.869900 2.673600
16.894200 2.828900
16.918500 2.931800
16.942800 2.986500
16.967100 3.045000
16.991400 3.099900
17.015700 3.143600
17.040000 3.186800
17.064300 3.278000
17.088700 3.438100
17.113000 3.588900
17.137300 3.759600
17.161600 4.012800
17.185900 4.384900
17.210200 4.941500
17.234500 5.457000
17.258800 5.255000
17.283100 3.927600
17.307400 3.475500
17.331700 3.219300
17.356000 3.053300
17.380400 2.981400
17.404700 2.984700
17.429000 3.196000
17.453300 3.664100
17.477600 3.909100
17.501900 4.088200
17.526200 5.247000
17.550500 5.528900
17.574800 5.819100
17.599100 5.219400
17.623400 4.088300
17.647800 3.347300
17.672100 2.862400
17.696400 2.896100
17.720700 2.880800
17.745000 2.515800
17.769300 2.246500
17.793600 2.120600
17.817900 2.041700
17.842200 2.073400
17.866500 2.179600
17.890800 2.273300
17.915100 2.284900
17.939500 2.280800
17.963800 2.295300
17.988100 2.301400
18.012400 2.444400
18.036700 2.576500
18.061000 2.693300
18.085300 2.797900
18.109600 2.927800
18.133900 3.234500
18.158200 3.436900
18.182500 3.732300
18.206900 3.874700
18.231200 3.761500
18.255500 3.377300
18.279800 2.913900
18.304100 2.672900
18.328400 2.580300
18.352700 2.573700
18.377000 2.637500
18.401300 2.753700
18.425600 2.902800
18.449900 3.056300
18.474200 3.116200
18.498600 3.091700
18.522900 3.177900
18.547200 3.200200
18.571500 3.220300
18.595800 3.222400
18.620100 3.228400
18.644400 3.199300
18.668700 3.160300
18.693000 3.228200
18.717300 3.322200
18.741600 3.412200
18.766000 3.564100
18.790300 3.848100
18.814600 4.093500
18.838900 4.079500
18.863200 3.935700
18.887500 3.756200
18.911800 3.677900
18.936100 3.566100
18.960400 3.416200
18.984700 3.192000
19.009000 3.069800
19.033300 3.018000
19.057700 3.038200
19.082000 3.124600
19.106300 3.297600
19.130600 3.625400
19.154900 3.834800
19.179200 4.523000
19.203500 5.065700
19.227800 5.036300
19.252100 4.727800
19.276400 4.162800
19.300700 3.775800
19.325100 3.993900
19.349400 4.805200
19.373700 4.632500
19.398000 4.517700
19.422300 4.486700
19.446600 4.066400
19.470900 3.851400
19.495200 3.585700
19.519500 3.494400
19.543800 3.325900
19.568100 3.223800
19.592400 3.170700
19.616800 3.143300
19.641100 3.134100
19.665400 3.155600
19.689700 3.191300
19.714000 3.287300
19.738300 3.406900
19.762600 3.510000
19.786900 3.607500
19.811200 3.674300
19.835500 3.677900
19.859800 3.586000
19.884200 3.649100
19.908500 3.583500
19.932800 3.529500
19.957100 3.465300
19.981400 3.468300
20.005700 3.631900
20.030000 3.792500
20.054300 3.911200
20.078600 4.034600
20.102900 4.119100
20.127200 4.260000
20.151500 4.428400
20.175900 4.594600
20.200200 4.884500
20.224500 4.933400
20.248800 4.954000
20.273100 4.935000
20.297400 4.795300
20.321700 4.896300
20.346000 4.958100
20.370300 4.844500
20.394600 4.730400
20.418900 4.897800
20.443300 5.039800
20.467600 5.081900
20.491900 5.113800
20.516200 5.108100
20.540500 5.043900
20.564800 4.952100
20.589100 4.834200
20.613400 4.875200
20.637700 4.990300
20.662000 5.182900
20.686300 5.362100
20.710600 5.346600
20.735000 5.104100
20.759300 5.138000
20.783600 5.139100
20.807900 5.318200
20.832200 5.294500
20.856500 5.170600
20.880800 4.902900
20.905100 5.086300
20.929400 5.017500
20.953700 4.877400
20.978000 4.974100
21.002400 4.956300
21.026700 4.867800
21.051000 4.846500
21.075300 4.847300
21.099600 4.869300
21.123900 4.851600
21.148200 4.802600
21.172500 4.703900
21.196800 4.696500
21.221100 4.683300
21.245400 4.571000
21.269700 4.447700
21.294100 4.340800
21.318400 4.248900
21.342700 4.183400
21.367000 4.208500
21.391300 4.214700
21.415600 4.196500
21.439900 4.215200
21.464200 4.213900
21.488500 4.326300
21.512800 4.404600
21.537100 4.487700
21.561500 4.680400
21.585800 4.889700
21.610100 5.371900
21.634400 4.663600
21.658700 4.357800
21.683000 4.072700
21.707300 3.832000
21.731600 3.618100
21.755900 3.411500
21.780200 3.235700
21.804500 3.102700
21.828800 2.974400
21.853200 2.865100
21.877500 2.760900
21.901800 2.640200
21.926100 2.540600
21.950400 2.469100
21.974700 2.468400
21.999000 2.535800
22.023300 2.595900
22.047600 2.602000
22.071900 2.597100
22.096200 2.680700
22.120600 2.829100
22.144900 2.978800
22.169200 3.056700
22.193500 3.098700
22.217800 3.171900
22.242100 3.315600
22.266400 3.403200
22.290700 3.480700
22.315000 3.552500
22.339300 3.678800
22.363600 3.717400
22.387900 3.735700
22.412300 3.835100
22.436600 4.202400
22.460900 4.366400
22.485200 4.409500
22.509500 4.185400
22.533800 3.975900
22.558100 3.773000
22.582400 3.470600
22.606700 3.372400
22.631000 3.221000
22.655300 2.995500
22.679700 2.997700
22.704000 2.893600
22.728300 2.625000
22.752600 2.428500
22.776900 2.241400
22.801200 2.182200
22.825500 2.021800
22.849800 1.944700
22.874100 1.931700
22.898400 2.010000
22.922700 1.959800
22.947000 1.752200
22.971400 1.537900
22.995700 1.348200
23.020000 1.199200
23.044300 1.090900
23.068600 1.049800
23.092900 1.083900
23.117200 1.168100
23.141500 1.267400
23.165800 1.467000
23.190100 1.720600
23.214400 2.042000
23.238800 2.368300
23.263100 2.604400
23.287400 2.895700
23.311700 3.423000
23.336000 3.714400
23.360300 3.127600
23.384600 2.995700
23.408900 2.826800
23.433200 2.611800
23.457500 2.460200
23.481800 2.319200
23.506100 2.176800
23.530500 2.601200
23.554800 2.391700
23.579100 2.364200
23.603400 2.383700
23.627700 2.916000
23.652000 3.954800
23.676300 4.217200
23.700600 4.366400
23.724900 2.932800
23.749200 1.558100
23.773500 0.644000
23.797900 0.480300
23.822200 0.388300
23.846500 0.313600
23.870800 0.255700
23.895100 0.202700
23.919400 0.150500
23.943700 0.099100
23.968000 0.053200
23.992300 0.023700
24.016600 0.006500
24.040900 0.000000
24.065200 0.000000
24.089600 0.000000
24.113900 0.000000
24.138200 0.000000
24.162500 0.000000
24.186800 0.000000
24.211100 0.000000
24.235400 0.000000
24.259700 0.000000
24.284000 0.000000
24.308300 0.000000
24.332600 0.000000
24.357000 0.000000
24.381300 0.000000
24.405600 0.000000
24.429900 0.000000
24.454200 0.000000
24.478500 0.000000
24.502800 0.000000
24.527100 0.000000
24.551400 0.000000
24.575700 0.000000
24.600000 0.000000
24.624400 0.000000
24.648700 0.000000
24.673000 0.000000
24.697300 0.000000
24.721600 0.000000
24.745900 0.000000
24.770200 0.000000
24.794500 0.000000
24.818800 0.000000
24.843100 0.000000
24.867400 0.000000
24.891700 0.000000
24.916100 0.000000
24.940400 0.000000
24.964700 0.000000
24.989000 0.000000
25.013300 0.000000
25.037600 0.000000
25.061900 0.000000
25.086200 0.000000
25.110500 0.000000
25.134800 0.000000
25.159100 0.000000
25.183500 0.000000
25.207800 0.000000
25.232100 0.000000
25.256400 0.000000
25.280700 0.000000
25.305000 0.000000
25.329300 0.000000
25.353600 0.000000
25.377900 0.000000
25.402200 0.000000
25.426500 0.000000
25.450800 0.000000
25.475200 0.000000
25.499500 0.000000
25.523800 0.000000
25.548100 0.000000
25.572400 0.000000
25.596700 0.000000
25.621000 0.000000
25.645300 0.000000
25.669600 0.000000
25.693900 0.000000
25.718200 0.000000
25.742600 0.000000
25.766900 0.000000
25.791200 0.000000
25.815500 0.000000
25.839800 0.000000
25.864100 0.000000
25.888400 0.000000
25.912700 0.000000
25.937000 0.000000
25.961300 0.000000
25.985600 0.000000
26.009900 0.000000
26.034300 0.000000
26.058600 0.000000
26.082900 0.000000
26.107200 0.000000
26.131500 0.000000
26.155800 0.000000
26.180100 0.000000
26.204400 0.000000
26.228700 0.000000
26.253000 0.000000
e
