set title 'mp-1018131 - Density of States'
set xlabel 'Energy (eV)'
set ylabel 'DOS (states/eV)'
set grid
set xrange [-10:10]
set yrange [0:20.879]
set xzeroaxis lt -1
set terminal png size 800,600
set output 'mp-1018131_dos_gnuplot.png'
plot '-' using 1:2 with lines title 'DOS'
-27.652200 0.000000
-27.608500 0.000000
-27.564800 0.000000
-27.521100 0.000000
-27.477400 0.000000
-27.433700 0.000000
-27.390100 0.000000
-27.346400 0.000000
-27.302700 0.000000
-27.259000 0.000000
-27.215300 0.000000
-27.171600 0.000000
-27.128000 0.000000
-27.084300 0.000000
-27.040600 0.000000
-26.996900 0.000000
-26.953200 0.000000
-26.909600 0.000000
-26.865900 0.000000
-26.822200 0.000000
-26.778500 0.000000
-26.734800 0.000000
-26.691100 0.000000
-26.647500 0.000000
-26.603800 0.000000
-26.560100 0.000000
-26.516400 0.000000
-26.472700 0.000000
-26.429100 0.000000
-26.385400 0.000000
-26.341700 0.000000
-26.298000 0.000000
-26.254300 0.000000
-26.210600 0.000000
-26.167000 0.000000
-26.123300 0.000000
-26.079600 0.000000
-26.035900 0.000000
-25.992200 0.000000
-25.948600 0.000000
-25.904900 0.000000
-25.861200 0.000000
-25.817500 0.000000
-25.773800 0.000000
-25.730100 0.000000
-25.686500 0.000000
-25.642800 0.000000
-25.599100 0.000000
-25.555400 0.000000
-25.511700 0.000000
-25.468000 0.000000
-25.424400 0.000000
-25.380700 0.000000
-25.337000 0.000000
-25.293300 0.000000
-25.249600 0.000000
-25.206000 0.000000
-25.162300 0.000000
-25.118600 0.000000
-25.074900 0.000000
-25.031200 0.000000
-24.987500 0.000000
-24.943900 0.000000
-24.900200 0.000000
-24.856500 0.000000
-24.812800 0.000000
-24.769100 0.000000
-24.725500 0.000000
-24.681800 0.000000
-24.638100 0.000000
-24.594400 0.000000
-24.550700 0.000000
-24.507000 0.000000
-24.463400 0.000000
-24.419700 0.000000
-24.376000 0.000000
-24.332300 0.000000
-24.288600 0.000000
-24.245000 0.000000
-24.201300 0.000000
-24.157600 0.000000
-24.113900 0.000000
-24.070200 0.000000
-24.026500 0.000000
-23.982900 0.000000
-23.939200 0.000000
-23.895500 0.000000
-23.851800 0.000000
-23.808100 0.001000
-23.764400 0.080500
-23.720800 1.701900
-23.677100 11.421500
-23.633400 31.551200
-23.589700 42.832100
-23.546000 31.580100
-23.502400 14.724900
-23.458700 3.232100
-23.415000 0.226400
-23.371300 0.004300
-23.327600 0.000000
-23.283900 0.000000
-23.240300 0.000000
-23.196600 0.000000
-23.152900 0.000000
-23.109200 0.000000
-23.065500 0.000000
-23.021900 0.000000
-22.978200 0.000000
-22.934500 0.000000
-22.890800 0.000000
-22.847100 0.000000
-22.803400 0.000000
-22.759800 0.000000
-22.716100 0.000000
-22.672400 0.000000
-22.628700 0.000000
-22.585000 0.000000
-22.541400 0.000000
-22.497700 0.000000
-22.454000 0.000000
-22.410300 0.000000
-22.366600 0.000000
-22.322900 0.000000
-22.279300 0.000000
-22.235600 0.000000
-22.191900 0.000000
-22.148200 0.000000
-22.104500 0.000000
-22.060900 0.000000
-22.017200 0.000000
-21.973500 0.000000
-21.929800 0.000000
-21.886100 0.000000
-21.842400 0.000000
-21.798800 0.000000
-21.755100 0.000000
-21.711400 0.000000
-21.667700 0.000000
-21.624000 0.000000
-21.580300 0.000000
-21.536700 0.000000
-21.493000 0.000000
-21.449300 0.000000
-21.405600 0.000000
-21.361900 0.000000
-21.318300 0.000000
-21.274600 0.000000
-21.230900 0.000000
-21.187200 0.000000
-21.143500 0.000000
-21.099800 0.000000
-21.056200 0.000000
-21.012500 0.000000
-20.968800 0.000000
-20.925100 0.000000
-20.881400 0.000000
-20.837800 0.000000
-20.794100 0.000000
-20.750400 0.000000
-20.706700 0.000000
-20.663000 0.000000
-20.619300 0.000000
-20.575700 0.000000
-20.532000 0.000000
-20.488300 0.000000
-20.444600 0.000000
-20.400900 0.000000
-20.357300 0.000000
-20.313600 0.000000
-20.269900 0.000000
-20.226200 0.000000
-20.182500 0.000000
-20.138800 0.000000
-20.095200 0.000000
-20.051500 0.000000
-20.007800 0.000000
-19.964100 0.000000
-19.920400 0.000000
-19.876700 0.000000
-19.833100 0.000000
-19.789400 0.000000
-19.745700 0.000000
-19.702000 0.000000
-19.658300 0.000000
-19.614700 0.000000
-19.571000 0.000000
-19.527300 0.000000
-19.483600 0.000000
-19.439900 0.000000
-19.396200 0.000000
-19.352600 0.000000
-19.308900 0.000000
-19.265200 0.000000
-19.221500 0.000000
-19.177800 0.000000
-19.134200 0.000000
-19.090500 0.000000
-19.046800 0.000000
-19.003100 0.000000
-18.959400 0.000000
-18.915700 0.000000
-18.872100 0.000000
-18.828400 0.000000
-18.784700 0.000000
-18.741000 0.000000
-18.697300 0.000000
-18.653700 0.000000
-18.610000 0.000000
-18.566300 0.000000
-18.522600 0.000000
-18.478900 0.000000
-18.435200 0.000000
-18.391600 0.000000
-18.347900 0.000000
-18.304200 0.000000
-18.260500 0.000000
-18.216800 0.000000
-18.173100 0.000000
-18.129500 0.000000
-18.085800 0.000000
-18.042100 0.000000
-17.998400 0.000000
-17.954700 0.000000
-17.911100 0.000000
-17.867400 0.000000
-17.823700 0.000000
-17.780000 0.000000
-17.736300 0.000000
-17.692600 0.000000
-17.649000 0.000000
-17.605300 0.000000
-17.561600 0.000000
-17.517900 0.000000
-17.474200 0.000000
-17.430600 0.000000
-17.386900 0.000000
-17.343200 0.000000
-17.299500 0.000000
-17.255800 0.000000
-17.212100 0.000000
-17.168500 0.000000
-17.124800 0.000000
-17.081100 0.000000
-17.037400 0.000000
-16.993700 0.000000
-16.950100 0.000000
-16.906400 0.000000
-16.862700 0.000000
-16.819000 0.000000
-16.775300 0.000000
-16.731600 0.000000
-16.688000 0.000000
-16.644300 0.000000
-16.600600 0.000000
-16.556900 0.000000
-16.513200 0.000000
-16.469500 0.000000
-16.425900 0.000000
-16.382200 0.000000
-16.338500 0.000000
-16.294800 0.000000
-16.251100 0.000000
-16.207500 0.000000
-16.163800 0.000000
-16.120100 0.000000
-16.076400 0.000000
-16.032700 0.000000
-15.989000 0.000000
-15.945400 0.000000
-15.901700 0.000000
-15.858000 0.000000
-15.814300 0.000000
-15.770600 0.000000
-15.727000 0.000000
-15.683300 0.000000
-15.639600 0.000000
-15.595900 0.000000
-15.552200 0.000000
-15.508500 0.000000
-15.464900 0.000000
-15.421200 0.000000
-15.377500 0.000000
-15.333800 0.000000
-15.290100 0.000000
-15.246500 0.000000
-15.202800 0.000000
-15.159100 0.000000
-15.115400 0.000000
-15.071700 0.000000
-15.028000 0.000000
-14.984400 0.000000
-14.940700 0.000000
-14.897000 0.000000
-14.853300 0.000000
-14.809600 0.000000
-14.765900 0.000000
-14.722300 0.000000
-14.678600 0.000000
-14.634900 0.000000
-14.591200 0.000000
-14.547500 0.000000
-14.503900 0.000000
-14.460200 0.000000
-14.416500 0.000000
-14.372800 0.000000
-14.329100 0.000000
-14.285400 0.000000
-14.241800 0.000000
-14.198100 0.000000
-14.154400 0.000000
-14.110700 0.000000
-14.067000 0.000000
-14.023400 0.000000
-13.979700 0.000000
-13.936000 0.000000
-13.892300 0.000000
-13.848600 0.000000
-13.804900 0.000000
-13.761300 0.000000
-13.717600 0.000000
-13.673900 0.000000
-13.630200 0.000000
-13.586500 0.000000
-13.542900 0.000000
-13.499200 0.000000
-13.455500 0.000000
-13.411800 0.000000
-13.368100 0.000000
-13.324400 0.000000
-13.280800 0.000000
-13.237100 0.000000
-13.193400 0.000000
-13.149700 0.000000
-13.106000 0.000000
-13.062300 0.000000
-13.018700 0.000000
-12.975000 0.000000
-12.931300 0.000000
-12.887600 0.000000
-12.843900 0.000000
-12.800300 0.000000
-12.756600 0.000000
-12.712900 0.000000
-12.669200 0.000000
-12.625500 0.000000
-12.581800 0.000000
-12.538200 0.000000
-12.494500 0.000000
-12.450800 0.000000
-12.407100 0.000000
-12.363400 0.000000
-12.319800 0.000000
-12.276100 0.000000
-12.232400 0.000000
-12.188700 0.000000
-12.145000 0.000000
-12.101300 0.000000
-12.057700 0.000000
-12.014000 0.000000
-11.970300 0.000000
-11.926600 0.000000
-11.882900 0.000000
-11.839300 0.000000
-11.795600 0.000000
-11.751900 0.000000
-11.708200 0.000000
-11.664500 0.000000
-11.620800 0.000000
-11.577200 0.000000
-11.533500 0.000000
-11.489800 0.000000
-11.446100 0.000000
-11.402400 0.000000
-11.358700 0.000000
-11.315100 0.000000
-11.271400 0.000000
-11.227700 0.000000
-11.184000 0.000000
-11.140300 0.000000
-11.096700 0.000000
-11.053000 0.000000
-11.009300 0.000000
-10.965600 0.000000
-10.921900 0.000000
-10.878200 0.000000
-10.834600 0.000000
-10.790900 0.000000
-10.747200 0.000000
-10.703500 0.000000
-10.659800 0.000000
-10.616200 0.000000
-10.572500 0.000000
-10.528800 0.000000
-10.485100 0.000000
-10.441400 0.000000
-10.397700 0.000000
-10.354100 0.000000
-10.310400 0.000000
-10.266700 0.000000
-10.223000 0.000000
-10.179300 0.000000
-10.135700 0.000000
-10.092000 0.000000
-10.048300 0.000000
-10.004600 0.000000
-9.960900 0.000000
-9.917200 0.000000
-9.873600 0.000000
-9.829900 0.000000
-9.786200 0.000000
-9.742500 0.000000
-9.698800 0.000000
-9.655100 0.000000
-9.611500 0.000000
-9.567800 0.000000
-9.524100 0.000000
-9.480400 0.000000
-9.436700 0.000000
-9.393100 0.000000
-9.349400 0.000000
-9.305700 0.000000
-9.262000 0.000000
-9.218300 0.000000
-9.174600 0.000000
-9.131000 0.000000
-9.087300 0.000000
-9.043600 0.000000
-8.999900 0.000000
-8.956200 0.000000
-8.912600 0.000000
-8.868900 0.000000
-8.825200 0.000000
-8.781500 0.000000
-8.737800 0.000000
-8.694100 0.000000
-8.650500 0.000000
-8.606800 0.000000
-8.563100 0.000000
-8.519400 0.000000
-8.475700 0.000000
-8.432100 0.000000
-8.388400 0.000000
-8.344700 0.000000
-8.301000 0.000000
-8.257300 0.000000
-8.213600 0.000000
-8.170000 0.000000
-8.126300 0.000000
-8.082600 0.000000
-8.038900 0.000000
-7.995200 0.000000
-7.951600 0.000000
-7.907900 0.000000
-7.864200 0.000000
-7.820500 0.000000
-7.776800 0.000000
-7.733100 0.000000
-7.689500 0.000000
-7.645800 0.000000
-7.602100 0.000000
-7.558400 0.000000
-7.514700 0.000000
-7.471000 0.000000
-7.427400 0.000000
-7.383700 0.000000
-7.340000 0.000000
-7.296300 0.000000
-7.252600 0.000000
-7.209000 0.000000
-7.165300 0.000000
-7.121600 0.000000
-7.077900 0.000000
-7.034200 0.000000
-6.990500 0.000000
-6.946900 0.000000
-6.903200 0.000000
-6.859500 0.000000
-6.815800 0.000000
-6.772100 0.000000
-6.728500 0.000000
-6.684800 0.000000
-6.641100 0.000000
-6.597400 0.000000
-6.553700 0.000000
-6.510000 0.000000
-6.466400 0.000000
-6.422700 0.000000
-6.379000 0.000000
-6.335300 0.000000
-6.291600 0.000000
-6.248000 0.000000
-6.204300 0.000000
-6.160600 0.000000
-6.116900 0.000000
-6.073200 0.000000
-6.029500 0.000000
-5.985900 0.000000
-5.942200 0.000000
-5.898500 0.000000
-5.854800 0.000000
-5.811100 0.000000
-5.767400 0.000000
-5.723800 0.000000
-5.680100 0.000000
-5.636400 0.000000
-5.592700 0.000000
-5.549000 0.000000
-5.505400 0.000000
-5.461700 0.000000
-5.418000 0.000000
-5.374300 0.000000
-5.330600 0.000000
-5.286900 0.000000
-5.243300 0.000000
-5.199600 0.000000
-5.155900 0.000000
-5.112200 0.000000
-5.068500 0.000000
-5.024900 0.000000
-4.981200 0.000000
-4.937500 0.000000
-4.893800 0.000000
-4.850100 0.000000
-4.806400 0.000000
-4.762800 0.000000
-4.719100 0.000000
-4.675400 0.000000
-4.631700 0.000000
-4.588000 0.000000
-4.544400 0.000000
-4.500700 0.000000
-4.457000 0.000000
-4.413300 0.000000
-4.369600 0.000000
-4.325900 0.000000
-4.282300 0.000000
-4.238600 0.000000
-4.194900 0.000000
-4.151200 0.000000
-4.107500 0.000000
-4.063800 0.000000
-4.020200 0.000000
-3.976500 0.000000
-3.932800 0.000000
-3.889100 0.000000
-3.845400 0.000200
-3.801800 0.004300
-3.758100 0.020000
-3.714400 0.034400
-3.670700 0.060200
-3.627000 0.116900
-3.583300 0.181500
-3.539700 0.155400
-3.496000 0.065000
-3.452300 0.084200
-3.408600 0.217300
-3.364900 0.248200
-3.321300 0.189700
-3.277600 0.218600
-3.233900 0.334700
-3.190200 0.284000
-3.146500 0.157900
-3.102800 0.179700
-3.059200 0.353000
-3.015500 0.365500
-2.971800 0.237200
-2.928100 0.241900
-2.884400 0.354500
-2.840800 0.387900
-2.797100 0.399200
-2.753400 0.641400
-2.709700 0.776900
-2.666000 0.548200
-2.622300 0.246900
-2.578700 0.433700
-2.535000 1.224000
-2.491300 3.124600
-2.447600 5.728800
-2.403900 7.085000
-2.360200 7.668700
-2.316600 7.014600
-2.272900 5.187100
-2.229200 4.816500
-2.185500 5.256800
-2.141800 8.949600
-2.098200 14.995000
-2.054500 17.362500
-2.010800 18.030100
-1.967100 18.981200
-1.923400 18.621400
-1.879700 17.285300
-1.836100 16.242500
-1.792400 15.126200
-1.748700 13.530900
-1.705000 10.341900
-1.661300 8.168600
-1.617700 7.160800
-1.574000 5.778200
-1.530300 5.346500
-1.486600 5.121900
-1.442900 4.548900
-1.399200 4.920200
-1.355600 6.883600
-1.311900 9.689300
-1.268200 12.357400
-1.224500 14.439300
-1.180800 14.302500
-1.137200 13.262200
-1.093500 11.406700
-1.049800 10.078400
-1.006100 10.531400
-0.962400 10.881000
-0.918700 12.032700
-0.875100 13.452800
-0.831400 13.451600
-0.787700 12.169700
-0.744000 10.604600
-0.700300 9.479800
-0.656600 8.989400
-0.613000 7.289500
-0.569300 4.225800
-0.525600 2.051900
-0.481900 1.341500
-0.438200 0.927800
-0.394600 1.041400
-0.350900 1.048000
-0.307200 0.598100
-0.263500 0.576800
-0.219800 0.987800
-0.176100 0.988700
-0.132500 0.673500
-0.088800 0.526000
-0.045100 0.883100
-0.001400 1.186100
0.042300 0.984800
0.085900 0.560000
0.129600 0.612000
0.173300 1.008800
0.217000 0.978200
0.260700 0.685700
0.304400 0.806400
0.348000 1.486700
0.391700 1.459600
0.435400 1.011400
0.479100 0.606000
0.522800 0.393200
0.566400 0.585000
0.610100 0.926200
0.653800 1.057700
0.697500 0.747400
0.741200 0.505400
0.784900 0.791300
0.828500 0.885900
0.872200 0.799900
0.915900 0.830100
0.959600 0.952700
1.003300 0.925700
1.047000 0.970400
1.090600 0.964900
1.134300 1.356600
1.178000 1.738800
1.221700 1.348000
1.265400 1.273000
1.309000 1.398200
1.352700 1.205900
1.396400 1.174500
1.440100 1.277900
1.483800 1.276700
1.527500 1.091800
1.571100 0.946800
1.614800 1.431900
1.658500 1.604100
1.702200 1.179200
1.745900 0.982400
1.789500 1.030700
1.833200 1.106200
1.876900 1.205500
1.920600 0.946700
1.964300 0.842800
2.008000 1.093200
2.051600 1.321900
2.095300 0.877600
2.139000 0.433600
2.182700 0.659500
2.226400 1.426900
2.270000 1.740900
2.313700 1.408400
2.357400 0.997000
2.401100 1.000100
2.444800 1.108400
2.488500 1.365500
2.532100 1.426700
2.575800 1.241300
2.619500 1.227200
2.663200 1.237500
2.706900 1.438600
2.750600 1.828800
2.794200 1.832500
2.837900 1.604900
2.881600 1.158500
2.925300 1.099000
2.969000 1.511900
3.012600 1.691800
3.056300 1.655200
3.100000 1.635600
3.143700 1.253700
3.187400 0.775500
3.231100 0.717100
3.274700 1.263500
3.318400 1.503800
3.362100 1.261100
3.405800 1.097700
3.449500 0.851100
3.493100 0.606300
3.536800 0.964400
3.580500 1.348000
3.624200 1.207600
3.667900 0.965500
3.711600 1.166200
3.755200 1.304400
3.798900 0.996000
3.842600 0.805900
3.886300 0.661500
3.930000 0.520000
3.973600 0.750700
4.017300 1.243100
4.061000 1.207900
4.104700 0.830300
4.148400 0.578200
4.192100 0.412600
4.235700 0.222300
4.279400 0.265700
4.323100 0.589100
4.366800 0.982200
4.410500 1.628900
4.454200 1.931600
4.497800 1.791900
4.541500 1.958700
4.585200 2.415100
4.628900 1.948400
4.672600 1.422200
4.716200 1.507900
4.759900 1.622100
4.803600 2.266200
4.847300 2.422500
4.891000 2.506300
4.934700 2.267000
4.978300 1.867700
5.022000 1.513100
5.065700 1.224600
5.109400 1.938000
5.153100 2.729900
5.196700 2.526000
5.240400 2.374300
5.284100 1.957400
5.327800 1.428900
5.371500 1.850200
5.415200 2.978700
5.458800 3.253300
5.502500 2.954500
5.546200 2.997300
5.589900 3.921300
5.633600 4.685900
5.677200 4.346100
5.720900 3.651400
5.764600 3.430600
5.808300 3.230200
5.852000 3.048700
5.895700 3.171000
5.939300 2.857700
5.983000 2.591000
6.026700 2.853100
6.070400 3.971700
6.114100 5.096000
6.157700 5.312800
6.201400 5.001600
6.245100 4.785700
6.288800 4.000600
6.332500 2.805300
6.376200 2.552000
6.419800 2.885000
6.463500 2.421100
6.507200 1.628200
6.550900 1.230800
6.594600 1.613700
6.638300 2.278200
6.681900 1.884000
6.725600 1.358100
6.769300 1.248000
6.813000 0.823300
6.856700 0.535200
6.900300 1.034200
6.944000 1.567600
6.987700 1.478100
7.031400 1.383000
7.075100 1.510600
7.118800 1.673600
7.162400 2.468500
7.206100 2.785700
7.249800 2.547100
7.293500 2.902100
7.337200 3.305300
7.380800 2.887500
7.424500 2.440900
7.468200 2.706300
7.511900 2.773200
7.555600 2.002900
7.599300 1.815100
7.642900 1.911300
7.686600 1.182400
7.730300 0.425400
7.774000 0.181500
7.817700 0.330500
7.861300 0.550800
7.905000 0.373800
7.948700 0.314300
7.992400 0.528300
8.036100 0.477300
8.079800 0.225000
8.123400 0.266700
8.167100 0.479800
8.210800 0.592200
8.254500 0.593500
8.298200 0.925100
8.341900 0.812200
8.385500 0.388500
8.429200 0.378900
8.472900 0.360900
8.516600 0.423100
8.560300 0.706100
8.603900 0.745800
8.647600 0.761400
8.691300 0.995800
8.735000 1.379400
8.778700 1.877500
8.822400 1.802500
8.866000 2.113000
8.909700 2.902700
8.953400 2.831500
8.997100 2.177000
9.040800 1.648400
9.084400 1.991400
9.128100 2.031600
9.171800 1.324400
9.215500 0.764100
9.259200 0.669700
9.302900 1.047700
9.346500 1.566300
9.390200 1.572600
9.433900 1.171700
9.477600 0.846200
9.521300 0.857200
9.564900 0.996000
9.608600 0.842900
9.652300 0.850900
9.696000 1.105700
9.739700 1.297400
9.783400 1.102800
9.827000 0.682400
9.870700 0.740100
9.914400 1.027500
9.958100 1.087100
10.001800 1.138000
10.045500 1.201800
10.089100 1.109900
10.132800 1.004600
10.176500 0.916100
10.220200 1.178800
10.263900 1.842200
10.307500 1.952400
10.351200 1.234600
10.394900 1.018300
10.438600 1.192000
10.482300 1.108800
10.526000 0.925800
10.569600 0.959700
10.613300 1.024400
10.657000 1.339200
10.700700 1.680200
10.744400 2.178500
10.788000 2.497800
10.831700 2.687900
10.875400 2.158400
10.919100 1.553900
10.962800 1.781800
11.006500 2.356000
11.050100 2.585200
11.093800 2.429500
11.137500 2.032100
11.181200 1.929400
11.224900 2.311200
11.268500 2.370600
11.312200 2.326100
11.355900 2.271400
11.399600 2.477400
11.443300 2.516300
11.487000 2.354000
11.530600 2.123200
11.574300 1.504500
11.618000 1.284200
11.661700 1.630900
11.705400 1.759600
11.749100 1.765700
11.792700 1.866900
11.836400 1.841000
11.880100 1.997600
11.923800 2.108700
11.967500 1.760400
12.011100 1.754200
12.054800 2.107300
12.098500 1.908500
12.142200 1.432100
12.185900 1.311500
12.229600 1.453000
12.273200 1.934500
12.316900 1.934800
12.360600 1.722700
12.404300 1.877800
12.448000 1.731800
12.491600 1.801000
12.535300 1.751700
12.579000 1.910500
12.622700 2.147300
12.666400 1.901400
12.710100 1.786200
12.753700 1.624500
12.797400 1.368700
12.841100 1.160100
12.884800 1.016200
12.928500 1.504800
12.972100 1.894500
13.015800 2.000200
13.059500 2.385700
13.103200 2.641700
13.146900 2.891700
13.190600 2.450600
13.234200 1.699400
13.277900 1.408700
13.321600 1.111100
13.365300 1.281000
13.409000 1.477200
13.452700 1.677100
13.496300 2.135900
13.540000 2.496900
13.583700 2.632900
13.627400 2.370500
13.671100 1.826900
13.714700 1.596200
13.758400 1.468000
13.802100 1.755500
13.845800 2.176400
13.889500 1.980300
13.933200 1.584000
13.976800 1.584800
14.020500 1.564600
14.064200 1.729100
14.107900 2.161300
14.151600 2.119500
14.195200 2.125600
14.238900 2.020600
14.282600 1.887000
14.326300 1.735400
14.370000 1.297600
14.413700 1.228600
14.457300 1.525900
14.501000 1.518100
14.544700 1.516000
14.588400 1.917900
14.632100 1.834000
14.675700 1.446300
14.719400 1.359400
14.763100 1.327600
14.806800 1.592100
14.850500 1.916200
14.894200 2.040200
14.937800 2.485500
14.981500 2.820500
15.025200 2.511400
15.068900 1.925800
15.112600 1.294500
15.156300 1.232300
15.199900 1.653600
15.243600 2.101200
15.287300 2.426300
15.331000 2.373900
15.374700 2.217000
15.418300 2.012200
15.462000 2.440000
15.505700 2.533200
15.549400 1.719700
15.593100 1.582900
15.636800 2.082100
15.680400 2.039700
15.724100 2.208600
15.767800 2.279000
15.811500 2.117100
15.855200 2.255500
15.898800 2.685100
15.942500 2.747700
15.986200 2.450000
16.029900 1.978200
16.073600 1.883400
16.117300 1.741600
16.160900 1.367800
16.204600 1.245000
16.248300 1.190300
16.292000 1.769100
16.335700 2.345800
16.379300 2.413800
16.423000 1.844800
16.466700 1.583700
16.510400 1.542100
16.554100 1.658700
16.597800 1.436500
16.641400 1.119200
16.685100 1.170300
16.728800 1.159300
16.772500 1.243500
16.816200 1.903700
16.859900 2.287000
16.903500 1.845700
16.947200 1.826100
16.990900 2.117500
17.034600 2.165200
17.078300 2.459100
17.121900 2.488100
17.165600 2.286800
17.209300 1.918100
17.253000 2.050400
17.296700 2.372400
17.340400 2.209000
17.384000 2.092400
17.427700 2.231900
17.471400 2.002000
17.515100 1.926200
17.558800 2.171000
17.602400 2.173000
17.646100 1.806700
17.689800 1.529300
17.733500 2.023600
17.777200 2.329000
17.820900 2.304500
17.864500 2.579000
17.908200 2.672100
17.951900 2.493800
17.995600 2.282200
18.039300 2.351100
18.082900 1.968900
18.126600 1.658300
18.170300 1.763700
18.214000 1.843600
18.257700 2.036500
18.301400 2.176700
18.345000 1.836500
18.388700 1.916600
18.432400 1.876200
18.476100 1.883200
18.519800 1.804700
18.563500 1.505000
18.607100 1.781700
18.650800 1.928400
18.694500 1.571500
18.738200 1.161400
18.781900 1.094200
18.825500 1.193400
18.869200 1.306100
18.912900 1.920000
18.956600 2.465300
19.000300 2.324900
19.044000 2.010700
19.087600 1.725500
19.131300 1.500800
19.175000 1.413000
19.218700 1.256200
19.262400 1.097300
19.306000 1.148300
19.349700 1.096700
19.393400 1.187600
19.437100 2.017800
19.480800 2.540200
19.524500 1.862700
19.568100 1.534800
19.611800 1.641000
19.655500 1.461600
19.699200 1.360600
19.742900 1.676000
19.786500 2.030700
19.830200 1.946900
19.873900 1.357100
19.917600 1.138700
19.961300 1.203800
20.005000 1.331400
20.048600 1.416500
20.092300 1.704800
20.136000 2.089300
20.179700 2.613500
20.223400 2.850300
20.267100 2.944900
20.310700 3.114400
20.354400 2.951300
20.398100 2.300400
20.441800 1.642000
20.485500 1.826700
20.529100 1.819800
20.572800 1.396000
20.616500 1.171700
20.660200 1.160800
20.703900 1.547100
20.747600 1.813600
20.791200 1.995100
20.834900 2.054600
20.878600 1.919200
20.922300 2.083100
20.966000 2.004400
21.009600 1.847000
21.053300 2.029700
21.097000 2.012300
21.140700 1.628300
21.184400 1.910200
21.228100 2.417800
21.271700 2.032600
21.315400 1.632300
21.359100 1.757800
21.402800 1.687200
21.446500 1.670300
21.490100 1.449400
21.533800 1.415000
21.577500 2.060100
21.621200 2.626500
21.664900 2.704700
21.708600 2.762000
21.752200 2.277700
21.795900 2.313400
21.839600 2.490600
21.883300 1.913600
21.927000 1.855300
21.970600 2.032200
22.014300 2.284300
22.058000 2.417900
22.101700 2.328100
22.145400 2.145400
22.189100 1.897300
22.232700 1.608900
22.276400 2.132700
22.320100 2.584100
22.363800 2.111200
22.407500 2.066900
22.451200 2.484500
22.494800 2.732400
22.538500 2.260700
22.582200 1.767500
22.625900 1.842100
22.669600 1.861400
22.713200 1.521800
22.756900 1.187700
22.800600 1.642200
22.844300 2.270000
22.888000 2.678100
22.931700 2.191000
22.975300 1.621800
23.019000 2.095500
23.062700 2.495800
23.106400 2.094900
23.150100 2.245800
23.193700 2.859700
23.237400 3.169100
23.281100 3.682800
23.324800 3.417300
23.368500 2.520100
23.412200 2.667200
23.455800 2.954000
23.499500 2.129800
23.543200 1.561700
23.586900 1.674000
23.630600 1.667100
23.674200 1.734000
23.717900 1.641100
23.761600 2.255600
23.805300 2.560100
23.849000 2.513000
23.892700 2.933200
23.936300 3.064600
23.980000 2.682000
24.023700 2.440200
24.067400 2.414700
24.111100 2.193500
24.154800 2.426400
24.198400 2.862400
24.242100 2.200600
24.285800 1.744300
24.329500 2.236800
24.373200 2.406100
24.416800 2.117300
24.460500 2.230600
24.504200 2.310500
24.547900 2.058000
24.591600 2.141300
24.635300 2.266900
24.678900 2.105700
24.722600 2.285400
24.766300 2.020500
24.810000 1.512300
24.853700 1.826800
24.897300 2.625400
24.941000 2.112500
24.984700 1.764000
25.028400 2.379000
25.072100 2.541200
25.115800 2.489500
25.159400 2.621700
25.203100 2.567100
25.246800 2.559700
25.290500 2.596600
25.334200 2.539400
25.377800 2.953700
25.421500 3.381900
25.465200 3.073100
25.508900 2.965300
25.552600 2.808400
25.596300 2.260900
25.639900 1.854000
25.683600 1.990300
25.727300 2.385800
25.771000 2.873100
25.814700 2.733300
25.858400 2.004500
25.902000 2.082300
25.945700 2.944900
25.989400 3.238100
26.033100 2.979700
26.076800 3.060800
26.120400 3.069100
26.164100 2.924800
26.207800 2.640000
26.251500 2.351500
26.295200 2.194500
26.338900 1.845900
26.382500 2.285800
26.426200 2.828000
26.469900 2.702500
26.513600 2.456500
26.557300 2.529500
26.600900 2.751500
26.644600 2.690100
26.688300 2.563500
26.732000 2.879000
26.775700 2.962500
26.819400 2.883400
26.863000 2.499300
26.906700 2.092400
26.950400 2.123600
26.994100 2.031700
27.037800 2.229300
27.081400 2.572200
27.125100 2.369000
27.168800 2.222400
27.212500 2.102500
27.256200 2.041600
27.299900 1.899200
27.343500 2.171900
27.387200 2.593900
27.430900 2.434100
27.474600 2.181500
27.518300 2.088900
27.562000 2.289400
27.605600 2.574200
27.649300 2.864700
27.693000 2.733500
27.736700 2.559100
27.780400 2.821100
27.824000 2.492100
27.867700 1.683100
27.911400 1.887300
27.955100 2.242300
27.998800 1.942500
28.042500 1.706200
28.086100 2.120500
28.129800 2.673400
28.173500 2.148700
28.217200 1.479500
28.260900 1.293900
28.304500 1.426000
28.348200 1.857100
28.391900 1.663200
28.435600 1.271400
28.479300 1.843500
28.523000 2.530400
28.566600 2.579500
28.610300 2.393000
28.654000 2.242200
28.697700 1.687300
28.741400 1.648400
28.785000 2.452300
28.828700 2.566700
28.872400 2.210000
28.916100 2.040800
28.959800 2.235800
29.003500 2.725500
29.047100 2.647800
29.090800 2.805400
29.134500 3.298700
29.178200 2.848000
29.221900 2.434400
29.265600 2.185200
29.309200 1.874600
29.352900 1.815900
29.396600 2.116400
29.440300 2.444800
29.484000 2.759000
29.527600 2.336600
29.571300 1.619600
29.615000 1.889700
29.658700 2.652400
29.702400 2.648300
29.746100 2.440900
29.789700 2.004400
29.833400 1.895700
29.877100 2.138500
29.920800 2.101400
29.964500 2.317300
30.008100 2.233600
30.051800 2.135100
30.095500 2.862000
30.139200 2.668200
30.182900 1.722100
30.226600 1.908900
30.270200 2.361800
30.313900 2.154900
30.357600 1.725900
30.401300 2.069800
30.445000 2.550100
30.488600 2.180400
30.532300 2.085700
30.576000 2.872100
30.619700 3.290400
30.663400 3.050200
30.707100 2.724600
30.750700 2.154500
30.794400 2.046300
30.838100 2.075200
30.881800 2.283200
30.925500 2.378500
30.969200 2.197600
31.012800 2.263800
31.056500 2.500900
31.100200 2.491400
31.143900 2.532700
31.187600 3.251100
31.231200 3.303400
31.274900 2.759700
31.318600 3.256400
31.362300 3.804700
31.406000 2.896400
31.449700 2.063100
31.493300 2.899500
31.537000 3.110900
31.580700 2.298000
31.624400 2.033900
31.668100 2.638400
31.711700 2.587000
31.755400 1.843500
31.799100 1.901100
31.842800 2.420500
31.886500 3.024600
31.930200 2.601600
31.973800 1.991300
32.017500 2.145200
32.061200 2.331800
32.104900 2.547700
32.148600 2.769700
32.192200 3.268000
32.235900 3.353900
32.279600 2.986400
32.323300 2.424700
32.367000 2.399800
32.410700 2.840700
32.454300 3.204300
32.498000 3.322800
32.541700 3.082600
32.585400 2.660100
32.629100 2.792300
32.672800 2.206800
32.716400 2.194700
32.760100 3.269600
32.803800 3.504200
32.847500 2.886800
32.891200 2.859400
32.934800 3.120100
32.978500 3.403200
33.022200 3.265300
33.065900 3.216100
33.109600 3.878500
33.153300 3.426000
33.196900 2.630600
33.240600 2.270600
33.284300 2.146100
33.328000 2.185700
33.371700 2.394700
33.415300 2.480200
33.459000 2.396000
33.502700 2.303600
33.546400 2.668800
33.590100 2.728700
33.633800 2.364200
33.677400 2.534800
33.721100 2.796300
33.764800 2.510300
33.808500 2.464400
33.852200 2.944500
33.895800 2.738600
33.939500 1.991900
33.983200 2.338400
34.026900 3.488500
34.070600 4.414700
34.114300 4.489100
34.157900 4.119400
34.201600 3.401800
34.245300 2.501600
34.289000 2.846800
34.332700 3.467000
34.376400 3.657600
34.420000 3.879800
34.463700 3.629500
34.507400 3.314200
34.551100 3.007000
34.594800 2.988600
34.638400 2.933600
34.682100 2.704300
34.725800 3.242900
34.769500 4.016300
34.813200 4.087200
34.856900 3.573300
34.900500 2.830500
34.944200 2.487300
34.987900 2.625800
35.031600 2.681600
35.075300 2.254000
35.118900 2.438300
35.162600 3.307100
35.206300 3.538000
35.250000 3.131200
35.293700 2.878400
35.337400 2.778700
35.381000 2.561600
35.424700 2.525300
35.468400 2.501900
35.512100 2.491800
35.555800 2.327000
35.599400 2.409200
35.643100 2.579300
35.686800 2.573200
35.730500 2.355500
35.774200 2.379400
35.817900 2.553000
35.861500 2.582700
35.905200 2.860800
35.948900 3.514300
35.992600 3.559200
36.036300 2.963000
36.079900 2.009300
36.123600 1.760300
36.167300 2.098900
36.211000 2.176800
36.254700 2.066500
36.298400 2.123000
36.342000 2.435900
36.385700 2.774800
36.429400 3.252300
36.473100 3.513600
36.516800 3.340400
36.560500 2.341600
36.604100 1.874800
36.647800 2.465600
36.691500 3.016200
36.735200 3.086300
36.778900 2.715200
36.822500 2.467900
36.866200 2.496600
36.909900 2.789900
36.953600 2.765100
36.997300 2.622300
37.041000 2.554000
37.084600 2.576500
37.128300 2.982600
37.172000 2.891700
37.215700 2.987500
37.259400 3.228900
37.303000 2.953800
37.346700 2.403000
37.390400 1.967400
37.434100 2.082200
37.477800 2.817100
37.521500 3.558400
37.565100 3.613100
37.608800 2.782800
37.652500 2.094900
37.696200 1.991800
37.739900 2.128700
37.783500 2.310900
37.827200 2.659800
37.870900 3.313700
37.914600 3.682000
37.958300 3.130500
38.002000 3.308100
38.045600 3.389700
38.089300 3.154900
38.133000 2.637700
38.176700 2.396700
38.220400 2.900600
38.264100 3.029400
38.307700 2.752800
38.351400 2.912300
38.395100 3.210600
38.438800 3.125500
38.482500 2.965900
38.526100 2.912500
38.569800 2.545700
38.613500 2.412200
38.657200 2.915100
38.700900 2.929600
38.744600 2.554500
38.788200 2.974000
38.831900 3.564000
38.875600 3.012800
38.919300 1.989100
38.963000 1.871800
39.006600 2.321700
39.050300 2.584900
39.094000 2.996700
39.137700 2.928500
39.181400 3.226700
39.225100 4.092400
39.268700 3.864000
39.312400 2.863900
39.356100 3.032300
39.399800 3.328800
39.443500 3.028000
39.487100 2.849000
39.530800 3.365700
39.574500 3.710300
39.618200 2.990600
39.661900 2.845400
39.705600 2.911500
39.749200 3.173000
39.792900 3.099700
39.836600 2.583300
39.880300 2.380900
39.924000 2.568700
39.967700 2.979600
40.011300 2.840200
40.055000 2.932100
40.098700 3.162000
40.142400 2.795900
40.186100 2.835600
40.229700 3.266500
40.273400 3.059500
40.317100 2.236600
40.360800 2.125500
40.404500 2.244900
40.448200 2.417800
40.491800 2.782100
40.535500 2.778400
40.579200 2.549900
40.622900 2.692800
40.666600 3.076300
40.710200 3.271200
40.753900 3.089000
40.797600 2.839000
40.841300 3.309100
40.885000 3.785400
40.928700 3.141600
40.972300 3.137200
41.016000 3.274200
41.059700 2.859500
41.103400 3.080900
41.147100 3.421000
41.190700 3.058100
41.234400 3.014300
41.278100 2.877600
41.321800 2.789200
41.365500 3.308100
41.409200 3.450000
41.452800 3.321400
41.496500 3.046700
41.540200 2.936700
41.583900 2.675900
41.627600 2.489600
41.671300 2.562100
41.714900 2.440300
41.758600 2.380900
41.802300 2.535500
41.846000 2.581700
41.889700 2.478500
41.933300 2.336100
41.977000 2.458800
42.020700 2.834400
42.064400 2.996600
42.108100 2.394300
42.151800 2.035600
42.195400 2.585300
42.239100 2.854900
42.282800 2.765400
42.326500 3.035200
42.370200 2.671200
42.413800 2.468400
42.457500 2.953700
42.501200 3.248700
42.544900 3.599200
42.588600 3.395600
42.632300 2.950700
42.675900 3.387400
42.719600 3.133000
42.763300 2.699100
42.807000 2.727400
42.850700 3.101700
42.894300 3.199200
42.938000 2.895700
42.981700 3.474900
43.025400 3.214600
43.069100 2.543200
43.112800 2.932900
43.156400 3.356100
43.200100 3.750600
43.243800 4.310600
43.287500 4.259900
43.331200 3.178700
43.374900 2.688600
43.418500 2.938000
43.462200 3.243000
43.505900 3.154400
43.549600 2.659500
43.593300 3.027900
43.636900 3.688300
43.680600 3.312100
43.724300 2.288000
43.768000 1.903000
43.811700 1.871500
43.855400 2.608500
43.899000 3.269800
43.942700 3.458100
43.986400 2.888400
44.030100 2.619300
44.073800 3.079000
44.117400 3.204300
44.161100 2.866000
44.204800 2.782500
44.248500 2.942400
44.292200 2.474300
44.335900 2.270700
44.379500 2.583100
44.423200 3.068900
44.466900 3.317800
44.510600 3.217900
44.554300 3.278900
44.597900 3.580400
44.641600 3.561000
44.685300 3.232100
44.729000 3.489000
44.772700 3.843600
44.816400 3.827500
44.860000 3.621800
44.903700 3.681300
44.947400 3.845900
44.991100 3.422600
45.034800 3.207700
45.078500 3.931400
45.122100 4.162900
45.165800 3.504100
45.209500 2.864100
45.253200 3.023000
45.296900 3.219900
45.340500 2.628900
45.384200 2.638800
45.427900 3.862300
45.471600 4.390900
45.515300 3.510700
45.559000 2.722900
45.602600 2.925600
45.646300 3.965800
45.690000 4.264200
45.733700 3.337700
45.777400 2.655200
45.821000 2.578800
45.864700 2.624700
45.908400 2.450700
45.952100 1.966700
45.995800 2.237600
46.039500 3.220100
46.083100 3.311900
46.126800 2.965900
46.170500 3.028700
46.214200 3.217000
46.257900 3.070200
46.301500 3.475800
46.345200 4.370600
46.388900 4.315100
46.432600 4.004400
46.476300 4.067500
46.520000 4.135900
46.563600 3.863900
46.607300 3.763500
46.651000 4.003000
46.694700 3.795700
46.738400 3.606700
46.782100 3.594200
46.825700 4.346700
46.869400 5.612000
46.913100 5.713000
46.956800 4.521300
47.000500 3.812800
47.044100 4.361500
47.087800 4.408400
47.131500 3.616700
47.175200 3.520700
47.218900 3.672800
47.262600 4.404400
47.306200 5.003700
47.349900 5.127400
47.393600 4.796200
47.437300 3.592600
47.481000 2.906700
47.524600 3.177700
47.568300 4.229800
47.612000 4.998100
47.655700 4.408000
47.699400 4.135900
47.743100 4.179600
47.786700 3.643300
47.830400 3.092800
47.874100 3.434400
47.917800 3.571800
47.961500 3.574900
48.005100 3.842400
48.048800 4.028200
48.092500 4.139100
48.136200 3.625200
48.179900 3.081400
48.223600 3.871200
48.267200 4.705400
48.310900 3.901200
48.354600 2.641800
48.398300 2.765000
48.442000 3.545400
48.485700 3.834500
48.529300 3.752200
48.573000 3.491700
48.616700 3.317000
48.660400 2.923000
48.704100 2.981200
48.747700 3.479300
48.791400 3.505300
48.835100 3.879700
48.878800 4.150400
48.922500 3.374500
48.966200 2.991400
49.009800 3.144200
49.053500 3.263300
49.097200 2.966900
49.140900 2.875100
49.184600 2.724400
49.228200 2.216400
49.271900 2.266200
49.315600 2.679700
49.359300 2.799600
49.403000 3.143200
49.446700 3.694800
49.490300 3.668000
49.534000 3.209300
49.577700 2.825000
49.621400 2.610900
49.665100 2.966400
49.708700 3.662300
49.752400 3.796100
49.796100 4.060000
49.839800 4.294400
49.883500 3.808500
49.927200 2.903600
49.970800 3.000800
50.014500 3.175900
50.058200 2.875500
50.101900 2.690900
50.145600 2.617400
50.189300 3.059400
50.232900 3.572100
50.276600 3.617300
50.320300 3.600500
50.364000 3.569400
50.407700 3.656800
50.451300 3.433100
50.495000 3.278200
50.538700 3.281300
50.582400 2.964800
50.626100 2.564900
50.669800 2.853900
50.713400 3.217900
50.757100 4.137000
50.800800 4.617500
50.844500 3.773900
50.888200 3.482500
50.931800 3.485300
50.975500 3.133200
51.019200 2.962800
51.062900 3.603700
51.106600 4.034300
51.150300 3.501200
51.193900 3.471100
51.237600 3.658300
51.281300 3.548000
51.325000 3.386500
51.368700 3.272600
51.412300 3.357100
51.456000 3.589600
51.499700 3.853000
51.543400 4.001300
51.587100 3.487000
51.630800 2.905600
51.674400 3.452500
51.718100 4.121600
51.761800 3.449100
51.805500 3.125100
51.849200 3.273000
51.892800 3.096100
51.936500 3.425500
51.980200 4.011300
52.023900 4.393100
52.067600 4.148800
52.111300 3.561000
52.154900 3.450200
52.198600 3.930600
52.242300 4.043900
52.286000 3.860100
52.329700 3.689000
52.373400 4.277300
52.417000 4.550500
52.460700 4.113300
52.504400 3.530400
52.548100 3.200300
52.591800 3.265400
52.635400 3.057400
52.679100 2.870600
52.722800 2.680600
52.766500 2.896200
52.810200 3.455200
52.853900 3.928900
52.897500 4.019000
52.941200 3.775800
52.984900 3.257100
53.028600 3.164200
53.072300 3.585900
53.115900 3.798500
53.159600 3.942800
53.203300 3.782100
53.247000 3.553400
53.290700 3.018500
53.334400 2.661300
53.378000 2.887400
53.421700 2.915200
53.465400 2.759700
53.509100 2.953600
53.552800 2.961400
53.596400 2.954200
53.640100 3.073900
53.683800 3.409100
53.727500 3.820500
53.771200 3.744100
53.814900 3.462900
53.858500 3.345700
53.902200 3.258500
53.945900 3.167800
53.989600 2.832800
54.033300 2.525700
54.077000 2.730000
54.120600 3.119100
54.164300 3.206400
54.208000 2.935500
54.251700 2.698800
54.295400 2.618000
54.339000 2.672800
54.382700 2.746700
54.426400 2.673100
54.470100 2.450900
54.513800 2.278200
54.557500 2.215800
54.601100 2.152500
54.644800 2.068200
54.688500 2.095300
54.732200 1.951000
54.775900 1.821000
54.819500 1.639200
54.863200 1.472700
54.906900 1.551300
54.950600 1.630100
54.994300 1.396700
55.038000 1.178600
55.081600 0.948600
55.125300 0.690900
55.169000 0.711400
55.212700 0.627800
55.256400 0.420500
55.300000 0.360900
55.343700 0.348300
55.387400 0.282800
55.431100 0.217000
55.474800 0.204700
55.518500 0.184800
55.562100 0.108800
55.605800 0.033300
55.649500 0.027100
55.693200 0.051500
55.736900 0.069300
55.780600 0.049000
55.824200 0.011700
55.867900 0.000800
55.911600 0.000000
55.955300 0.000000
55.999000 0.000000
56.042600 0.000000
56.086300 0.000000
56.130000 0.000000
56.173700 0.000000
56.217400 0.000000
56.261100 0.000000
56.304700 0.000000
56.348400 0.000000
56.392100 0.000000
56.435800 0.000000
56.479500 0.000000
56.523100 0.000000
56.566800 0.000000
56.610500 0.000000
56.654200 0.000000
56.697900 0.000000
56.741600 0.000000
56.785200 0.000000
56.828900 0.000000
56.872600 0.000000
56.916300 0.000000
56.960000 0.000000
57.003600 0.000000
57.047300 0.000000
57.091000 0.000000
57.134700 0.000000
57.178400 0.000000
57.222100 0.000000
57.265700 0.000000
57.309400 0.000000
57.353100 0.000000
57.396800 0.000000
57.440500 0.000000
57.484200 0.000000
57.527800 0.000000
57.571500 0.000000
57.615200 0.000000
57.658900 0.000000
57.702600 0.000000
57.746200 0.000000
57.789900 0.000000
57.833600 0.000000
57.877300 0.000000
57.921000 0.000000
57.964700 0.000000
58.008300 0.000000
58.052000 0.000000
58.095700 0.000000
58.139400 0.000000
58.183100 0.000000
58.226700 0.000000
58.270400 0.000000
58.314100 0.000000
58.357800 0.000000
58.401500 0.000000
58.445200 0.000000
58.488800 0.000000
58.532500 0.000000
58.576200 0.000000
58.619900 0.000000
58.663600 0.000000
58.707200 0.000000
58.750900 0.000000
58.794600 0.000000
58.838300 0.000000
58.882000 0.000000
58.925700 0.000000
58.969300 0.000000
59.013000 0.000000
59.056700 0.000000
59.100400 0.000000
59.144100 0.000000
59.187800 0.000000
59.231400 0.000000
59.275100 0.000000
59.318800 0.000000
59.362500 0.000000
59.406200 0.000000
59.449800 0.000000
59.493500 0.000000
59.537200 0.000000
59.580900 0.000000
59.624600 0.000000
59.668300 0.000000
59.711900 0.000000
e
