set title 'mp-1187545 - Density of States'
set xlabel 'Energy (eV)'
set ylabel 'DOS (states/eV)'
set grid
set xrange [-10:10]
set yrange [0:59.956]
set xzeroaxis lt -1
set terminal png size 800,600
set output 'mp-1187545_dos_gnuplot.png'
plot '-' using 1:2 with lines title 'DOS'
-8.207400 0.000000
-8.189900 0.000000
-8.172500 0.000000
-8.155000 0.000000
-8.137600 0.000000
-8.120200 0.000000
-8.102700 0.000000
-8.085300 0.000000
-8.067800 0.000000
-8.050400 0.000000
-8.033000 0.000000
-8.015500 0.000000
-7.998100 0.000000
-7.980600 0.000000
-7.963200 0.000000
-7.945800 0.000000
-7.928300 0.000000
-7.910900 0.000000
-7.893400 0.000000
-7.876000 0.000000
-7.858600 0.000000
-7.841100 0.000000
-7.823700 0.000000
-7.806200 0.000000
-7.788800 0.000000
-7.771400 0.000000
-7.753900 0.000000
-7.736500 0.000000
-7.719000 0.000000
-7.701600 0.000000
-7.684200 0.000000
-7.666700 0.000000
-7.649300 0.000000
-7.631800 0.000000
-7.614400 0.000000
-7.596900 0.000000
-7.579500 0.000000
-7.562100 0.000000
-7.544600 0.000000
-7.527200 0.000000
-7.509700 0.000000
-7.492300 0.000000
-7.474900 0.000000
-7.457400 0.000000
-7.440000 0.000000
-7.422500 0.000000
-7.405100 0.000000
-7.387700 0.000000
-7.370200 0.000000
-7.352800 0.000000
-7.335300 0.000000
-7.317900 0.000000
-7.300500 0.000000
-7.283000 0.000000
-7.265600 0.000000
-7.248100 0.000000
-7.230700 0.000000
-7.213300 0.000000
-7.195800 0.000000
-7.178400 0.000000
-7.160900 0.000000
-7.143500 0.000000
-7.126100 0.000000
-7.108600 0.000000
-7.091200 0.000000
-7.073700 0.000000
-7.056300 0.000000
-7.038900 0.000000
-7.021400 0.000000
-7.004000 0.000000
-6.986500 0.000000
-6.969100 0.000000
-6.951700 0.000000
-6.934200 0.000000
-6.916800 0.000000
-6.899300 0.000000
-6.881900 0.000000
-6.864400 0.000000
-6.847000 0.000000
-6.829600 0.000000
-6.812100 0.000000
-6.794700 0.000000
-6.777200 0.000000
-6.759800 0.000000
-6.742400 0.000200
-6.724900 0.001300
-6.707500 0.006600
-6.690000 0.027400
-6.672600 0.092600
-6.655200 0.257100
-6.637700 0.590400
-6.620300 1.136700
-6.602800 1.876500
-6.585400 2.749000
-6.568000 3.723000
-6.550500 4.830800
-6.533100 6.164400
-6.515600 7.921400
-6.498200 10.417800
-6.480800 13.897200
-6.463300 18.295500
-6.445900 23.275700
-6.428400 28.425500
-6.411000 33.287000
-6.393600 37.254000
-6.376100 39.671000
-6.358700 40.235000
-6.341200 39.346700
-6.323800 37.974300
-6.306400 37.098300
-6.288900 37.225700
-6.271500 38.266300
-6.254000 39.738200
-6.236600 41.164800
-6.219200 42.372700
-6.201700 43.392900
-6.184300 44.110200
-6.166800 44.161000
-6.149400 43.325600
-6.132000 42.042600
-6.114500 41.391600
-6.097100 42.368800
-6.079600 45.073600
-6.062200 48.602800
-6.044700 51.755800
-6.027300 53.790700
-6.009900 54.505800
-5.992400 53.850400
-5.975000 51.789700
-5.957500 48.587600
-5.940100 44.990900
-5.922700 41.943200
-5.905200 40.050500
-5.887800 39.280100
-5.870300 39.052400
-5.852900 38.506000
-5.835500 36.771500
-5.818000 33.319100
-5.800600 28.305000
-5.783100 22.559400
-5.765700 17.080000
-5.748300 12.476100
-5.730800 8.866400
-5.713400 6.168600
-5.695900 4.311400
-5.678500 3.167400
-5.661100 2.463700
-5.643600 1.900900
-5.626200 1.339500
-5.608700 0.817800
-5.591300 0.422200
-5.573900 0.182400
-5.556400 0.065500
-5.539000 0.019400
-5.521500 0.004700
-5.504100 0.000900
-5.486700 0.000100
-5.469200 0.000000
-5.451800 0.000000
-5.434300 0.000000
-5.416900 0.000000
-5.399500 0.000000
-5.382000 0.000000
-5.364600 0.000000
-5.347100 0.000000
-5.329700 0.000000
-5.312200 0.000000
-5.294800 0.000000
-5.277400 0.000000
-5.259900 0.000000
-5.242500 0.000000
-5.225000 0.000000
-5.207600 0.000000
-5.190200 0.000000
-5.172700 0.000000
-5.155300 0.000000
-5.137800 0.000000
-5.120400 0.000000
-5.103000 0.000000
-5.085500 0.000000
-5.068100 0.000000
-5.050600 0.000000
-5.033200 0.000000
-5.015800 0.000000
-4.998300 0.000000
-4.980900 0.000000
-4.963400 0.000000
-4.946000 0.000000
-4.928600 0.000000
-4.911100 0.000000
-4.893700 0.000000
-4.876200 0.000000
-4.858800 0.000000
-4.841400 0.000000
-4.823900 0.000000
-4.806500 0.000000
-4.789000 0.000000
-4.771600 0.000000
-4.754200 0.000000
-4.736700 0.000000
-4.719300 0.000000
-4.701800 0.000000
-4.684400 0.000000
-4.667000 0.000000
-4.649500 0.000000
-4.632100 0.000000
-4.614600 0.000000
-4.597200 0.000000
-4.579700 0.000000
-4.562300 0.000000
-4.544900 0.000000
-4.527400 0.000000
-4.510000 0.000000
-4.492500 0.000000
-4.475100 0.000000
-4.457700 0.000000
-4.440200 0.000000
-4.422800 0.000000
-4.405300 0.000000
-4.387900 0.000000
-4.370500 0.000000
-4.353000 0.000000
-4.335600 0.000000
-4.318100 0.000000
-4.300700 0.000000
-4.283300 0.000000
-4.265800 0.000000
-4.248400 0.000000
-4.230900 0.000000
-4.213500 0.000000
-4.196100 0.000000
-4.178600 0.000000
-4.161200 0.000000
-4.143700 0.000200
-4.126300 0.001100
-4.108900 0.003600
-4.091400 0.009800
-4.074000 0.021300
-4.056500 0.038200
-4.039100 0.058100
-4.021700 0.079100
-4.004200 0.101700
-3.986800 0.128700
-3.969300 0.165800
-3.951900 0.220900
-3.934500 0.293800
-3.917000 0.362400
-3.899600 0.388600
-3.882100 0.349300
-3.864700 0.260600
-3.847200 0.167100
-3.829800 0.113600
-3.812400 0.125700
-3.794900 0.206700
-3.777500 0.334800
-3.760000 0.463900
-3.742600 0.543500
-3.725200 0.552400
-3.707700 0.514400
-3.690300 0.477400
-3.672800 0.480300
-3.655400 0.529900
-3.638000 0.591700
-3.620500 0.603600
-3.603100 0.528100
-3.585600 0.394000
-3.568200 0.273300
-3.550800 0.215200
-3.533300 0.216200
-3.515900 0.251400
-3.498400 0.319300
-3.481000 0.440800
-3.463600 0.608300
-3.446100 0.757100
-3.428700 0.812000
-3.411200 0.762600
-3.393800 0.674100
-3.376400 0.626700
-3.358900 0.656100
-3.341500 0.734000
-3.324000 0.785600
-3.306600 0.739800
-3.289200 0.588200
-3.271700 0.396600
-3.254300 0.258100
-3.236800 0.238800
-3.219400 0.355000
-3.202000 0.570400
-3.184500 0.805100
-3.167100 0.968600
-3.149600 1.011100
-3.132200 0.952800
-3.114800 0.864800
-3.097300 0.816700
-3.079900 0.832300
-3.062400 0.875200
-3.045000 0.874100
-3.027500 0.780400
-3.010100 0.620700
-2.992700 0.481200
-2.975200 0.427900
-2.957800 0.450100
-2.940300 0.491700
-2.922900 0.528200
-2.905500 0.589700
-2.888000 0.703400
-2.870600 0.840600
-2.853100 0.944800
-2.835700 1.002100
-2.818300 1.058700
-2.800800 1.161200
-2.783400 1.288800
-2.765900 1.351800
-2.748500 1.266800
-2.731100 1.039000
-2.713600 0.762600
-2.696200 0.545300
-2.678700 0.448700
-2.661300 0.495800
-2.643900 0.696300
-2.626400 1.023600
-2.609000 1.371600
-2.591500 1.583400
-2.574100 1.565700
-2.556700 1.366500
-2.539200 1.123100
-2.521800 0.941200
-2.504300 0.833600
-2.486900 0.748300
-2.469500 0.635700
-2.452000 0.497500
-2.434600 0.384100
-2.417100 0.343300
-2.399700 0.372600
-2.382300 0.427900
-2.364800 0.474800
-2.347400 0.521500
-2.329900 0.602300
-2.312500 0.750900
-2.295000 0.991300
-2.277600 1.318200
-2.260200 1.667000
-2.242700 1.926000
-2.225300 1.998700
-2.207800 1.854400
-2.190400 1.545000
-2.173000 1.190900
-2.155500 0.915000
-2.138100 0.758900
-2.120600 0.680500
-2.103200 0.639900
-2.085800 0.654600
-2.068300 0.754400
-2.050900 0.918100
-2.033400 1.089500
-2.016000 1.237400
-1.998600 1.357700
-1.981100 1.422300
-1.963700 1.374600
-1.946200 1.202200
-1.928800 0.980200
-1.911400 0.807900
-1.893900 0.712000
-1.876500 0.644100
-1.859000 0.566800
-1.841600 0.506800
-1.824200 0.514100
-1.806700 0.588400
-1.789300 0.666400
-1.771800 0.688700
-1.754400 0.669600
-1.737000 0.685000
-1.719500 0.787400
-1.702100 0.953100
-1.684600 1.118100
-1.667200 1.250400
-1.649800 1.367700
-1.632300 1.485100
-1.614900 1.570300
-1.597400 1.570000
-1.580000 1.466200
-1.562500 1.291600
-1.545100 1.106200
-1.527700 0.971600
-1.510200 0.921200
-1.492800 0.933700
-1.475300 0.950800
-1.457900 0.943600
-1.440500 0.941200
-1.423000 0.982000
-1.405600 1.064100
-1.388100 1.166500
-1.370700 1.285800
-1.353300 1.416800
-1.335800 1.533600
-1.318400 1.627100
-1.300900 1.726900
-1.283500 1.842100
-1.266100 1.920200
-1.248600 1.920900
-1.231200 1.893000
-1.213700 1.905800
-1.196300 1.924900
-1.178900 1.839500
-1.161400 1.618400
-1.144000 1.368700
-1.126500 1.209800
-1.109100 1.144700
-1.091700 1.089100
-1.074200 0.995200
-1.056800 0.908100
-1.039300 0.909400
-1.021900 1.028300
-1.004500 1.215200
-0.987000 1.393300
-0.969600 1.526300
-0.952100 1.627700
-0.934700 1.710700
-0.917300 1.750700
-0.899800 1.705700
-0.882400 1.560900
-0.864900 1.343600
-0.847500 1.103700
-0.830000 0.883500
-0.812600 0.708300
-0.795200 0.603900
-0.777700 0.606700
-0.760300 0.733600
-0.742800 0.931800
-0.725400 1.086900
-0.708000 1.119200
-0.690500 1.077300
-0.673100 1.101500
-0.655600 1.276600
-0.638200 1.534700
-0.620800 1.716000
-0.603300 1.718300
-0.585900 1.585300
-0.568400 1.455900
-0.551000 1.440800
-0.533600 1.546000
-0.516100 1.688400
-0.498700 1.759900
-0.481200 1.696500
-0.463800 1.524900
-0.446400 1.345100
-0.428900 1.248000
-0.411500 1.249000
-0.394000 1.306300
-0.376600 1.378400
-0.359200 1.445700
-0.341700 1.492800
-0.324300 1.509000
-0.306800 1.510700
-0.289400 1.540300
-0.272000 1.627900
-0.254500 1.760500
-0.237100 1.893000
-0.219600 1.986500
-0.202200 2.032300
-0.184800 2.040000
-0.167300 2.012300
-0.149900 1.937900
-0.132400 1.808000
-0.115000 1.650000
-0.097500 1.557200
-0.080100 1.653500
-0.062700 1.976000
-0.045200 2.383300
-0.027800 2.635700
-0.010300 2.607600
0.007100 2.405600
0.024500 2.252500
0.042000 2.279200
0.059400 2.442800
0.076900 2.603100
0.094300 2.653300
0.111700 2.611600
0.129200 2.600800
0.146600 2.703800
0.164100 2.833000
0.181500 2.779900
0.198900 2.414900
0.216400 1.819500
0.233800 1.219900
0.251300 0.816000
0.268700 0.683700
0.286100 0.803200
0.303600 1.122700
0.321000 1.573500
0.338500 2.054200
0.355900 2.449100
0.373300 2.679100
0.390800 2.725700
0.408200 2.610400
0.425700 2.382800
0.443100 2.134700
0.460500 1.982600
0.478000 1.987400
0.495400 2.094500
0.512900 2.181600
0.530300 2.179900
0.547700 2.135700
0.565200 2.150000
0.582600 2.270400
0.600100 2.455500
0.617500 2.625100
0.634900 2.711200
0.652400 2.669500
0.669800 2.490000
0.687300 2.218200
0.704700 1.939500
0.722200 1.716200
0.739600 1.548500
0.757000 1.406400
0.774500 1.273900
0.791900 1.148600
0.809400 1.026700
0.826800 0.907100
0.844200 0.798500
0.861700 0.711600
0.879100 0.653400
0.896600 0.631500
0.914000 0.659200
0.931400 0.759000
0.948900 0.971200
0.966300 1.377300
0.983800 2.131000
1.001200 3.465300
1.018600 5.601200
1.036100 8.548700
1.053500 11.967400
1.071000 15.331100
1.088400 18.331800
1.105800 21.099000
1.123300 23.963400
1.140700 26.998400
1.158200 29.754500
1.175600 31.407600
1.193000 31.249300
1.210500 29.144100
1.227900 25.569800
1.245400 21.305400
1.262800 17.116500
1.280200 13.576500
1.297700 10.968100
1.315100 9.292000
1.332600 8.421900
1.350000 8.271800
1.367400 8.762000
1.384900 9.618600
1.402300 10.320900
1.419800 10.379000
1.437200 9.686700
1.454700 8.561800
1.472100 7.449400
1.489500 6.612700
1.507000 6.062200
1.524400 5.674700
1.541900 5.330600
1.559300 4.982300
1.576700 4.661800
1.594200 4.430700
1.611600 4.305500
1.629100 4.248300
1.646500 4.240300
1.663900 4.313500
1.681400 4.468300
1.698800 4.600100
1.716300 4.562200
1.733700 4.300600
1.751100 3.906300
1.768600 3.549800
1.786000 3.363600
1.803500 3.365700
1.820900 3.491000
1.838300 3.688100
1.855800 3.942600
1.873200 4.194400
1.890700 4.292800
1.908100 4.086800
1.925500 3.545500
1.943000 2.780400
1.960400 1.972900
1.977900 1.288700
1.995300 0.822800
2.012700 0.580300
2.030200 0.493700
2.047600 0.477200
2.065100 0.486300
2.082500 0.526400
2.099900 0.609600
2.117400 0.723400
2.134800 0.839100
2.152300 0.921000
2.169700 0.925500
2.187200 0.825500
2.204600 0.654600
2.222000 0.504400
2.239500 0.462700
2.256900 0.554100
2.274400 0.725400
2.291800 0.871200
2.309200 0.890500
2.326700 0.752500
2.344100 0.519500
2.361600 0.294000
2.379000 0.144400
2.396400 0.078200
2.413900 0.069600
2.431300 0.094600
2.448800 0.143700
2.466200 0.211800
2.483600 0.284600
2.501100 0.345500
2.518500 0.394400
2.536000 0.443800
2.553400 0.489700
2.570800 0.503800
2.588300 0.466400
2.605700 0.402600
2.623200 0.371200
2.640600 0.414000
2.658000 0.515100
2.675500 0.607700
2.692900 0.623000
2.710400 0.544900
2.727800 0.423700
2.745200 0.342600
2.762700 0.364600
2.780100 0.493700
2.797600 0.669200
2.815000 0.806200
2.832400 0.864500
2.849900 0.874600
2.867300 0.893000
2.884800 0.948600
2.902200 1.037200
2.919700 1.135100
2.937100 1.200200
2.954500 1.198700
2.972000 1.152200
2.989400 1.127200
3.006900 1.152500
3.024300 1.180900
3.041700 1.154600
3.059200 1.078200
3.076600 0.999700
3.094100 0.940000
3.111500 0.867700
3.128900 0.742300
3.146400 0.568100
3.163800 0.405100
3.181300 0.332200
3.198700 0.392100
3.216100 0.550600
3.233600 0.705800
3.251000 0.764200
3.268500 0.727900
3.285900 0.690200
3.303300 0.731100
3.320800 0.831000
3.338200 0.899500
3.355700 0.872300
3.373100 0.773300
3.390500 0.694300
3.408000 0.731400
3.425400 0.935400
3.442900 1.297100
3.460300 1.743300
3.477700 2.154100
3.495200 2.429400
3.512600 2.560200
3.530100 2.617400
3.547500 2.682500
3.564900 2.802900
3.582400 2.962700
3.599800 3.058300
3.617300 2.958100
3.634700 2.638900
3.652200 2.224300
3.669600 1.860500
3.687000 1.608000
3.704500 1.485000
3.721900 1.549400
3.739400 1.859600
3.756800 2.356900
3.774200 2.840900
3.791700 3.095100
3.809100 3.028800
3.826600 2.698600
3.844000 2.239100
3.861400 1.806700
3.878900 1.536600
3.896300 1.477800
3.913800 1.555300
3.931200 1.623000
3.948600 1.572300
3.966100 1.397900
3.983500 1.175500
4.001000 0.999200
4.018400 0.940000
4.035800 1.021000
4.053300 1.199400
4.070700 1.377000
4.088200 1.466100
4.105600 1.468100
4.123000 1.485500
4.140500 1.641900
4.157900 1.969100
4.175400 2.351000
4.192800 2.578200
4.210200 2.487300
4.227700 2.081400
4.245100 1.537000
4.262600 1.097400
4.280000 0.934600
4.297400 1.061700
4.314900 1.334900
4.332300 1.545700
4.349800 1.554900
4.367200 1.381800
4.384600 1.176500
4.402100 1.101300
4.419500 1.216600
4.437000 1.446300
4.454400 1.642400
4.471900 1.698900
4.489300 1.611100
4.506700 1.439600
4.524200 1.249900
4.541600 1.088300
4.559100 0.983300
4.576500 0.951700
4.593900 1.010100
4.611400 1.170700
4.628800 1.397100
4.646300 1.572100
4.663700 1.560300
4.681100 1.331700
4.698600 0.997700
4.716000 0.707300
4.733500 0.535900
4.750900 0.483000
4.768300 0.531900
4.785800 0.673900
4.803200 0.896800
4.820700 1.178500
4.838100 1.482800
4.855500 1.738600
4.873000 1.847600
4.890400 1.762600
4.907900 1.560600
4.925300 1.393300
4.942700 1.353000
4.960200 1.404800
4.977600 1.459500
4.995100 1.482800
5.012500 1.510600
5.029900 1.580200
5.047400 1.687300
5.064800 1.804400
5.082300 1.902900
5.099700 1.955200
5.117100 1.943200
5.134600 1.868400
5.152000 1.750100
5.169500 1.628500
5.186900 1.568100
5.204400 1.622300
5.221800 1.779500
5.239200 1.959700
5.256700 2.075100
5.274100 2.081700
5.291600 1.980000
5.309000 1.817500
5.326400 1.711000
5.343900 1.803400
5.361300 2.128100
5.378800 2.523000
5.396200 2.742100
5.413600 2.677600
5.431100 2.443200
5.448500 2.223400
5.466000 2.083500
5.483400 1.967100
5.500800 1.847000
5.518300 1.797300
5.535700 1.885700
5.553200 2.056300
5.570600 2.182600
5.588000 2.218900
5.605500 2.237200
5.622900 2.306000
5.640400 2.390800
5.657800 2.413200
5.675200 2.368600
5.692700 2.329400
5.710100 2.345300
5.727600 2.379800
5.745000 2.343700
5.762400 2.181600
5.779900 1.938500
5.797300 1.751700
5.814800 1.753400
5.832200 1.959100
5.849600 2.244500
5.867100 2.426700
5.884500 2.384900
5.902000 2.134900
5.919400 1.808100
5.936900 1.557300
5.954300 1.479600
5.971700 1.598700
5.989200 1.867800
6.006600 2.186500
6.024100 2.454600
6.041500 2.625300
6.058900 2.696800
6.076400 2.669300
6.093800 2.528000
6.111300 2.263700
6.128700 1.903400
6.146100 1.521700
6.163600 1.223700
6.181000 1.094600
6.198500 1.140000
6.215900 1.268800
6.233300 1.356900
6.250800 1.345800
6.268200 1.278100
6.285700 1.234100
6.303100 1.249000
6.320500 1.300900
6.338000 1.357800
6.355400 1.414700
6.372900 1.496500
6.390300 1.634800
6.407700 1.821300
6.425200 1.981600
6.442600 2.024300
6.460100 1.930400
6.477500 1.785800
6.494900 1.726800
6.512400 1.846500
6.529800 2.121000
6.547300 2.422500
6.564700 2.637500
6.582100 2.764100
6.599600 2.852300
6.617000 2.879600
6.634500 2.763300
6.651900 2.489300
6.669400 2.160100
6.686800 1.896500
6.704200 1.727100
6.721700 1.593900
6.739100 1.445400
6.756600 1.298200
6.774000 1.210800
6.791400 1.227000
6.808900 1.349700
6.826300 1.538700
6.843800 1.718100
6.861200 1.805800
6.878600 1.760300
6.896100 1.599800
6.913500 1.386400
6.931000 1.195900
6.948400 1.077900
6.965800 1.017700
6.983300 0.955400
7.000700 0.864600
7.018200 0.804800
7.035600 0.868700
7.053000 1.078300
7.070500 1.349100
7.087900 1.556300
7.105400 1.623200
7.122800 1.557000
7.140200 1.429100
7.157700 1.328800
7.175100 1.314300
7.192600 1.386100
7.210000 1.505600
7.227400 1.634100
7.244900 1.748500
7.262300 1.828200
7.279800 1.847200
7.297200 1.787900
7.314600 1.659000
7.332100 1.507300
7.349500 1.419100
7.367000 1.495400
7.384400 1.793500
7.401800 2.254900
7.419300 2.698500
7.436700 2.945300
7.454200 2.973900
7.471600 2.912100
7.489100 2.873900
7.506500 2.853100
7.523900 2.771300
7.541400 2.571600
7.558800 2.261300
7.576300 1.909100
7.593700 1.610900
7.611100 1.432600
7.628600 1.381400
7.646000 1.428400
7.663500 1.533500
7.680900 1.651800
7.698300 1.759600
7.715800 1.886200
7.733200 2.086600
7.750700 2.365700
7.768100 2.654700
7.785500 2.878600
7.803000 3.010200
7.820400 3.037200
7.837900 2.927600
7.855300 2.671100
7.872700 2.320100
7.890200 1.952200
7.907600 1.615500
7.925100 1.324700
7.942500 1.084200
7.959900 0.899400
7.977400 0.784700
7.994800 0.769100
8.012300 0.881800
8.029700 1.119100
8.047100 1.422400
8.064600 1.698000
8.082000 1.869900
8.099500 1.919900
8.116900 1.892100
8.134300 1.863400
8.151800 1.886800
8.169200 1.951000
8.186700 2.009000
8.204100 2.042100
8.221600 2.071700
8.239000 2.119200
8.256400 2.174900
8.273900 2.207300
8.291300 2.190400
8.308800 2.121900
8.326200 2.010700
8.343600 1.864700
8.361100 1.726900
8.378500 1.705100
8.396000 1.897900
8.413400 2.268300
8.430800 2.623600
8.448300 2.749300
8.465700 2.577500
8.483200 2.247900
8.500600 2.007300
8.518000 2.016700
8.535500 2.231900
8.552900 2.462100
8.570400 2.535200
8.587800 2.410500
8.605200 2.168600
8.622700 1.935600
8.640100 1.810000
8.657600 1.816900
8.675000 1.911900
8.692400 2.039900
8.709900 2.186400
8.727300 2.360200
8.744800 2.552000
8.762200 2.734100
8.779600 2.869900
8.797100 2.898900
8.814500 2.756300
8.832000 2.455200
8.849400 2.109900
8.866800 1.841200
8.884300 1.683800
8.901700 1.600500
8.919200 1.545100
8.936600 1.490600
8.954100 1.424600
8.971500 1.340900
8.988900 1.243200
9.006400 1.165000
9.023800 1.179100
9.041300 1.359600
9.058700 1.727300
9.076100 2.235000
9.093600 2.781800
9.111000 3.225700
9.128500 3.422500
9.145900 3.325600
9.163300 3.070400
9.180800 2.900500
9.198200 2.944000
9.215700 3.075800
9.233100 3.047500
9.250500 2.731500
9.268000 2.200600
9.285400 1.622100
9.302900 1.149800
9.320300 0.896500
9.337700 0.914100
9.355200 1.153800
9.372600 1.469700
9.390100 1.711900
9.407500 1.835300
9.424900 1.911600
9.442400 2.042400
9.459800 2.272800
9.477300 2.560600
9.494700 2.786100
9.512100 2.810200
9.529600 2.585500
9.547000 2.225600
9.564500 1.936400
9.581900 1.863100
9.599300 2.003600
9.616800 2.252300
9.634200 2.504100
9.651700 2.716800
9.669100 2.901300
9.686600 3.068500
9.704000 3.180900
9.721400 3.157900
9.738900 2.944600
9.756300 2.579500
9.773800 2.186600
9.791200 1.895200
9.808600 1.768200
9.826100 1.805800
9.843500 1.995800
9.861000 2.326300
9.878400 2.750300
9.895800 3.164000
9.913300 3.435300
9.930700 3.473600
9.948200 3.301600
9.965600 3.040800
9.983000 2.799600
10.000500 2.597900
10.017900 2.417500
10.035400 2.283100
10.052800 2.249400
10.070200 2.326700
10.087700 2.455100
10.105100 2.562100
10.122600 2.621700
10.140000 2.660400
10.157400 2.731500
10.174900 2.879400
10.192300 3.091600
10.209800 3.271800
10.227200 3.287500
10.244600 3.071900
10.262100 2.696700
10.279500 2.340200
10.297000 2.159100
10.314400 2.172700
10.331800 2.276600
10.349300 2.379700
10.366700 2.508400
10.384200 2.744300
10.401600 3.073200
10.419100 3.346100
10.436500 3.401700
10.453900 3.197500
10.471400 2.822500
10.488800 2.423800
10.506300 2.129500
10.523700 2.012800
10.541100 2.093600
10.558600 2.345300
10.576000 2.682100
10.593500 2.966500
10.610900 3.082900
10.628300 3.018100
10.645800 2.849100
10.663200 2.648600
10.680700 2.428700
10.698100 2.179100
10.715500 1.934700
10.733000 1.789400
10.750400 1.849500
10.767900 2.162700
10.785300 2.667400
10.802700 3.190800
10.820200 3.508000
10.837600 3.462700
10.855100 3.090200
10.872500 2.622200
10.889900 2.326000
10.907400 2.309700
10.924800 2.479400
10.942300 2.670200
10.959700 2.798300
10.977100 2.899700
10.994600 3.058400
11.012000 3.298000
11.029500 3.520300
11.046900 3.562900
11.064300 3.345200
11.081800 2.953400
11.099200 2.567900
11.116700 2.309300
11.134100 2.164700
11.151500 2.051700
11.169000 1.920300
11.186400 1.772900
11.203900 1.621800
11.221300 1.475100
11.238800 1.368300
11.256200 1.369100
11.273600 1.519800
11.291100 1.776700
11.308500 2.025500
11.326000 2.172400
11.343400 2.221500
11.360800 2.250400
11.378300 2.310800
11.395700 2.384200
11.413200 2.446300
11.430600 2.526700
11.448000 2.667600
11.465500 2.853000
11.482900 3.013000
11.500400 3.073300
11.517800 2.984600
11.535200 2.745700
11.552700 2.426000
11.570100 2.132200
11.587600 1.942000
11.605000 1.891500
11.622400 2.001000
11.639900 2.260500
11.657300 2.594500
11.674800 2.893900
11.692200 3.096000
11.709600 3.204500
11.727100 3.226300
11.744500 3.140300
11.762000 2.960000
11.779400 2.770700
11.796800 2.642400
11.814300 2.545800
11.831700 2.422700
11.849200 2.299700
11.866600 2.258700
11.884000 2.320400
11.901500 2.425000
11.918900 2.509900
11.936400 2.549300
11.953800 2.536000
11.971300 2.484100
11.988700 2.443400
12.006100 2.454200
12.023600 2.474100
12.041000 2.395000
12.058500 2.165800
12.075900 1.878000
12.093300 1.715700
12.110800 1.826600
12.128200 2.220100
12.145700 2.738900
12.163100 3.132500
12.180500 3.221300
12.198000 3.016500
12.215400 2.669100
12.232900 2.320200
12.250300 2.035600
12.267700 1.846200
12.285200 1.781000
12.302600 1.851400
12.320100 2.028100
12.337500 2.240300
12.354900 2.402300
12.372400 2.471700
12.389800 2.488900
12.407300 2.532600
12.424700 2.625200
12.442100 2.698600
12.459600 2.672400
12.477000 2.562800
12.494500 2.483300
12.511900 2.521100
12.529300 2.634100
12.546800 2.693400
12.564200 2.622100
12.581700 2.476900
12.599100 2.382300
12.616500 2.386100
12.634000 2.408900
12.651400 2.348500
12.668900 2.199600
12.686300 2.042400
12.703800 1.949000
12.721200 1.935900
12.738600 1.984200
12.756100 2.070600
12.773500 2.171200
12.791000 2.240700
12.808400 2.220000
12.825800 2.104400
12.843300 1.984100
12.860700 1.958600
12.878200 2.016800
12.895600 2.056300
12.913000 2.018500
12.930500 1.949700
12.947900 1.924800
12.965400 1.970600
12.982800 2.077800
13.000200 2.228600
13.017700 2.378200
13.035100 2.457800
13.052600 2.436700
13.070000 2.368800
13.087400 2.358900
13.104900 2.474500
13.122300 2.674500
13.139800 2.826200
13.157200 2.820900
13.174600 2.669100
13.192100 2.460900
13.209500 2.253200
13.227000 2.039700
13.244400 1.813200
13.261800 1.607100
13.279300 1.463900
13.296700 1.391300
13.314200 1.366200
13.331600 1.367800
13.349000 1.389700
13.366500 1.421700
13.383900 1.450500
13.401400 1.489300
13.418800 1.575700
13.436300 1.718700
13.453700 1.875100
13.471100 1.994200
13.488600 2.064400
13.506000 2.104700
13.523500 2.129300
13.540900 2.138400
13.558300 2.137400
13.575800 2.142600
13.593200 2.151700
13.610700 2.128300
13.628100 2.048400
13.645500 1.948100
13.663000 1.891300
13.680400 1.891500
13.697900 1.899100
13.715300 1.869600
13.732700 1.816500
13.750200 1.787800
13.767600 1.810400
13.785100 1.885400
13.802500 2.032700
13.819900 2.286100
13.837400 2.606300
13.854800 2.838400
13.872300 2.823400
13.889700 2.550300
13.907100 2.169400
13.924600 1.861800
13.942000 1.718900
13.959500 1.732300
13.976900 1.860700
13.994300 2.081700
14.011800 2.362400
14.029200 2.590700
14.046700 2.598900
14.064100 2.307400
14.081500 1.823400
14.099000 1.363800
14.116400 1.098900
14.133900 1.078300
14.151300 1.260800
14.168800 1.563400
14.186200 1.885200
14.203600 2.125500
14.221100 2.223700
14.238500 2.193800
14.256000 2.104600
14.273400 2.018400
14.290800 1.948600
14.308300 1.876600
14.325700 1.806300
14.343200 1.784000
14.360600 1.845300
14.378000 1.952000
14.395500 2.009100
14.412900 1.954200
14.430400 1.822500
14.447800 1.715900
14.465200 1.715900
14.482700 1.838000
14.500100 2.047400
14.517600 2.282400
14.535000 2.473300
14.552400 2.586300
14.569900 2.661400
14.587300 2.774300
14.604800 2.938200
14.622200 3.057500
14.639600 3.007500
14.657100 2.774300
14.674500 2.491800
14.692000 2.319100
14.709400 2.299000
14.726800 2.356600
14.744300 2.407900
14.761700 2.419200
14.779200 2.368300
14.796600 2.221800
14.814000 1.988000
14.831500 1.750600
14.848900 1.614800
14.866400 1.633200
14.883800 1.779900
14.901200 1.967600
14.918700 2.088900
14.936100 2.088800
14.953600 2.023600
14.971000 2.029700
14.988500 2.204600
15.005900 2.517500
15.023300 2.839500
15.040800 3.036700
15.058200 3.027200
15.075700 2.802000
15.093100 2.448000
15.110500 2.136400
15.128000 2.038100
15.145400 2.224900
15.162900 2.626800
15.180300 3.072100
15.197700 3.402300
15.215200 3.569900
15.232600 3.610900
15.250100 3.550600
15.267500 3.391800
15.284900 3.168500
15.302400 2.948900
15.319800 2.782800
15.337300 2.677300
15.354700 2.618400
15.372100 2.600500
15.389600 2.641600
15.407000 2.780600
15.424500 3.053500
15.441900 3.453100
15.459300 3.901500
15.476800 4.259200
15.494200 4.378900
15.511700 4.192200
15.529100 3.775200
15.546500 3.313600
15.564000 2.986400
15.581400 2.883300
15.598900 3.004500
15.616300 3.271500
15.633700 3.521500
15.651200 3.572000
15.668600 3.380400
15.686100 3.128500
15.703500 3.078500
15.721000 3.322500
15.738400 3.698600
15.755800 3.952900
15.773300 3.968900
15.790700 3.849300
15.808200 3.789700
15.825600 3.870600
15.843000 3.980300
15.860500 3.939400
15.877900 3.671100
15.895400 3.239400
15.912800 2.778900
15.930200 2.431700
15.947700 2.319900
15.965100 2.513000
15.982600 2.978600
16.000000 3.561800
16.017400 4.056900
16.034900 4.338300
16.052300 4.427000
16.069800 4.441400
16.087200 4.512800
16.104600 4.717100
16.122100 5.009900
16.139500 5.223100
16.157000 5.182800
16.174400 4.846000
16.191800 4.314700
16.209300 3.750000
16.226700 3.291200
16.244200 3.014400
16.261600 2.918000
16.279000 2.933800
16.296500 2.980600
16.313900 3.051100
16.331400 3.240800
16.348800 3.643400
16.366200 4.203200
16.383700 4.696600
16.401100 4.886500
16.418600 4.701700
16.436000 4.266600
16.453500 3.773000
16.470900 3.347500
16.488300 3.033400
16.505800 2.838000
16.523200 2.745600
16.540700 2.700500
16.558100 2.629400
16.575500 2.505100
16.593000 2.369500
16.610400 2.286900
16.627900 2.297100
16.645300 2.409100
16.662700 2.598500
16.680200 2.803800
16.697600 2.967500
16.715100 3.087000
16.732500 3.201900
16.749900 3.324300
16.767400 3.405200
16.784800 3.381000
16.802300 3.250100
16.819700 3.104800
16.837100 3.096700
16.854600 3.342700
16.872000 3.822100
16.889500 4.365600
16.906900 4.762400
16.924300 4.888500
16.941800 4.756500
16.959200 4.485700
16.976700 4.233800
16.994100 4.122800
17.011500 4.172500
17.029000 4.275200
17.046400 4.270700
17.063900 4.086300
17.081300 3.786300
17.098700 3.478400
17.116200 3.219700
17.133600 3.035800
17.151100 2.973900
17.168500 3.080200
17.186000 3.348000
17.203400 3.721000
17.220800 4.112000
17.238300 4.395000
17.255700 4.441900
17.273200 4.226600
17.290600 3.865700
17.308000 3.518500
17.325500 3.268300
17.342900 3.119300
17.360400 3.068700
17.377800 3.122200
17.395200 3.234600
17.412700 3.285500
17.430100 3.154300
17.447600 2.839200
17.465000 2.501200
17.482400 2.362500
17.499900 2.534500
17.517300 2.929300
17.534800 3.321800
17.552200 3.491000
17.569600 3.343300
17.587100 2.965000
17.604500 2.562900
17.622000 2.313400
17.639400 2.247100
17.656800 2.271000
17.674300 2.265800
17.691700 2.151500
17.709200 1.924700
17.726600 1.687000
17.744000 1.603900
17.761500 1.780400
17.778900 2.162200
17.796400 2.564800
17.813800 2.807400
17.831200 2.824300
17.848700 2.658400
17.866100 2.386800
17.883600 2.087700
17.901000 1.844400
17.918400 1.717900
17.935900 1.696700
17.953300 1.703600
17.970800 1.669600
17.988200 1.602200
18.005700 1.578400
18.023100 1.678500
18.040500 1.936100
18.058000 2.340700
18.075400 2.837200
18.092900 3.288900
18.110300 3.487100
18.127700 3.285600
18.145200 2.752200
18.162600 2.144700
18.180100 1.720100
18.197500 1.576500
18.214900 1.658300
18.232400 1.866000
18.249800 2.132600
18.267300 2.419400
18.284700 2.698700
18.302100 2.967100
18.319600 3.235500
18.337000 3.477500
18.354500 3.615700
18.371900 3.576300
18.389300 3.345400
18.406800 2.983100
18.424200 2.606100
18.441700 2.352700
18.459100 2.335600
18.476500 2.585900
18.494000 3.017400
18.511400 3.450100
18.528900 3.700500
18.546300 3.684300
18.563700 3.450900
18.581200 3.126400
18.598600 2.822600
18.616100 2.594500
18.633500 2.472700
18.650900 2.515000
18.668400 2.776900
18.685800 3.199300
18.703300 3.551400
18.720700 3.560700
18.738200 3.143700
18.755600 2.495700
18.773000 1.925400
18.790500 1.620000
18.807900 1.584400
18.825400 1.746700
18.842800 2.050000
18.860200 2.444000
18.877700 2.844400
18.895100 3.135100
18.912600 3.221700
18.930000 3.082800
18.947400 2.772000
18.964900 2.382500
18.982300 2.026800
18.999800 1.813300
19.017200 1.788400
19.034600 1.899900
19.052100 2.056700
19.069500 2.226500
19.087000 2.453600
19.104400 2.787800
19.121800 3.204400
19.139300 3.574300
19.156700 3.708600
19.174200 3.472000
19.191600 2.884500
19.209000 2.118000
19.226500 1.399600
19.243900 0.900500
19.261400 0.674800
19.278800 0.675100
19.296200 0.829300
19.313700 1.100400
19.331100 1.468900
19.348600 1.881300
19.366000 2.242400
19.383400 2.457200
19.400900 2.482900
19.418300 2.371600
19.435800 2.249400
19.453200 2.205500
19.470700 2.211100
19.488100 2.191900
19.505500 2.158200
19.523000 2.210600
19.540400 2.417400
19.557900 2.721400
19.575300 2.974800
19.592700 3.065800
19.610200 3.013300
19.627600 2.933800
19.645100 2.917000
19.662500 2.948800
19.679900 2.958700
19.697400 2.915500
19.714800 2.841800
19.732300 2.752600
19.749700 2.626500
19.767100 2.447700
19.784600 2.250400
19.802000 2.113000
19.819500 2.118200
19.836900 2.307600
19.854300 2.644600
19.871800 3.011000
19.889200 3.265500
19.906700 3.334300
19.924100 3.259300
19.941500 3.172600
19.959000 3.218500
19.976400 3.467900
19.993900 3.871700
20.011300 4.289300
20.028700 4.565300
20.046200 4.604400
20.063600 4.425500
20.081100 4.166200
20.098500 3.985900
20.115900 3.921700
20.133400 3.869900
20.150800 3.722200
20.168300 3.472800
20.185700 3.170400
20.203200 2.823700
20.220600 2.415300
20.238000 1.987400
20.255500 1.659600
20.272900 1.549200
20.290400 1.689600
20.307800 2.023700
20.325200 2.449600
20.342700 2.864500
20.360100 3.191700
20.377600 3.403000
20.395000 3.517000
20.412400 3.557500
20.429900 3.517900
20.447300 3.390900
20.464800 3.220900
20.482200 3.085900
20.499600 3.020300
20.517100 2.983200
20.534500 2.905000
20.552000 2.751400
20.569400 2.554400
20.586800 2.387600
20.604300 2.299400
20.621700 2.286300
20.639200 2.357600
20.656600 2.595500
20.674000 3.088900
20.691500 3.795200
20.708900 4.507500
20.726400 4.980300
20.743800 5.072600
20.761200 4.789400
20.778700 4.263400
20.796100 3.729800
20.813600 3.446300
20.831000 3.537400
20.848400 3.885300
20.865900 4.199000
20.883300 4.227400
20.900800 3.939600
20.918200 3.528300
20.935700 3.253700
20.953100 3.268700
20.970500 3.552500
20.988000 3.960300
21.005400 4.332700
21.022900 4.590300
21.040300 4.744900
21.057700 4.826700
21.075200 4.814500
21.092600 4.644000
21.110100 4.271400
21.127500 3.734300
21.144900 3.169700
21.162400 2.778200
21.179800 2.731600
21.197300 3.057000
21.214700 3.584800
21.232100 4.041000
21.249600 4.215700
21.267000 4.053200
21.284500 3.629500
21.301900 3.105400
21.319300 2.680800
21.336800 2.513100
21.354200 2.645000
21.371700 2.999900
21.389100 3.417100
21.406500 3.699600
21.424000 3.705300
21.441400 3.448600
21.458900 3.104600
21.476300 2.896100
21.493700 2.965500
21.511200 3.322600
21.528600 3.854800
21.546100 4.362600
21.563500 4.635600
21.580900 4.563600
21.598400 4.199300
21.615800 3.715900
21.633300 3.297700
21.650700 3.034800
21.668100 2.889300
21.685600 2.769000
21.703000 2.652300
21.720500 2.629800
21.737900 2.797100
21.755400 3.122100
21.772800 3.458500
21.790200 3.679200
21.807700 3.749900
21.825100 3.690200
21.842600 3.531000
21.860000 3.331200
21.877400 3.185700
21.894900 3.175700
21.912300 3.308700
21.929800 3.515000
21.947200 3.705200
21.964600 3.854800
21.982100 4.039400
21.999500 4.346300
22.017000 4.716500
22.034400 4.921600
22.051800 4.770200
22.069300 4.313300
22.086700 3.793200
22.104200 3.427400
22.121600 3.295200
22.139000 3.375800
22.156500 3.593200
22.173900 3.814800
22.191400 3.886800
22.208800 3.743100
22.226200 3.470300
22.243700 3.231300
22.261100 3.131800
22.278600 3.169200
22.296000 3.263600
22.313400 3.310600
22.330900 3.240500
22.348300 3.064800
22.365800 2.847800
22.383200 2.631100
22.400600 2.418000
22.418100 2.220300
22.435500 2.078700
22.453000 2.043500
22.470400 2.157700
22.487900 2.423700
22.505300 2.758100
22.522700 3.023400
22.540200 3.148200
22.557600 3.202200
22.575100 3.330100
22.592500 3.598200
22.609900 3.888800
22.627400 3.959500
22.644800 3.661300
22.662300 3.114400
22.679700 2.628200
22.697100 2.430700
22.714600 2.483100
22.732000 2.544900
22.749500 2.394300
22.766900 1.995400
22.784300 1.490800
22.801800 1.064900
22.819200 0.818700
22.836700 0.748400
22.854100 0.797900
22.871500 0.905700
22.889000 1.027800
22.906400 1.153900
22.923900 1.303500
22.941300 1.470300
22.958700 1.569500
22.976200 1.491500
22.993600 1.221800
23.011100 0.867800
23.028500 0.556100
23.045900 0.341800
23.063400 0.220700
23.080800 0.182600
23.098300 0.225400
23.115700 0.333200
23.133100 0.467100
23.150600 0.583900
23.168000 0.655700
23.185500 0.664800
23.202900 0.599700
23.220400 0.475200
23.237800 0.347700
23.255200 0.290700
23.272700 0.351500
23.290100 0.525500
23.307600 0.760300
23.325000 0.978900
23.342400 1.112200
23.359900 1.122800
23.377300 1.016300
23.394800 0.847200
23.412200 0.702900
23.429600 0.650000
23.447100 0.685000
23.464500 0.750800
23.482000 0.793800
23.499400 0.793900
23.516800 0.752000
23.534300 0.673600
23.551700 0.564500
23.569200 0.433600
23.586600 0.299900
23.604000 0.194500
23.621500 0.147600
23.638900 0.169500
23.656400 0.239400
23.673800 0.311200
23.691200 0.336900
23.708700 0.297300
23.726100 0.212600
23.743600 0.122900
23.761000 0.057300
23.778400 0.021800
23.795900 0.008400
23.813300 0.008500
23.830800 0.019100
23.848200 0.039600
23.865600 0.065900
23.883100 0.087900
23.900500 0.098000
23.918000 0.105700
23.935400 0.141100
23.952900 0.240900
23.970300 0.419300
23.987700 0.638200
24.005200 0.806200
24.022600 0.830300
24.040100 0.691100
24.057500 0.463800
24.074900 0.256200
24.092400 0.132200
24.109800 0.093000
24.127300 0.108000
24.144700 0.146100
24.162100 0.186400
24.179600 0.213600
24.197000 0.214000
24.214500 0.183500
24.231900 0.136700
24.249300 0.100400
24.266800 0.092700
24.284200 0.111100
24.301700 0.137500
24.319100 0.152600
24.336500 0.145900
24.354000 0.119000
24.371400 0.084200
24.388900 0.059300
24.406300 0.060900
24.423700 0.097400
24.441200 0.162500
24.458600 0.232000
24.476100 0.276700
24.493500 0.284400
24.510900 0.271200
24.528400 0.263200
24.545800 0.267800
24.563300 0.265600
24.580700 0.233600
24.598100 0.171400
24.615600 0.102200
24.633000 0.050000
24.650500 0.024300
24.667900 0.024300
24.685400 0.048300
24.702800 0.092900
24.720200 0.143900
24.737700 0.176200
24.755100 0.169900
24.772600 0.129100
24.790000 0.077300
24.807400 0.036400
24.824900 0.013500
24.842300 0.004000
24.859800 0.000900
24.877200 0.000200
24.894600 0.000000
24.912100 0.000000
24.929500 0.000000
24.947000 0.000000
24.964400 0.000000
24.981800 0.000300
24.999300 0.001100
25.016700 0.003600
25.034200 0.009600
25.051600 0.020100
25.069000 0.033000
25.086500 0.042900
25.103900 0.043800
25.121400 0.035300
25.138800 0.022400
25.156200 0.011200
25.173700 0.004400
25.191100 0.001400
25.208600 0.000300
25.226000 0.000100
25.243400 0.000000
25.260900 0.000000
25.278300 0.000000
25.295800 0.000000
25.313200 0.000000
25.330600 0.000000
25.348100 0.000000
25.365500 0.000000
25.383000 0.000000
25.400400 0.000000
25.417800 0.000000
25.435300 0.000000
25.452700 0.000000
25.470200 0.000000
25.487600 0.000000
25.505100 0.000000
25.522500 0.000000
25.539900 0.000000
25.557400 0.000000
25.574800 0.000000
25.592300 0.000000
25.609700 0.000000
25.627100 0.000000
25.644600 0.000000
25.662000 0.000000
25.679500 0.000000
25.696900 0.000000
25.714300 0.000000
25.731800 0.000000
25.749200 0.000000
25.766700 0.000000
25.784100 0.000000
25.801500 0.000000
25.819000 0.000000
25.836400 0.000000
25.853900 0.000000
25.871300 0.000000
25.888700 0.000000
25.906200 0.000000
25.923600 0.000000
25.941100 0.000000
25.958500 0.000000
25.975900 0.000000
25.993400 0.000000
26.010800 0.000000
26.028300 0.000000
26.045700 0.000000
26.063100 0.000000
26.080600 0.000000
26.098000 0.000000
26.115500 0.000000
26.132900 0.000000
26.150300 0.000000
26.167800 0.000000
26.185200 0.000000
26.202700 0.000000
26.220100 0.000000
26.237600 0.000000
26.255000 0.000000
26.272400 0.000000
26.289900 0.000000
26.307300 0.000000
26.324800 0.000000
26.342200 0.000000
26.359600 0.000000
26.377100 0.000000
26.394500 0.000000
26.412000 0.000000
26.429400 0.000000
26.446800 0.000000
26.464300 0.000000
26.481700 0.000000
26.499200 0.000000
26.516600 0.000000
26.534000 0.000000
26.551500 0.000000
26.568900 0.000000
26.586400 0.000000
26.603800 0.000000
26.621200 0.000000
26.638700 0.000000
26.656100 0.000000
26.673600 0.000000
e
