set title 'mp-570197 - Density of States'
set xlabel 'Energy (eV)'
set ylabel 'DOS (states/eV)'
set grid
set xrange [-10:10]
set yrange [0:11.748]
set xzeroaxis lt -1
set terminal png size 800,600
set output 'mp-570197_dos_gnuplot.png'
plot '-' using 1:2 with lines title 'DOS'
-7.901500 0.000000
-7.887500 0.000000
-7.873400 0.000000
-7.859400 0.000000
-7.845300 0.000000
-7.831300 0.000000
-7.817200 0.000000
-7.803200 0.000000
-7.789100 0.000000
-7.775000 0.000000
-7.761000 0.000000
-7.746900 0.000000
-7.732900 0.000000
-7.718800 0.000000
-7.704800 0.000000
-7.690700 0.000000
-7.676700 0.000000
-7.662600 0.000000
-7.648600 0.000000
-7.634500 0.000000
-7.620500 0.000000
-7.606400 0.000000
-7.592400 0.000000
-7.578300 0.000000
-7.564300 0.000000
-7.550200 0.000000
-7.536200 0.000000
-7.522100 0.000000
-7.508100 0.000000
-7.494000 0.000000
-7.480000 0.000000
-7.465900 0.000000
-7.451900 0.000000
-7.437800 0.000000
-7.423800 0.000000
-7.409700 0.000000
-7.395700 0.000000
-7.381600 0.000000
-7.367600 0.000000
-7.353500 0.000000
-7.339500 0.000000
-7.325400 0.000000
-7.311400 0.000000
-7.297300 0.000000
-7.283300 0.000000
-7.269200 0.000000
-7.255200 0.000000
-7.241100 0.000000
-7.227100 0.000000
-7.213000 0.000000
-7.199000 0.000000
-7.184900 0.000000
-7.170900 0.000000
-7.156800 0.000000
-7.142800 0.000000
-7.128700 0.000000
-7.114700 0.000000
-7.100600 0.000000
-7.086600 0.000000
-7.072500 0.000000
-7.058500 0.000000
-7.044400 0.000000
-7.030400 0.000000
-7.016300 0.000000
-7.002300 0.000000
-6.988200 0.000000
-6.974200 0.000000
-6.960100 0.000000
-6.946100 0.000000
-6.932000 0.000000
-6.918000 0.000000
-6.903900 0.000000
-6.889800 0.000000
-6.875800 0.000000
-6.861700 0.000000
-6.847700 0.000000
-6.833600 0.000000
-6.819600 0.000000
-6.805500 0.000000
-6.791500 0.000000
-6.777400 0.000000
-6.763400 0.000000
-6.749300 0.000000
-6.735300 0.000000
-6.721200 0.000000
-6.707200 0.000000
-6.693100 0.000000
-6.679100 0.000000
-6.665000 0.000000
-6.651000 0.000000
-6.636900 0.000000
-6.622900 0.000100
-6.608800 0.015200
-6.594800 0.055900
-6.580700 0.111800
-6.566700 0.134700
-6.552600 0.143100
-6.538600 0.155700
-6.524500 0.172700
-6.510500 0.190500
-6.496400 0.208400
-6.482400 0.226600
-6.468300 0.240200
-6.454300 0.248900
-6.440200 0.257500
-6.426200 0.267300
-6.412100 0.277700
-6.398100 0.287100
-6.384000 0.295900
-6.370000 0.306500
-6.355900 0.317200
-6.341900 0.328000
-6.327800 0.339000
-6.313800 0.350500
-6.299700 0.361400
-6.285700 0.370500
-6.271600 0.377800
-6.257600 0.385000
-6.243500 0.392300
-6.229500 0.399800
-6.215400 0.407200
-6.201400 0.414700
-6.187300 0.422300
-6.173300 0.430200
-6.159200 0.438500
-6.145200 0.447200
-6.131100 0.456100
-6.117100 0.465100
-6.103000 0.474400
-6.089000 0.483600
-6.074900 0.492600
-6.060900 0.501900
-6.046800 0.510900
-6.032800 0.521500
-6.018700 0.532500
-6.004700 0.542500
-5.990600 0.551200
-5.976500 0.558600
-5.962500 0.576800
-5.948400 0.578500
-5.934400 0.570000
-5.920300 0.576500
-5.906300 0.582300
-5.892200 0.587300
-5.878200 0.591500
-5.864100 0.594900
-5.850100 0.597500
-5.836000 0.599200
-5.822000 0.602600
-5.807900 0.612600
-5.793900 0.635600
-5.779800 0.650400
-5.765800 0.668600
-5.751700 0.678800
-5.737700 0.684600
-5.723600 0.695400
-5.709600 0.700400
-5.695500 0.701200
-5.681500 0.704800
-5.667400 0.715800
-5.653400 0.709400
-5.639300 0.716700
-5.625300 0.726100
-5.611200 0.736500
-5.597200 0.747800
-5.583100 0.760300
-5.569100 0.775500
-5.555000 0.791400
-5.541000 0.800700
-5.526900 0.805700
-5.512900 0.809700
-5.498800 0.815300
-5.484800 0.822800
-5.470700 0.831100
-5.456700 0.839600
-5.442600 0.849300
-5.428600 0.860800
-5.414500 0.872000
-5.400500 0.882700
-5.386400 0.893500
-5.372400 0.904700
-5.358300 0.916300
-5.344300 0.928200
-5.330200 0.940400
-5.316200 0.953000
-5.302100 0.965700
-5.288100 0.978400
-5.274000 0.990700
-5.260000 1.004100
-5.245900 1.016500
-5.231900 1.027200
-5.217800 1.037900
-5.203800 1.049700
-5.189700 1.061700
-5.175700 1.072900
-5.161600 1.084300
-5.147600 1.095900
-5.133500 1.107800
-5.119500 1.120000
-5.105400 1.133300
-5.091300 1.148500
-5.077300 1.164500
-5.063200 1.180500
-5.049200 1.197000
-5.035100 1.214300
-5.021100 1.232800
-5.007000 1.252300
-4.993000 1.273200
-4.978900 1.296800
-4.964900 1.319500
-4.950800 1.341500
-4.936800 1.363100
-4.922700 1.386400
-4.908700 1.412400
-4.894600 1.439200
-4.880600 1.466600
-4.866500 1.496000
-4.852500 1.527700
-4.838400 1.561100
-4.824400 1.597600
-4.810300 1.650300
-4.796300 1.721600
-4.782200 1.765800
-4.768200 1.763100
-4.754100 1.799400
-4.740100 1.844300
-4.726000 1.898300
-4.712000 1.933800
-4.697900 1.974200
-4.683900 2.021700
-4.669800 2.080200
-4.655800 2.176600
-4.641700 2.289300
-4.627700 2.440100
-4.613600 2.472500
-4.599600 2.360000
-4.585500 2.164300
-4.571500 2.066500
-4.557400 2.028500
-4.543400 1.997800
-4.529300 1.965100
-4.515300 1.903900
-4.501200 1.877800
-4.487200 1.861300
-4.473100 1.853500
-4.459100 1.845400
-4.445000 1.835200
-4.431000 1.825300
-4.416900 1.817300
-4.402900 1.807200
-4.388800 1.793100
-4.374800 1.786800
-4.360700 1.785900
-4.346700 1.791500
-4.332600 1.796900
-4.318600 1.801800
-4.304500 1.807000
-4.290500 1.816900
-4.276400 1.826800
-4.262400 1.837200
-4.248300 1.849700
-4.234300 1.863200
-4.220200 1.882000
-4.206100 1.905800
-4.192100 1.936500
-4.178000 1.972500
-4.164000 2.012500
-4.149900 2.061200
-4.135900 2.120600
-4.121800 2.372800
-4.107800 2.431200
-4.093700 2.399700
-4.079700 2.357300
-4.065600 2.331600
-4.051600 2.338600
-4.037500 2.341600
-4.023500 2.183500
-4.009400 1.982900
-3.995400 1.888300
-3.981300 1.828100
-3.967300 1.771200
-3.953200 1.718300
-3.939200 1.666700
-3.925100 1.617500
-3.911100 1.568300
-3.897000 1.537800
-3.883000 1.512900
-3.868900 1.488700
-3.854900 1.464600
-3.840800 1.438400
-3.826800 1.409200
-3.812700 1.382200
-3.798700 1.356200
-3.784600 1.327500
-3.770600 1.298400
-3.756500 1.270600
-3.742500 1.248800
-3.728400 1.232200
-3.714400 1.217300
-3.700300 1.201500
-3.686300 1.186400
-3.672200 1.172600
-3.658200 1.159900
-3.644100 1.150000
-3.630100 1.147000
-3.616000 1.148500
-3.602000 1.115300
-3.587900 1.085200
-3.573900 1.055400
-3.559800 1.026700
-3.545800 1.003000
-3.531700 0.988800
-3.517700 0.991900
-3.503600 1.048300
-3.489600 1.127900
-3.475500 0.944400
-3.461500 0.792900
-3.447400 0.641200
-3.433400 0.556700
-3.419300 0.549600
-3.405300 0.542400
-3.391200 0.534900
-3.377200 0.527400
-3.363100 0.519500
-3.349100 0.511200
-3.335000 0.501400
-3.320900 0.492300
-3.306900 0.483900
-3.292800 0.476200
-3.278800 0.469600
-3.264700 0.464200
-3.250700 0.458900
-3.236600 0.453700
-3.222600 0.448500
-3.208500 0.443400
-3.194500 0.438300
-3.180400 0.433300
-3.166400 0.428100
-3.152300 0.422900
-3.138300 0.417700
-3.124200 0.412500
-3.110200 0.407200
-3.096100 0.401600
-3.082100 0.396600
-3.068000 0.392500
-3.054000 0.388500
-3.039900 0.385700
-3.025900 0.381600
-3.011800 0.376900
-2.997800 0.371200
-2.983700 0.365200
-2.969700 0.359300
-2.955600 0.353600
-2.941600 0.348000
-2.927500 0.342600
-2.913500 0.337700
-2.899400 0.333000
-2.885400 0.328800
-2.871300 0.325300
-2.857300 0.322200
-2.843200 0.319100
-2.829200 0.316200
-2.815100 0.313800
-2.801100 0.311900
-2.787000 0.311000
-2.773000 0.312100
-2.758900 0.322600
-2.744900 0.314100
-2.730800 0.305500
-2.716800 0.297000
-2.702700 0.288500
-2.688700 0.279900
-2.674600 0.271300
-2.660600 0.263600
-2.646500 0.256800
-2.632500 0.251400
-2.618400 0.247600
-2.604400 0.247400
-2.590300 0.252600
-2.576300 0.279900
-2.562200 0.320600
-2.548200 0.302800
-2.534100 0.250100
-2.520100 0.197300
-2.506000 0.144600
-2.492000 0.091800
-2.477900 0.038900
-2.463900 0.000000
-2.449800 0.000000
-2.435700 0.000000
-2.421700 0.000000
-2.407600 0.000000
-2.393600 0.000000
-2.379500 0.000000
-2.365500 0.000000
-2.351400 0.000000
-2.337400 0.000000
-2.323300 0.000000
-2.309300 0.000000
-2.295200 0.000000
-2.281200 0.000000
-2.267100 0.000000
-2.253100 0.000000
-2.239000 0.000000
-2.225000 0.000000
-2.210900 0.000000
-2.196900 0.000000
-2.182800 0.000000
-2.168800 0.000000
-2.154700 0.000000
-2.140700 0.000000
-2.126600 0.000000
-2.112600 0.000000
-2.098500 0.000000
-2.084500 0.000000
-2.070400 0.000000
-2.056400 0.000000
-2.042300 0.000000
-2.028300 0.000000
-2.014200 0.000000
-2.000200 0.000000
-1.986100 0.000000
-1.972100 0.000000
-1.958000 0.000000
-1.944000 0.000000
-1.929900 0.000000
-1.915900 0.000000
-1.901800 0.000000
-1.887800 0.000000
-1.873700 0.000000
-1.859700 0.000000
-1.845600 0.000000
-1.831600 0.000000
-1.817500 0.000000
-1.803500 0.000000
-1.789400 0.000000
-1.775400 0.000000
-1.761300 0.000000
-1.747300 0.000000
-1.733200 0.000000
-1.719200 0.000000
-1.705100 0.000000
-1.691100 0.000000
-1.677000 0.000000
-1.663000 0.000000
-1.648900 0.000000
-1.634900 0.000000
-1.620800 0.000000
-1.606800 0.000000
-1.592700 0.000000
-1.578700 0.000000
-1.564600 0.000000
-1.550500 0.000000
-1.536500 0.000000
-1.522400 0.000000
-1.508400 0.000000
-1.494300 0.000000
-1.480300 0.000000
-1.466200 0.000000
-1.452200 0.000000
-1.438100 0.000000
-1.424100 0.000000
-1.410000 0.000000
-1.396000 0.000000
-1.381900 0.000000
-1.367900 0.000000
-1.353800 0.000000
-1.339800 0.000000
-1.325700 0.000000
-1.311700 0.000000
-1.297600 0.000000
-1.283600 0.000000
-1.269500 0.000000
-1.255500 0.000000
-1.241400 0.000000
-1.227400 0.000000
-1.213300 0.000000
-1.199300 0.000000
-1.185200 0.000000
-1.171200 0.000000
-1.157100 0.000000
-1.143100 0.000000
-1.129000 0.000000
-1.115000 0.000000
-1.100900 0.000000
-1.086900 0.000000
-1.072800 0.000000
-1.058800 0.000000
-1.044700 0.000000
-1.030700 0.000000
-1.016600 0.000000
-1.002600 0.000000
-0.988500 0.000000
-0.974500 0.000000
-0.960400 0.000000
-0.946400 0.000000
-0.932300 0.000000
-0.918300 0.000000
-0.904200 0.000000
-0.890200 0.000000
-0.876100 0.000000
-0.862100 0.000000
-0.848000 0.000000
-0.834000 0.000000
-0.819900 0.000000
-0.805900 0.000000
-0.791800 0.000000
-0.777800 0.000000
-0.763700 0.000000
-0.749700 0.000000
-0.735600 0.000000
-0.721600 0.000000
-0.707500 0.000000
-0.693500 0.000000
-0.679400 0.000000
-0.665300 0.000000
-0.651300 0.000000
-0.637200 0.000000
-0.623200 0.000000
-0.609100 0.000000
-0.595100 0.000000
-0.581000 0.000000
-0.567000 0.000000
-0.552900 0.000000
-0.538900 0.000000
-0.524800 0.000000
-0.510800 0.000000
-0.496700 0.000000
-0.482700 0.000000
-0.468600 0.000000
-0.454600 0.000000
-0.440500 0.000000
-0.426500 0.000000
-0.412400 0.000000
-0.398400 0.000000
-0.384300 0.000000
-0.370300 0.000000
-0.356200 0.000000
-0.342200 0.000000
-0.328100 0.000000
-0.314100 0.000000
-0.300000 0.000000
-0.286000 0.000000
-0.271900 0.000000
-0.257900 0.000000
-0.243800 0.000000
-0.229800 0.000000
-0.215700 0.000000
-0.201700 0.000000
-0.187600 0.000000
-0.173600 0.000000
-0.159500 0.000000
-0.145500 0.000000
-0.131400 0.000000
-0.117400 0.000000
-0.103300 0.000000
-0.089300 0.000000
-0.075200 0.000000
-0.061200 0.000000
-0.047100 0.000000
-0.033100 0.000000
-0.019000 0.000000
-0.005000 0.000000
0.009100 0.000000
0.023100 0.000000
0.037200 0.000000
0.051200 0.000000
0.065300 0.000000
0.079300 0.000000
0.093400 0.000000
0.107400 0.000000
0.121500 0.000000
0.135500 0.000000
0.149600 0.000000
0.163600 0.000000
0.177700 0.000000
0.191700 0.000000
0.205800 0.000000
0.219900 0.000000
0.233900 0.000000
0.248000 0.000000
0.262000 0.000000
0.276100 0.000000
0.290100 0.000000
0.304200 0.000000
0.318200 0.000000
0.332300 0.000000
0.346300 0.000000
0.360400 0.000000
0.374400 0.000000
0.388500 0.000000
0.402500 0.000000
0.416600 0.000000
0.430600 0.000000
0.444700 0.000000
0.458700 0.000000
0.472800 0.000000
0.486800 0.000000
0.500900 0.000000
0.514900 0.000000
0.529000 0.000000
0.543000 0.000000
0.557100 0.000000
0.571100 0.000000
0.585200 0.000000
0.599200 0.000000
0.613300 0.000000
0.627300 0.000000
0.641400 0.000000
0.655400 0.000000
0.669500 0.000000
0.683500 0.000200
0.697600 0.003300
0.711600 0.010100
0.725700 0.020700
0.739700 0.036500
0.753800 0.053500
0.767800 0.151600
0.781900 0.299100
0.795900 0.418400
0.810000 0.487600
0.824000 0.524000
0.838100 0.546400
0.852100 0.558000
0.866200 0.569000
0.880200 0.588300
0.894300 0.610800
0.908300 0.626700
0.922400 0.644700
0.936400 0.654900
0.950500 0.659500
0.964500 0.661300
0.978600 0.662700
0.992600 0.665500
1.006700 0.668200
1.020700 0.666000
1.034800 0.666700
1.048800 0.672100
1.062900 0.681100
1.076900 0.690800
1.091000 0.700900
1.105100 0.709800
1.119100 0.717300
1.133200 0.723600
1.147200 0.728900
1.161300 0.734400
1.175300 0.738100
1.189400 0.740900
1.203400 0.744500
1.217500 0.748400
1.231500 0.752800
1.245600 0.757800
1.259600 0.763300
1.273700 0.769200
1.287700 0.775500
1.301800 0.782100
1.315800 0.788900
1.329900 0.796200
1.343900 0.805900
1.358000 0.816300
1.372000 0.826600
1.386100 0.836700
1.400100 0.846100
1.414200 0.854200
1.428200 0.861600
1.442300 0.868300
1.456300 0.874500
1.470400 0.879800
1.484400 0.885100
1.498500 0.890800
1.512500 0.897500
1.526600 0.904800
1.540600 0.912400
1.554700 0.920700
1.568700 0.930400
1.582800 0.941400
1.596800 0.953500
1.610900 0.966100
1.624900 0.978600
1.639000 0.990900
1.653000 1.003200
1.667100 1.015700
1.681100 1.029500
1.695200 1.043500
1.709200 1.057800
1.723300 1.072400
1.737300 1.088600
1.751400 1.107800
1.765400 1.129500
1.779500 1.155400
1.793500 1.188600
1.807600 1.227100
1.821600 1.286700
1.835700 1.365300
1.849700 1.457500
1.863800 1.563300
1.877800 1.760000
1.891900 1.866000
1.905900 1.979600
1.920000 2.156800
1.934000 2.332500
1.948100 2.556000
1.962100 3.383100
1.976200 3.526700
1.990300 3.055500
2.004300 2.742300
2.018400 2.699300
2.032400 2.859400
2.046500 2.898900
2.060500 2.811200
2.074600 3.127800
2.088600 3.548000
2.102700 3.960200
2.116700 4.282300
2.130800 4.307500
2.144800 4.309500
2.158900 4.328900
2.172900 4.455100
2.187000 4.639300
2.201000 4.761000
2.215100 4.882700
2.229100 4.896700
2.243200 4.818400
2.257200 4.601500
2.271300 4.331500
2.285300 3.879800
2.299400 3.624100
2.313400 3.450200
2.327500 3.310600
2.341500 3.178300
2.355600 3.041800
2.369600 2.944700
2.383700 2.858000
2.397700 2.777500
2.411800 2.723800
2.425800 2.636900
2.439900 2.550500
2.453900 2.476200
2.468000 2.421900
2.482000 2.400900
2.496100 2.403300
2.510100 2.412800
2.524200 2.394500
2.538200 2.338100
2.552300 2.319500
2.566300 2.267100
2.580400 2.244300
2.594400 2.225900
2.608500 2.185700
2.622500 2.156000
2.636600 2.143500
2.650600 2.130400
2.664700 2.116100
2.678700 2.078000
2.692800 2.066300
2.706800 2.062500
2.720900 2.070900
2.734900 2.088600
2.749000 2.122700
2.763000 2.156600
2.777100 2.216800
2.791100 2.416600
2.805200 2.666100
2.819200 2.969000
2.833300 3.187300
2.847300 3.487500
2.861400 3.801500
2.875500 4.111800
2.889500 4.336100
2.903600 4.344200
2.917600 4.335600
2.931700 4.429200
2.945700 4.572100
2.959800 5.225400
2.973800 8.412900
2.987900 9.779400
3.001900 6.361800
3.016000 6.043400
3.030000 5.747900
3.044100 5.110100
3.058100 4.784700
3.072200 4.505600
3.086200 4.414800
3.100300 4.339700
3.114300 4.533200
3.128400 4.889700
3.142400 4.882300
3.156500 4.900000
3.170500 5.022000
3.184600 5.195100
3.198600 5.082600
3.212700 4.996600
3.226700 4.652200
3.240800 4.504100
3.254800 4.267100
3.268900 4.004900
3.282900 3.836200
3.297000 3.424500
3.311000 2.958800
3.325100 2.334800
3.339100 2.232600
3.353200 2.329200
3.367200 2.469800
3.381300 2.843500
3.395300 3.509400
3.409400 4.120400
3.423400 4.595300
3.437500 4.995700
3.451500 5.207500
3.465600 5.640100
3.479600 6.096100
3.493700 6.473200
3.507700 6.118000
3.521800 5.780100
3.535800 5.651600
3.549900 5.726400
3.563900 5.377500
3.578000 5.405500
3.592000 5.659800
3.606100 6.182700
3.620100 6.414400
3.634200 7.705100
3.648200 10.033900
3.662300 10.625500
3.676300 10.679900
3.690400 10.090500
3.704400 9.518100
3.718500 9.289200
3.732500 9.444100
3.746600 9.315900
3.760700 8.701000
3.774700 7.783500
3.788800 6.304700
3.802800 6.132700
3.816900 6.471800
3.830900 7.161300
3.845000 8.788500
3.859000 7.861400
3.873100 7.154900
3.887100 6.354000
3.901200 6.718800
3.915200 8.027000
3.929300 8.301400
3.943300 6.848000
3.957400 6.654800
3.971400 8.146400
3.985500 7.222500
3.999500 6.184200
4.013600 5.976000
4.027600 5.901000
4.041700 5.695100
4.055700 7.023500
4.069800 6.047100
4.083800 5.620800
4.097900 4.912300
4.111900 4.570100
4.126000 4.285800
4.140000 3.860600
4.154100 3.711100
4.168100 3.354200
4.182200 2.888500
4.196200 2.493600
4.210300 2.362200
4.224300 2.260000
4.238400 2.169100
4.252400 2.079100
4.266500 2.001400
4.280500 1.937100
4.294600 1.876400
4.308600 1.825100
4.322700 1.776000
4.336700 1.719400
4.350800 1.668800
4.364800 1.627800
4.378900 1.594900
4.392900 1.565400
4.407000 1.545600
4.421000 1.535700
4.435100 1.533400
4.449100 1.539400
4.463200 1.563200
4.477200 1.582200
4.491300 1.581600
4.505300 1.575300
4.519400 1.564000
4.533400 1.534800
4.547500 1.494100
4.561500 1.444900
4.575600 1.393300
4.589600 1.345700
4.603700 1.305000
4.617700 1.271300
4.631800 1.245000
4.645900 1.223500
4.659900 1.216000
4.674000 1.221100
4.688000 1.220200
4.702100 1.213500
4.716100 1.237900
4.730200 1.285400
4.744200 4.697700
4.758300 3.752400
4.772300 3.640700
4.786400 3.745600
4.800400 3.715300
4.814500 3.613900
4.828500 3.737800
4.842600 3.509200
4.856600 3.384300
4.870700 2.769700
4.884700 2.233400
4.898800 2.634700
4.912800 4.361600
4.926900 3.597700
4.940900 3.355500
4.955000 3.220200
4.969000 3.028200
4.983100 2.921800
4.997100 2.870100
5.011200 2.839100
5.025200 2.825600
5.039300 2.822300
5.053300 2.817000
5.067400 2.815200
5.081400 2.803000
5.095500 2.780400
5.109500 2.746500
5.123600 2.717800
5.137600 2.710100
5.151700 2.707800
5.165700 2.717500
5.179800 2.732500
5.193800 2.747600
5.207900 2.762600
5.221900 2.780300
5.236000 2.806100
5.250000 2.882100
5.264100 2.937900
5.278100 3.041800
5.292200 3.197000
5.306200 3.292400
5.320300 3.206400
5.334300 3.098400
5.348400 2.993600
5.362400 2.886700
5.376500 2.758500
5.390500 2.623200
5.404600 2.516900
5.418600 2.423900
5.432700 2.344700
5.446700 2.270400
5.460800 2.211000
5.474800 2.178700
5.488900 2.204000
5.502900 2.094700
5.517000 1.992100
5.531100 1.916100
5.545100 1.874400
5.559200 1.835300
5.573200 1.874200
5.587300 1.745100
5.601300 1.695300
5.615400 1.664700
5.629400 1.635300
5.643500 1.607500
5.657500 1.581200
5.671600 1.559400
5.685600 1.541600
5.699700 1.521400
5.713700 1.506600
5.727800 1.454100
5.741800 1.420400
5.755900 1.387900
5.769900 1.354800
5.784000 1.313600
5.798000 1.265200
5.812100 1.202700
5.826100 1.153400
5.840200 1.099700
5.854200 1.037200
5.868300 0.980800
5.882300 0.928400
5.896400 0.887700
5.910400 0.850000
5.924500 0.815200
5.938500 0.781900
5.952600 0.754400
5.966600 0.732700
5.980700 0.715100
5.994700 0.701300
6.008800 0.691400
6.022800 0.688300
6.036900 0.689100
6.050900 0.688700
6.065000 0.683800
6.079000 0.673200
6.093100 0.662600
6.107100 0.653900
6.121200 0.652500
6.135200 0.647300
6.149300 0.641700
6.163300 0.637600
6.177400 0.640100
6.191400 0.647900
6.205500 0.659900
6.219500 0.676300
6.233600 0.667100
6.247600 0.658300
6.261700 0.654200
6.275700 0.656900
6.289800 0.666600
6.303800 0.680800
6.317900 0.698500
6.331900 0.716800
6.346000 0.733100
6.360000 0.749700
6.374100 0.770300
6.388100 0.798900
6.402200 0.832900
6.416300 0.863400
6.430300 0.888800
6.444400 0.917200
6.458400 0.948600
6.472500 0.982300
6.486500 1.016100
6.500600 1.049300
6.514600 1.081900
6.528700 1.116900
6.542700 1.158200
6.556800 1.215900
6.570800 1.264800
6.584900 1.297500
6.598900 1.288500
6.613000 1.303100
6.627000 1.319400
6.641100 1.339600
6.655100 1.362400
6.669200 1.384800
6.683200 1.402800
6.697300 1.416100
6.711300 1.427700
6.725400 1.438500
6.739400 1.446000
6.753500 1.452000
6.767500 1.458000
6.781600 1.450400
6.795600 1.453300
6.809700 1.460400
6.823700 1.468100
6.837800 1.474800
6.851800 1.480800
6.865900 1.486000
6.879900 1.490300
6.894000 1.493100
6.908000 1.491600
6.922100 1.489400
6.936100 1.488100
6.950200 1.493100
6.964200 1.500800
6.978300 1.509900
6.992300 1.520000
7.006400 1.529900
7.020400 1.546600
7.034500 1.560000
7.048500 1.571200
7.062600 1.583200
7.076600 1.594300
7.090700 1.602100
7.104700 1.606600
7.118800 1.608000
7.132800 1.609500
7.146900 1.616600
7.160900 1.630100
7.175000 1.642800
7.189000 1.645500
7.203100 1.661400
7.217100 1.674500
7.231200 1.685400
7.245200 1.696100
7.259300 1.714900
7.273300 1.738400
7.287400 1.765800
7.301500 1.802800
7.315500 1.845300
7.329600 1.880800
7.343600 1.916200
7.357700 1.967900
7.371700 2.032500
7.385800 2.058000
7.399800 2.056600
7.413900 2.050100
7.427900 2.038500
7.442000 2.029000
7.456000 2.000700
7.470100 1.972300
7.484100 1.959800
7.498200 1.966500
7.512200 1.979400
7.526300 2.004900
7.540300 2.038100
7.554400 2.095300
7.568400 2.243500
7.582500 2.139100
7.596500 2.146900
7.610600 2.237600
7.624600 2.262000
7.638700 2.309400
7.652700 2.383100
7.666800 2.440300
7.680800 2.461700
7.694900 2.371800
7.708900 2.260000
7.723000 2.152800
7.737000 2.065900
7.751100 2.051000
7.765100 2.023400
7.779200 1.910100
7.793200 1.802700
7.807300 1.731600
7.821300 1.689600
7.835400 1.659400
7.849400 1.634400
7.863500 1.613600
7.877500 1.597700
7.891600 1.588900
7.905600 1.582900
7.919700 1.580300
7.933700 1.578500
7.947800 1.575400
7.961800 1.571700
7.975900 1.570700
7.989900 1.571700
8.004000 1.575700
8.018000 1.580600
8.032100 1.580700
8.046100 1.588100
8.060200 1.608200
8.074200 1.624600
8.088300 1.632900
8.102300 1.638300
8.116400 1.636800
8.130400 1.616500
8.144500 1.601600
8.158500 1.596300
8.172600 1.598200
8.186600 1.596100
8.200700 1.590600
8.214800 1.591600
8.228800 1.594800
8.242900 1.597900
8.256900 1.602200
8.271000 1.610000
8.285000 1.618900
8.299100 1.629500
8.313100 1.642800
8.327200 1.660600
8.341200 1.683800
8.355300 1.714300
8.369300 1.767500
8.383400 1.884800
8.397400 2.002300
8.411500 2.047500
8.425500 2.038100
8.439600 2.006200
8.453600 1.980500
8.467700 1.935800
8.481700 1.922800
8.495800 1.911200
8.509800 1.900700
8.523900 1.886500
8.537900 1.876000
8.552000 1.876900
8.566000 1.887700
8.580100 1.902000
8.594100 1.906500
8.608200 1.904800
8.622200 1.899900
8.636300 1.898500
8.650300 1.899200
8.664400 1.899200
8.678400 1.899500
8.692500 1.899900
8.706500 1.900300
8.720600 1.894500
8.734600 1.892900
8.748700 1.894400
8.762700 1.888300
8.776800 1.875900
8.790800 1.884900
8.804900 1.923300
8.818900 1.935200
8.833000 1.945300
8.847000 1.954300
8.861100 1.959900
8.875100 1.955700
8.889200 1.948800
8.903200 1.950200
8.917300 1.956700
8.931300 1.947400
8.945400 1.918200
8.959400 1.881800
8.973500 1.848600
8.987500 1.813500
9.001600 1.783000
9.015600 1.762000
9.029700 1.748200
9.043700 1.738500
9.057800 1.732700
9.071800 1.717800
9.085900 1.704900
9.100000 1.696100
9.114000 1.692700
9.128100 1.696400
9.142100 1.699600
9.156200 1.701100
9.170200 1.700000
9.184300 1.697000
9.198300 1.691900
9.212400 1.688000
9.226400 1.680500
9.240500 1.665600
9.254500 1.649400
9.268600 1.629700
9.282600 1.608600
9.296700 1.598500
9.310700 1.589700
9.324800 1.581400
9.338800 1.566200
9.352900 1.557600
9.366900 1.553500
9.381000 1.550200
9.395000 1.546000
9.409100 1.541000
9.423100 1.535200
9.437200 1.532900
9.451200 1.540700
9.465300 1.537200
9.479300 1.516600
9.493400 1.514000
9.507400 1.512300
9.521500 1.510600
9.535500 1.508500
9.549600 1.507300
9.563600 1.508800
9.577700 1.515000
9.591700 1.526300
9.605800 1.548200
9.619800 1.561900
9.633900 1.570000
9.647900 1.578500
9.662000 1.593000
9.676000 1.599200
9.690100 1.610100
9.704100 1.604800
9.718200 1.598500
9.732200 1.597900
9.746300 1.596900
9.760300 1.591900
9.774400 1.579500
9.788400 1.568500
9.802500 1.557300
9.816500 1.554700
9.830600 1.556600
9.844600 1.538100
9.858700 1.601800
9.872700 1.571800
9.886800 1.530000
9.900800 1.482500
9.914900 1.399000
9.928900 1.287700
9.943000 1.230200
9.957000 1.225400
9.971100 1.236100
9.985200 1.303800
9.999200 1.379200
10.013300 1.409600
10.027300 1.498600
10.041400 1.501900
10.055400 1.525700
10.069500 1.537700
10.083500 1.545500
10.097600 1.559600
10.111600 1.578600
10.125700 1.602100
10.139700 1.674100
10.153800 1.687600
10.167800 1.684000
10.181900 1.688700
10.195900 1.694800
10.210000 1.699000
10.224000 1.697700
10.238100 1.690800
10.252100 1.683600
10.266200 1.675100
10.280200 1.665800
10.294300 1.658300
10.308300 1.642100
10.322400 1.619600
10.336400 1.599600
10.350500 1.583200
10.364500 1.573800
10.378600 1.568500
10.392600 1.563900
10.406700 1.560400
10.420700 1.557500
10.434800 1.557700
10.448800 1.560800
10.462900 1.590300
10.476900 1.575100
10.491000 1.554800
10.505000 1.559800
10.519100 1.574300
10.533100 1.597900
10.547200 1.628500
10.561200 1.655300
10.575300 1.667900
10.589300 1.692400
10.603400 1.710800
10.617400 1.726600
10.631500 1.728800
10.645500 1.729500
10.659600 1.731000
10.673600 1.735700
10.687700 1.735400
10.701700 1.721500
10.715800 1.708900
10.729800 1.694500
10.743900 1.676700
10.757900 1.656000
10.772000 1.641800
10.786000 1.636100
10.800100 1.631200
10.814100 1.634000
10.828200 1.649600
10.842200 1.630500
10.856300 1.620100
10.870400 1.604400
10.884400 1.592200
10.898500 1.572000
10.912500 1.565600
10.926600 1.563100
10.940600 1.559300
10.954700 1.555100
10.968700 1.549900
10.982800 1.538900
10.996800 1.524500
11.010900 1.508600
11.024900 1.493800
11.039000 1.497600
11.053000 1.490400
11.067100 1.471200
11.081100 1.452800
11.095200 1.423200
11.109200 1.399800
11.123300 1.340900
11.137300 1.265100
11.151400 1.185900
11.165400 1.132000
11.179500 1.064000
11.193500 1.014300
11.207600 0.974000
11.221600 0.962800
11.235700 0.952100
11.249700 0.942300
11.263800 0.933300
11.277800 0.925500
11.291900 0.919900
11.305900 0.914200
11.320000 0.909300
11.334000 0.919100
11.348100 0.902400
11.362100 0.893200
11.376200 0.883400
11.390200 0.876500
11.404300 0.873400
11.418300 0.873300
11.432400 0.875200
11.446400 0.882100
11.460500 0.890900
11.474500 0.897100
11.488600 0.900500
11.502600 0.903100
11.516700 0.907800
11.530700 0.914400
11.544800 0.920900
11.558800 0.927400
11.572900 0.933700
11.586900 0.937600
11.601000 0.940900
11.615000 0.964200
11.629100 0.968600
11.643100 0.958200
11.657200 0.960400
11.671200 0.963100
11.685300 0.966100
11.699300 0.969400
11.713400 0.973000
11.727400 0.976800
11.741500 0.980500
11.755600 0.983900
11.769600 0.987100
11.783700 0.991000
11.797700 0.995200
11.811800 0.999600
11.825800 1.004100
11.839900 1.010100
11.853900 1.045600
11.868000 1.070900
11.882000 1.077900
11.896100 1.084400
11.910100 1.091500
11.924200 1.099100
11.938200 1.105900
11.952300 1.112500
11.966300 1.119700
11.980400 1.126000
11.994400 1.131500
12.008500 1.136700
12.022500 1.142000
12.036600 1.146500
12.050600 1.150800
12.064700 1.155600
12.078700 1.161000
12.092800 1.166800
12.106800 1.157200
12.120900 1.151700
12.134900 1.144300
12.149000 1.137300
12.163000 1.131500
12.177100 1.126600
12.191100 1.123100
12.205200 1.121000
12.219200 1.119400
12.233300 1.118800
12.247300 1.118400
12.261400 1.118200
12.275400 1.121100
12.289500 1.125900
12.303500 1.131800
12.317600 1.136900
12.331600 1.151200
12.345700 1.155100
12.359700 1.148000
12.373800 1.149500
12.387800 1.153000
12.401900 1.157100
12.415900 1.161500
12.430000 1.166000
12.444000 1.170400
12.458100 1.174500
12.472100 1.178800
12.486200 1.189800
12.500200 1.205400
12.514300 1.219500
12.528300 1.231800
12.542400 1.242700
12.556400 1.252500
12.570500 1.263000
12.584500 1.274900
12.598600 1.287600
12.612600 1.301000
12.626700 1.312400
12.640800 1.320700
12.654800 1.327100
12.668900 1.332100
12.682900 1.351500
12.697000 1.318500
12.711000 1.303800
12.725100 1.296200
12.739100 1.452000
12.753200 1.349800
12.767200 1.308000
12.781300 1.278800
12.795300 1.262200
12.809400 1.251800
12.823400 1.241800
12.837500 1.232900
12.851500 1.225900
12.865600 1.222100
12.879600 1.221500
12.893700 1.224300
12.907700 1.230200
12.921800 1.238200
12.935800 1.236500
12.949900 1.236400
12.963900 1.236500
12.978000 1.237800
12.992000 1.242600
13.006100 1.249100
13.020100 1.257100
13.034200 1.266800
13.048200 1.280700
13.062300 1.296700
13.076300 1.317000
13.090400 1.340100
13.104400 1.365100
13.118500 1.399000
13.132500 1.429600
13.146600 1.442600
13.160600 1.452500
13.174700 1.474600
13.188700 1.492800
13.202800 1.506400
13.216800 1.516400
13.230900 1.516500
13.244900 1.517600
13.259000 1.521000
13.273000 1.525700
13.287100 1.530100
13.301100 1.540000
13.315200 1.556800
13.329200 1.576600
13.343300 1.596400
13.357300 1.616000
13.371400 1.635200
13.385400 1.654000
13.399500 1.672100
13.413500 1.688200
13.427600 1.701500
13.441600 1.719000
13.455700 1.739500
13.469700 1.755400
13.483800 1.772600
13.497800 1.788800
13.511900 1.790800
13.526000 1.799400
13.540000 1.813800
13.554100 1.827300
13.568100 1.838200
13.582200 1.839200
13.596200 1.834300
13.610300 1.833000
13.624300 1.841300
13.638400 1.848400
13.652400 1.859200
13.666500 1.861000
13.680500 1.867800
13.694600 1.878100
13.708600 1.884300
13.722700 1.887800
13.736700 1.887700
13.750800 1.889300
13.764800 1.889300
13.778900 1.885400
13.792900 1.879400
13.807000 1.879000
13.821000 1.884800
13.835100 1.897300
13.849100 1.911800
13.863200 1.924500
13.877200 1.929800
13.891300 1.928100
13.905300 1.928200
13.919400 1.932400
13.933400 1.935300
13.947500 1.940800
13.961500 1.945500
13.975600 1.940700
13.989600 1.956600
14.003700 1.972500
14.017700 1.974400
14.031800 1.974800
14.045800 1.975100
14.059900 1.974300
14.073900 1.943800
14.088000 1.939300
14.102000 1.940100
14.116100 1.935900
14.130100 1.932000
14.144200 1.931500
14.158200 1.932100
14.172300 1.934700
14.186300 1.937900
14.200400 1.945100
14.214400 1.963700
14.228500 1.987800
14.242500 2.036700
14.256600 2.079600
14.270600 2.107800
14.284700 2.106400
14.298700 2.113300
14.312800 2.148300
14.326800 2.195600
14.340900 2.218600
14.354900 2.254900
14.369000 2.287500
14.383000 2.308500
14.397100 2.322800
14.411200 2.331700
14.425200 2.339900
14.439300 2.314600
14.453300 2.313900
14.467400 2.314200
14.481400 2.332800
14.495500 2.371100
14.509500 2.429900
14.523600 2.500200
14.537600 2.554500
14.551700 2.596700
14.565700 2.632300
14.579800 2.638400
14.593800 2.643500
14.607900 2.649200
14.621900 2.656300
14.636000 2.654500
14.650000 2.651200
14.664100 2.691500
14.678100 2.718400
14.692200 2.645100
14.706200 2.566800
14.720300 2.517700
14.734300 2.501500
14.748400 2.487700
14.762400 2.467300
14.776500 2.454900
14.790500 2.445300
14.804600 2.444600
14.818600 2.451200
14.832700 2.459600
14.846700 2.480200
14.860800 2.519400
14.874800 2.557500
14.888900 2.562000
14.902900 2.543300
14.917000 2.533800
14.931000 2.460600
14.945100 2.397700
14.959100 2.357200
14.973200 2.353700
14.987200 2.360400
15.001300 2.368400
15.015300 2.421800
15.029400 2.455300
15.043400 2.421400
15.057500 2.410100
15.071500 2.344100
15.085600 2.261300
15.099600 2.216600
15.113700 2.201500
15.127700 2.209200
15.141800 2.222000
15.155800 2.275300
15.169900 2.298400
15.183900 2.327700
15.198000 2.320300
15.212000 2.307400
15.226100 2.308900
15.240100 2.316200
15.254200 2.326000
15.268200 2.336000
15.282300 2.345100
15.296400 2.349200
15.310400 2.377800
15.324500 2.421600
15.338500 2.470000
15.352600 2.515600
15.366600 2.555700
15.380700 2.624600
15.394700 2.706400
15.408800 2.798300
15.422800 2.913200
15.436900 2.982400
15.450900 3.037700
15.465000 3.045100
15.479000 3.013000
15.493100 2.980600
15.507100 2.854800
15.521200 2.616400
15.535200 2.468200
15.549300 2.377300
15.563300 2.304400
15.577400 2.247500
15.591400 2.207300
15.605500 2.184500
15.619500 2.148400
15.633600 2.116000
15.647600 2.089200
15.661700 2.068300
15.675700 2.049500
15.689800 2.040200
15.703800 2.036800
15.717900 2.035500
15.731900 2.040100
15.746000 2.067800
15.760000 2.043900
15.774100 2.037000
15.788100 2.039300
15.802200 2.041900
15.816200 2.165700
15.830300 2.146700
15.844300 2.114500
15.858400 2.111100
15.872400 2.094100
15.886500 2.106300
15.900500 2.160500
15.914600 2.208300
15.928600 2.231300
15.942700 2.306600
15.956700 2.366300
15.970800 2.394500
15.984800 2.427800
15.998900 2.471000
16.012900 2.436600
16.027000 2.387400
16.041000 2.327600
16.055100 2.281600
16.069100 2.247200
16.083200 2.221600
16.097200 2.211500
16.111300 2.224800
16.125300 2.233400
16.139400 2.184200
16.153400 2.208800
16.167500 2.251000
16.181600 2.307400
16.195600 2.350500
16.209700 2.332100
16.223700 2.308200
16.237800 2.312000
16.251800 2.321100
16.265900 2.330000
16.279900 2.328100
16.294000 2.321000
16.308000 2.335700
16.322100 2.345400
16.336100 2.346800
16.350200 2.343800
16.364200 2.342600
16.378300 2.343000
16.392300 2.336100
16.406400 2.327000
16.420400 2.309600
16.434500 2.292600
16.448500 2.279000
16.462600 2.271100
16.476600 2.267900
16.490700 2.267700
16.504700 2.264700
16.518800 2.260900
16.532800 2.257700
16.546900 2.255600
16.560900 2.255200
16.575000 2.258100
16.589000 2.255000
16.603100 2.250600
16.617100 2.242500
16.631200 2.236600
16.645200 2.232300
16.659300 2.227900
16.673300 2.223700
16.687400 2.219000
16.701400 2.213200
16.715500 2.206200
16.729500 2.199400
16.743600 2.194200
16.757600 2.199000
16.771700 2.202000
16.785700 2.204900
16.799800 2.213400
16.813800 2.212300
16.827900 2.205600
16.841900 2.197300
16.856000 2.190600
16.870000 2.175900
16.884100 2.180500
16.898100 2.277800
16.912200 2.266600
16.926200 2.257100
16.940300 2.236500
16.954300 2.207500
16.968400 2.174900
16.982400 2.139000
16.996500 2.105700
17.010500 2.070900
17.024600 2.026900
17.038600 2.001300
17.052700 1.978200
17.066800 1.958400
17.080800 1.945700
17.094900 1.934300
17.108900 1.929000
17.123000 1.924500
17.137000 1.920800
17.151100 1.917700
17.165100 1.915400
17.179200 1.912000
17.193200 1.910600
17.207300 1.918500
17.221300 1.933900
17.235400 1.962000
17.249400 2.004000
17.263500 2.178100
17.277500 2.223700
17.291600 2.191900
17.305600 2.189700
17.319700 2.194700
17.333700 2.186100
17.347800 2.180500
17.361800 2.172300
17.375900 2.136500
17.389900 2.105800
17.404000 2.087000
17.418000 2.061900
17.432100 2.048200
17.446100 2.026700
17.460200 1.988700
17.474200 1.948100
17.488300 1.908900
17.502300 1.858600
17.516400 1.812300
17.530400 1.767900
17.544500 1.731100
17.558500 1.683300
17.572600 1.615600
17.586600 1.536700
17.600700 1.483900
17.614700 1.456000
17.628800 1.433300
17.642800 1.421900
17.656900 1.401500
17.670900 1.378600
17.685000 1.359100
17.699000 1.342500
17.713100 1.286700
17.727100 1.239600
17.741200 1.199600
17.755200 1.154000
17.769300 1.107400
17.783300 1.075200
17.797400 1.046300
17.811400 1.020500
17.825500 0.997100
17.839500 0.976200
17.853600 0.954400
17.867600 0.931900
17.881700 0.909900
17.895700 0.891000
17.909800 0.870000
17.923800 0.846400
17.937900 0.822300
17.952000 0.798700
17.966000 0.776300
17.980100 0.754800
17.994100 0.734700
18.008200 0.709700
18.022200 0.693900
18.036300 0.659600
18.050300 0.628100
18.064400 0.599700
18.078400 0.574500
18.092500 0.551800
18.106500 0.528800
18.120600 0.505200
18.134600 0.482200
18.148700 0.461400
18.162700 0.442900
18.176800 0.425900
18.190800 0.410700
18.204900 0.397400
18.218900 0.385100
18.233000 0.373100
18.247000 0.362300
18.261100 0.348600
18.275100 0.335100
18.289200 0.321800
18.303200 0.308000
18.317300 0.294700
18.331300 0.281900
18.345400 0.269600
18.359400 0.257800
18.373500 0.246700
18.387500 0.237100
18.401600 0.230100
18.415600 0.225700
18.429700 0.223000
18.443700 0.221300
18.457800 0.218400
18.471800 0.209200
18.485900 0.198900
18.499900 0.187500
18.514000 0.174600
18.528000 0.159600
18.542100 0.146400
18.556100 0.135200
18.570200 0.126100
18.584200 0.119000
18.598300 0.113400
18.612300 0.108000
18.626400 0.102600
18.640400 0.097200
18.654500 0.091900
18.668500 0.086600
18.682600 0.081400
18.696600 0.076300
18.710700 0.071200
18.724700 0.066300
18.738800 0.061600
18.752800 0.057800
18.766900 0.054500
18.780900 0.051300
18.795000 0.048300
18.809000 0.045400
18.823100 0.042500
18.837200 0.039200
18.851200 0.035400
18.865300 0.031100
18.879300 0.026100
18.893400 0.019300
18.907400 0.010800
18.921500 0.000600
18.935500 0.000000
18.949600 0.000000
18.963600 0.000000
18.977700 0.000000
18.991700 0.000000
19.005800 0.000000
19.019800 0.000000
19.033900 0.000000
19.047900 0.000000
19.062000 0.000000
19.076000 0.000000
19.090100 0.000000
19.104100 0.000000
19.118200 0.000000
19.132200 0.000000
19.146300 0.000000
19.160300 0.000000
19.174400 0.000000
19.188400 0.000000
19.202500 0.000000
19.216500 0.000000
19.230600 0.000000
19.244600 0.000000
19.258700 0.000000
19.272700 0.000000
19.286800 0.000000
19.300800 0.000000
19.314900 0.000000
19.328900 0.000000
19.343000 0.000000
19.357000 0.000000
19.371100 0.000000
19.385100 0.000000
19.399200 0.000000
19.413200 0.000000
19.427300 0.000000
19.441300 0.000000
19.455400 0.000000
19.469400 0.000000
19.483500 0.000000
19.497500 0.000000
19.511600 0.000000
19.525600 0.000000
19.539700 0.000000
19.553700 0.000000
19.567800 0.000000
19.581800 0.000000
19.595900 0.000000
19.609900 0.000000
19.624000 0.000000
19.638000 0.000000
19.652100 0.000000
19.666100 0.000000
19.680200 0.000000
19.694200 0.000000
19.708300 0.000000
19.722400 0.000000
19.736400 0.000000
19.750500 0.000000
19.764500 0.000000
19.778600 0.000000
19.792600 0.000000
19.806700 0.000000
19.820700 0.000000
19.834800 0.000000
19.848800 0.000000
19.862900 0.000000
19.876900 0.000000
19.891000 0.000000
19.905000 0.000000
19.919100 0.000000
19.933100 0.000000
19.947200 0.000000
19.961200 0.000000
19.975300 0.000000
19.989300 0.000000
20.003400 0.000000
20.017400 0.000000
20.031500 0.000000
20.045500 0.000000
20.059600 0.000000
20.073600 0.000000
20.087700 0.000000
20.101700 0.000000
20.115800 0.000000
20.129800 0.000000
20.143900 0.000000
20.157900 0.000000
20.172000 0.000000
20.186000 0.000000
20.200100 0.000000
e
