set title 'mp-632442 - Density of States'
set xlabel 'Energy (eV)'
set ylabel 'DOS (states/eV)'
set grid
set xrange [-10:10]
set yrange [0:3.866]
set xzeroaxis lt -1
set terminal png size 800,600
set output 'mp-632442_dos_gnuplot.png'
plot '-' using 1:2 with lines title 'DOS'
-9.027700 0.000000
-9.005600 0.000000
-8.983400 0.000000
-8.961200 0.000000
-8.939100 0.000000
-8.916900 0.000000
-8.894800 0.000000
-8.872600 0.000000
-8.850400 0.000000
-8.828300 0.000000
-8.806100 0.000000
-8.784000 0.000000
-8.761800 0.000000
-8.739600 0.000000
-8.717500 0.000000
-8.695300 0.000000
-8.673100 0.000000
-8.651000 0.000000
-8.628800 0.000000
-8.606700 0.000000
-8.584500 0.000000
-8.562300 0.000000
-8.540200 0.000000
-8.518000 0.000000
-8.495900 0.000000
-8.473700 0.000000
-8.451500 0.000000
-8.429400 0.000000
-8.407200 0.000000
-8.385100 0.000000
-8.362900 0.000000
-8.340700 0.000000
-8.318600 0.000000
-8.296400 0.000000
-8.274200 0.000000
-8.252100 0.000000
-8.229900 0.000000
-8.207800 0.000000
-8.185600 0.000000
-8.163400 0.000000
-8.141300 0.000000
-8.119100 0.000000
-8.097000 0.000000
-8.074800 0.000000
-8.052600 0.000000
-8.030500 0.000000
-8.008300 0.000000
-7.986100 0.000000
-7.964000 0.000000
-7.941800 0.000000
-7.919700 0.000000
-7.897500 0.000000
-7.875300 0.000000
-7.853200 0.000000
-7.831000 0.000000
-7.808900 0.000000
-7.786700 0.000000
-7.764500 0.000000
-7.742400 0.000000
-7.720200 0.000000
-7.698000 0.000000
-7.675900 0.000000
-7.653700 0.000000
-7.631600 0.000000
-7.609400 0.000000
-7.587200 0.000000
-7.565100 0.000000
-7.542900 0.000000
-7.520800 0.000000
-7.498600 0.000000
-7.476400 0.000000
-7.454300 0.000000
-7.432100 0.000000
-7.409900 0.000000
-7.387800 0.000000
-7.365600 0.000000
-7.343500 0.000000
-7.321300 0.000000
-7.299100 0.000000
-7.277000 0.000000
-7.254800 0.000000
-7.232700 0.000000
-7.210500 0.000000
-7.188300 0.000000
-7.166200 0.000000
-7.144000 0.000000
-7.121800 0.000000
-7.099700 0.000000
-7.077500 0.000000
-7.055400 0.000000
-7.033200 0.000000
-7.011000 0.000600
-6.988900 0.087500
-6.966700 0.254500
-6.944600 0.311600
-6.922400 0.369000
-6.900200 0.437900
-6.878100 0.501000
-6.855900 0.557100
-6.833700 0.615400
-6.811600 0.669100
-6.789400 0.725500
-6.767300 0.785800
-6.745100 0.854600
-6.722900 0.930400
-6.700800 1.011500
-6.678600 1.113900
-6.656500 1.309200
-6.634300 1.384800
-6.612100 1.395600
-6.590000 1.468000
-6.567800 1.541000
-6.545700 1.643200
-6.523500 1.811100
-6.501300 1.797700
-6.479200 1.823400
-6.457000 1.869400
-6.434800 1.923300
-6.412700 1.633900
-6.390500 1.452600
-6.368400 1.394200
-6.346200 1.333700
-6.324000 1.265600
-6.301900 1.185800
-6.279700 1.157800
-6.257600 1.139600
-6.235400 1.118800
-6.213200 1.091400
-6.191100 1.065500
-6.168900 1.041300
-6.146700 1.013200
-6.124600 0.987100
-6.102400 0.980700
-6.080300 0.973500
-6.058100 0.967200
-6.035900 0.960300
-6.013800 0.952200
-5.991600 0.942300
-5.969500 0.931100
-5.947300 0.921200
-5.925100 0.910400
-5.903000 0.902000
-5.880800 0.902600
-5.858600 0.903300
-5.836500 0.904400
-5.814300 0.905600
-5.792200 0.906700
-5.770000 0.907800
-5.747800 0.908800
-5.725700 0.913900
-5.703500 0.920600
-5.681400 0.927800
-5.659200 0.935500
-5.637000 0.944900
-5.614900 0.956100
-5.592700 0.969400
-5.570500 0.986200
-5.548400 1.010000
-5.526200 1.032400
-5.504100 1.057000
-5.481900 1.085900
-5.459700 1.129000
-5.437600 1.209200
-5.415400 1.289000
-5.393300 1.368800
-5.371100 1.487200
-5.348900 1.666100
-5.326800 1.979200
-5.304600 2.192800
-5.282400 2.548300
-5.260300 2.507700
-5.238100 1.102800
-5.216000 0.155600
-5.193800 0.000000
-5.171600 0.000000
-5.149500 0.000000
-5.127300 0.000000
-5.105200 0.000000
-5.083000 0.000000
-5.060800 0.000000
-5.038700 0.000000
-5.016500 0.000000
-4.994300 0.000000
-4.972200 0.000000
-4.950000 0.000000
-4.927900 0.000000
-4.905700 0.000000
-4.883500 0.000000
-4.861400 0.000000
-4.839200 0.000000
-4.817100 0.000000
-4.794900 0.000000
-4.772700 0.000000
-4.750600 0.000000
-4.728400 0.000000
-4.706200 0.000000
-4.684100 0.000000
-4.661900 0.000000
-4.639800 0.000000
-4.617600 0.000000
-4.595400 0.000000
-4.573300 0.000000
-4.551100 0.000000
-4.529000 0.000000
-4.506800 0.000000
-4.484600 0.125200
-4.462500 0.232200
-4.440300 0.292800
-4.418200 0.455500
-4.396000 0.790100
-4.373800 0.865000
-4.351700 0.842100
-4.329500 0.863400
-4.307300 0.879100
-4.285200 0.904000
-4.263000 0.934200
-4.240900 0.952800
-4.218700 0.979400
-4.196500 1.011100
-4.174400 1.118900
-4.152200 1.170500
-4.130100 1.182600
-4.107900 1.183800
-4.085700 1.181500
-4.063600 1.170300
-4.041400 1.160000
-4.019200 1.152800
-3.997100 1.144500
-3.974900 1.147500
-3.952800 1.154200
-3.930600 1.161100
-3.908400 1.166800
-3.886300 1.167700
-3.864100 1.171300
-3.842000 1.171800
-3.819800 1.174700
-3.797600 1.177600
-3.775500 1.177800
-3.753300 1.180500
-3.731100 1.183900
-3.709000 1.188000
-3.686800 1.193300
-3.664700 1.199000
-3.642500 1.205000
-3.620300 1.213400
-3.598200 1.229900
-3.576000 1.252800
-3.553900 1.256800
-3.531700 1.239500
-3.509500 1.209800
-3.487400 1.160200
-3.465200 1.137100
-3.443000 1.122000
-3.420900 1.107400
-3.398700 1.098700
-3.376600 1.098700
-3.354400 1.101700
-3.332200 1.106100
-3.310100 1.109100
-3.287900 1.113800
-3.265800 1.125100
-3.243600 1.137400
-3.221400 1.152100
-3.199300 1.195000
-3.177100 1.324500
-3.154900 1.492600
-3.132800 1.976200
-3.110600 1.977800
-3.088500 1.878100
-3.066300 1.872000
-3.044100 1.806500
-3.022000 1.730100
-2.999800 1.706800
-2.977700 1.684200
-2.955500 1.696900
-2.933300 1.695300
-2.911200 1.700800
-2.889000 1.620800
-2.866800 1.345400
-2.844700 0.943700
-2.822500 0.675100
-2.800400 0.408100
-2.778200 0.173300
-2.756000 0.021300
-2.733900 0.144600
-2.711700 0.269300
-2.689600 0.337300
-2.667400 0.415900
-2.645200 0.520900
-2.623100 0.618700
-2.600900 0.689800
-2.578800 0.738200
-2.556600 0.761800
-2.534400 0.765200
-2.512300 0.765200
-2.490100 0.760500
-2.467900 0.762200
-2.445800 0.767200
-2.423600 0.766900
-2.401500 0.773700
-2.379300 0.783600
-2.357100 0.790600
-2.335000 0.796000
-2.312800 0.797500
-2.290700 0.797100
-2.268500 0.793400
-2.246300 0.792700
-2.224200 0.794200
-2.202000 0.799700
-2.179800 0.805900
-2.157700 0.812700
-2.135500 0.820200
-2.113400 0.828100
-2.091200 0.836200
-2.069000 0.842700
-2.046900 0.848800
-2.024700 0.854000
-2.002600 0.857800
-1.980400 0.862300
-1.958200 0.868000
-1.936100 0.875900
-1.913900 0.887800
-1.891700 0.902800
-1.869600 0.918800
-1.847400 0.936300
-1.825300 0.955100
-1.803100 0.975200
-1.780900 0.998400
-1.758800 1.024400
-1.736600 1.053600
-1.714500 1.088800
-1.692300 1.128900
-1.670100 1.175800
-1.648000 1.188500
-1.625800 1.195400
-1.603600 1.219200
-1.581500 1.228800
-1.559300 1.214900
-1.537200 1.187500
-1.515000 1.110900
-1.492800 1.052700
-1.470700 1.046100
-1.448500 1.036100
-1.426400 1.009500
-1.404200 0.981400
-1.382000 0.974300
-1.359900 0.971000
-1.337700 0.974900
-1.315500 0.978200
-1.293400 0.979200
-1.271200 0.981100
-1.249100 0.981800
-1.226900 0.993100
-1.204700 1.014500
-1.182600 1.039800
-1.160400 1.068700
-1.138300 1.104400
-1.116100 1.151800
-1.093900 1.240300
-1.071800 1.233500
-1.049600 1.220100
-1.027400 1.192800
-1.005300 1.123100
-0.983100 1.057600
-0.961000 0.974600
-0.938800 0.951200
-0.916600 0.932500
-0.894500 0.911600
-0.872300 0.888900
-0.850200 0.872200
-0.828000 0.864500
-0.805800 0.861300
-0.783700 0.862000
-0.761500 0.870800
-0.739300 0.941400
-0.717200 0.939100
-0.695000 0.919800
-0.672900 0.851300
-0.650700 0.710800
-0.628500 0.618200
-0.606400 0.567500
-0.584200 0.522300
-0.562100 0.468000
-0.539900 0.420900
-0.517700 0.368300
-0.495600 0.312100
-0.473400 0.273300
-0.451300 0.274400
-0.429100 0.103300
-0.406900 0.018900
-0.384800 0.001100
-0.362600 0.013200
-0.340400 0.041200
-0.318300 0.084900
-0.296100 0.145500
-0.274000 0.227800
-0.251800 0.325500
-0.229600 0.400400
-0.207500 0.431500
-0.185300 0.455500
-0.163200 0.514700
-0.141000 0.557800
-0.118800 0.611800
-0.096700 0.645900
-0.074500 0.572100
-0.052300 0.559800
-0.030200 0.581100
-0.008000 0.618800
0.014100 0.666300
0.036300 0.710900
0.058500 0.756900
0.080600 0.804200
0.102800 0.850000
0.124900 0.891200
0.147100 0.925100
0.169300 0.959100
0.191400 0.990700
0.213600 1.022600
0.235800 1.070700
0.257900 1.147500
0.280100 1.262000
0.302200 1.328300
0.324400 1.370400
0.346600 1.390200
0.368700 1.365400
0.390900 1.364100
0.413000 1.370600
0.435200 1.373900
0.457400 1.371500
0.479500 1.357100
0.501700 1.328000
0.523900 1.307700
0.546000 1.299800
0.568200 1.300900
0.590300 1.333500
0.612500 1.445100
0.634700 1.620600
0.656800 1.639000
0.679000 1.705200
0.701100 1.781800
0.723300 1.938900
0.745500 1.964400
0.767600 2.055400
0.789800 2.114700
0.812000 2.139600
0.834100 2.182900
0.856300 2.244200
0.878400 2.297500
0.900600 2.264800
0.922800 2.313800
0.944900 2.363200
0.967100 2.245100
0.989200 2.119300
1.011400 2.010700
1.033600 1.909800
1.055700 1.824200
1.077900 1.750200
1.100100 1.676900
1.122200 1.592100
1.144400 1.506300
1.166500 1.439100
1.188700 1.401500
1.210900 1.381200
1.233000 1.381600
1.255200 1.402300
1.277300 1.435900
1.299500 1.457100
1.321700 1.493900
1.343800 1.526100
1.366000 1.564700
1.388100 1.618500
1.410300 1.764200
1.432500 1.853500
1.454600 1.931500
1.476800 2.041400
1.499000 2.107300
1.521100 2.075200
1.543300 2.167700
1.565400 2.244800
1.587600 2.323800
1.609800 2.268300
1.631900 2.225100
1.654100 2.200200
1.676200 2.226900
1.698400 2.193400
1.720600 2.203600
1.742700 2.194600
1.764900 2.166100
1.787100 2.114400
1.809200 2.081900
1.831400 2.030400
1.853500 1.907700
1.875700 1.770900
1.897900 1.659900
1.920000 1.562500
1.942200 1.473100
1.964300 1.407200
1.986500 1.338800
2.008700 1.267500
2.030800 1.193000
2.053000 1.144700
2.075200 1.059600
2.097300 1.069600
2.119500 1.117300
2.141600 1.223300
2.163800 1.273100
2.186000 1.332700
2.208100 1.387600
2.230300 1.429700
2.252400 1.490700
2.274600 1.556400
2.296800 1.626400
2.318900 1.709500
2.341100 1.825500
2.363300 1.923900
2.385400 2.017300
2.407600 2.101200
2.429700 2.250900
2.451900 2.522400
2.474100 2.885700
2.496200 2.924000
2.518400 2.956600
2.540500 2.978000
2.562700 2.931300
2.584900 2.756100
2.607000 2.641600
2.629200 2.617100
2.651400 2.503400
2.673500 2.325100
2.695700 2.173800
2.717800 2.042400
2.740000 1.955100
2.762200 1.942300
2.784300 1.917400
2.806500 1.860200
2.828600 1.867400
2.850800 1.883700
2.873000 1.867700
2.895100 1.843000
2.917300 1.800800
2.939500 1.709000
2.961600 1.618600
2.983800 1.576000
3.005900 1.566200
3.028100 1.587000
3.050300 1.655100
3.072400 1.785700
3.094600 1.903000
3.116700 2.142700
3.138900 2.448800
3.161100 2.511000
3.183200 2.545600
3.205400 2.629900
3.227500 2.733700
3.249700 2.768900
3.271900 2.739300
3.294000 2.679400
3.316200 2.652800
3.338400 2.617300
3.360500 2.638700
3.382700 2.669800
3.404800 2.665500
3.427000 2.618200
3.449200 2.541800
3.471300 2.490200
3.493500 2.420800
3.515600 2.307800
3.537800 2.247700
3.560000 2.279200
3.582100 2.333800
3.604300 2.342700
3.626500 2.401600
3.648600 2.459900
3.670800 2.505200
3.692900 2.507500
3.715100 2.422300
3.737300 2.355800
3.759400 2.351900
3.781600 2.370200
3.803700 2.376500
3.825900 2.388800
3.848100 2.422800
3.870200 2.451600
3.892400 2.413700
3.914600 2.350900
3.936700 2.333300
3.958900 2.369900
3.981000 2.396100
4.003200 2.412500
4.025400 2.418100
4.047500 2.455200
4.069700 2.490000
4.091800 2.542900
4.114000 2.637400
4.136200 2.794000
4.158300 2.841200
4.180500 2.873300
4.202700 2.959700
4.224800 3.095700
4.247000 3.220300
4.269100 3.191000
4.291300 3.129000
4.313500 3.177100
4.335600 3.155200
4.357800 3.039800
4.379900 3.057000
4.402100 2.961600
4.424300 2.917700
4.446400 2.881600
4.468600 2.851500
4.490800 2.943500
4.512900 2.947000
4.535100 2.962800
4.557200 2.955600
4.579400 2.990900
4.601600 3.081800
4.623700 3.078000
4.645900 3.033500
4.668000 3.062200
4.690200 3.060600
4.712400 3.101200
4.734500 3.094500
4.756700 3.148100
4.778900 3.259000
4.801000 3.378200
4.823200 3.514800
4.845300 3.445900
4.867500 3.356300
4.889700 3.323000
4.911800 3.337800
4.934000 3.451300
4.956100 3.460500
4.978300 3.273600
5.000500 3.084000
5.022600 2.721500
5.044800 2.555600
5.067000 2.464100
5.089100 2.371000
5.111300 2.200700
5.133400 2.130300
5.155600 1.984000
5.177800 1.910600
5.199900 1.879800
5.222100 1.908100
5.244200 1.918700
5.266400 1.951300
5.288600 2.008100
5.310700 2.058500
5.332900 2.121800
5.355000 2.141400
5.377200 2.219000
5.399400 2.279000
5.421500 2.305900
5.443700 2.270900
5.465900 2.301500
5.488000 2.321500
5.510200 2.382700
5.532300 2.433700
5.554500 2.564400
5.576700 2.540600
5.598800 2.339200
5.621000 2.110000
5.643100 1.930700
5.665300 1.800500
5.687500 1.697000
5.709600 1.632700
5.731800 1.598300
5.754000 1.585500
5.776100 1.580500
5.798300 1.614800
5.820400 1.638800
5.842600 1.657300
5.864800 1.686100
5.886900 1.745100
5.909100 1.832800
5.931200 1.894200
5.953400 1.978300
5.975600 2.142000
5.997700 2.205100
6.019900 2.233700
6.042100 2.313000
6.064200 2.345600
6.086400 2.390400
6.108500 2.417200
6.130700 2.463500
6.152900 2.519700
6.175000 2.606500
6.197200 2.714600
6.219300 2.776300
6.241500 2.765900
6.263700 2.802900
6.285800 2.851500
6.308000 2.882000
6.330200 2.849300
6.352300 2.920000
6.374500 2.821400
6.396600 2.814000
6.418800 2.795300
6.441000 2.769200
6.463100 2.636900
6.485300 2.512400
6.507400 2.496100
6.529600 2.480700
6.551800 2.493600
6.573900 2.493300
6.596100 2.478800
6.618300 2.460400
6.640400 2.462500
6.662600 2.468400
6.684700 2.497600
6.706900 2.526900
6.729100 2.483600
6.751200 2.469500
6.773400 2.489400
6.795500 2.487200
6.817700 2.513700
6.839900 2.561900
6.862000 2.605600
6.884200 2.678000
6.906400 2.703000
6.928500 2.592200
6.950700 2.427500
6.972800 2.197800
6.995000 2.085400
7.017200 2.053900
7.039300 1.965300
7.061500 1.783000
7.083600 1.679200
7.105800 1.509600
7.128000 1.476500
7.150100 1.493400
7.172300 1.507000
7.194400 1.508300
7.216600 1.522500
7.238800 1.526600
7.260900 1.468000
7.283100 1.445700
7.305300 1.447900
7.327400 1.471600
7.349600 1.505800
7.371700 1.550500
7.393900 1.615000
7.416100 1.682000
7.438200 1.753100
7.460400 1.839600
7.482500 1.806300
7.504700 1.815700
7.526900 1.817900
7.549000 1.822900
7.571200 1.828800
7.593400 1.827600
7.615500 1.886100
7.637700 1.887100
7.659800 1.853200
7.682000 1.847800
7.704200 1.835600
7.726300 1.824600
7.748500 1.813900
7.770600 1.806500
7.792800 1.837500
7.815000 1.884400
7.837100 1.940500
7.859300 2.023100
7.881500 2.123800
7.903600 2.186800
7.925800 2.147300
7.947900 2.086600
7.970100 2.080800
7.992300 2.035500
8.014400 1.970200
8.036600 1.965300
8.058700 1.959600
8.080900 1.918100
8.103100 1.836300
8.125200 1.828100
8.147400 1.837600
8.169600 1.805300
8.191700 1.642800
8.213900 1.561100
8.236000 1.493300
8.258200 1.426200
8.280400 1.380800
8.302500 1.375300
8.324700 1.438800
8.346800 1.201100
8.369000 0.904900
8.391200 0.796900
8.413300 0.708100
8.435500 0.665700
8.457700 0.628700
8.479800 0.603800
8.502000 0.582500
8.524100 0.565000
8.546300 0.517700
8.568500 0.449900
8.590600 0.405600
8.612800 0.367400
8.634900 0.333000
8.657100 0.298600
8.679300 0.283600
8.701400 0.220800
8.723600 0.207600
8.745800 0.205100
8.767900 0.186900
8.790100 0.168600
8.812200 0.166000
8.834400 0.174800
8.856600 0.221000
8.878700 0.258100
8.900900 0.284500
8.923000 0.310600
8.945200 0.339000
8.967400 0.371900
8.989500 0.409000
9.011700 0.456500
9.033900 0.517200
9.056000 0.579100
9.078200 0.632900
9.100300 0.672900
9.122500 0.714500
9.144700 0.744000
9.166800 0.782200
9.189000 0.855500
9.211100 0.910300
9.233300 0.894700
9.255500 0.863900
9.277600 0.854700
9.299800 0.858000
9.321900 0.874500
9.344100 0.896900
9.366300 0.922400
9.388400 0.949000
9.410600 0.981100
9.432800 1.014700
9.454900 1.052200
9.477100 1.088700
9.499200 1.122600
9.521400 1.172600
9.543600 1.210900
9.565700 1.266900
9.587900 1.295000
9.610000 1.310800
9.632200 1.311000
9.654400 1.326000
9.676500 1.337000
9.698700 1.346700
9.720900 1.333600
9.743000 1.367500
9.765200 1.424000
9.787300 1.474500
9.809500 1.530700
9.831700 1.602200
9.853800 1.718900
9.876000 1.776600
9.898100 1.851100
9.920300 1.931600
9.942500 2.023700
9.964600 2.074300
9.986800 2.078200
10.009000 2.094200
10.031100 2.101200
10.053300 2.158000
10.075400 2.249800
10.097600 2.379200
10.119800 2.512700
10.141900 2.598600
10.164100 2.643600
10.186200 2.640100
10.208400 2.533400
10.230600 2.456900
10.252700 2.352600
10.274900 2.301200
10.297100 2.182300
10.319200 2.122300
10.341400 2.108800
10.363500 2.016000
10.385700 1.891500
10.407900 1.809700
10.430000 1.785800
10.452200 1.784600
10.474300 1.748000
10.496500 1.720200
10.518700 1.693200
10.540800 1.665500
10.563000 1.647900
10.585200 1.634200
10.607300 1.621200
10.629500 1.644500
10.651600 1.576000
10.673800 1.565300
10.696000 1.564500
10.718100 1.578600
10.740300 1.594900
10.762400 1.604300
10.784600 1.593600
10.806800 1.588000
10.828900 1.583000
10.851100 1.584100
10.873300 1.599500
10.895400 1.629100
10.917600 1.674900
10.939700 1.740600
10.961900 1.843600
10.984100 1.961100
11.006200 2.078300
11.028400 2.213200
11.050500 2.229900
11.072700 2.265200
11.094900 2.299900
11.117000 2.342100
11.139200 2.381700
11.161300 2.417800
11.183500 2.465000
11.205700 2.475400
11.227800 2.532900
11.250000 2.539000
11.272200 2.584600
11.294300 2.647600
11.316500 2.713800
11.338600 2.728000
11.360800 2.810500
11.383000 2.824600
11.405100 2.853000
11.427300 2.863200
11.449400 2.902000
11.471600 2.729300
11.493800 2.600000
11.515900 2.465300
11.538100 2.350500
11.560300 2.336400
11.582400 2.346500
11.604600 2.309500
11.626700 2.273000
11.648900 2.254000
11.671100 2.311700
11.693200 2.357200
11.715400 2.361100
11.737500 2.383400
11.759700 2.450300
11.781900 2.532400
11.804000 2.606500
11.826200 2.628900
11.848400 2.580600
11.870500 2.562800
11.892700 2.598000
11.914800 2.651600
11.937000 2.664500
11.959200 2.595100
11.981300 2.529200
12.003500 2.484200
12.025600 2.482000
12.047800 2.481300
12.070000 2.482800
12.092100 2.444700
12.114300 2.403600
12.136500 2.382700
12.158600 2.383800
12.180800 2.398100
12.202900 2.403000
12.225100 2.427700
12.247300 2.476400
12.269400 2.523800
12.291600 2.545500
12.313700 2.586400
12.335900 2.648900
12.358100 2.713500
12.380200 2.779800
12.402400 2.874900
12.424600 2.923300
12.446700 2.969200
12.468900 2.969000
12.491000 2.939900
12.513200 2.920100
12.535400 2.927100
12.557500 2.889700
12.579700 2.802000
12.601800 2.777800
12.624000 2.798400
12.646200 2.857200
12.668300 2.849400
12.690500 2.781700
12.712700 2.739000
12.734800 2.726800
12.757000 2.708700
12.779100 2.657700
12.801300 2.633700
12.823500 2.579800
12.845600 2.531100
12.867800 2.428900
12.889900 2.425600
12.912100 2.453000
12.934300 2.512100
12.956400 2.566500
12.978600 2.588000
13.000800 2.482500
13.022900 2.518300
13.045100 2.546800
13.067200 2.592300
13.089400 2.561400
13.111600 2.513100
13.133700 2.612400
13.155900 2.842200
13.178000 2.983800
13.200200 3.067400
13.222400 2.947000
13.244500 2.782100
13.266700 2.674800
13.288800 2.613900
13.311000 2.692600
13.333200 3.047600
13.355300 3.115400
13.377500 2.946000
13.399700 2.884000
13.421800 2.868900
13.444000 2.904500
13.466100 2.914200
13.488300 2.959000
13.510500 3.016100
13.532600 3.120100
13.554800 3.460600
13.576900 3.426700
13.599100 3.461500
13.621300 3.351500
13.643400 3.174300
13.665600 3.041000
13.687800 2.924400
13.709900 2.775400
13.732100 2.756300
13.754200 2.623100
13.776400 2.555300
13.798600 2.542700
13.820700 2.537000
13.842900 2.631900
13.865000 2.791900
13.887200 2.866400
13.909400 3.054500
13.931500 3.276800
13.953700 3.483700
13.975900 3.651100
13.998000 3.755600
14.020200 3.765100
14.042300 3.806800
14.064500 3.745200
14.086700 3.660700
14.108800 3.629400
14.131000 3.603600
14.153100 3.514900
14.175300 3.441500
14.197500 3.341000
14.219600 3.298200
14.241800 3.166800
14.264000 3.142700
14.286100 3.158600
14.308300 3.123500
14.330400 3.172900
14.352600 3.182300
14.374800 3.167200
14.396900 3.188200
14.419100 3.322500
14.441200 3.473300
14.463400 3.533200
14.485600 3.484400
14.507700 3.455000
14.529900 3.364700
14.552100 3.300700
14.574200 3.233700
14.596400 3.288300
14.618500 3.170900
14.640700 3.178100
14.662900 2.953800
14.685000 2.739200
14.707200 2.580100
14.729300 2.569600
14.751500 2.432600
14.773700 2.319100
14.795800 2.292100
14.818000 2.311300
14.840200 2.359500
14.862300 2.497000
14.884500 2.825600
14.906600 2.822400
14.928800 2.648200
14.951000 2.690900
14.973100 2.533100
14.995300 2.612000
15.017400 2.629700
15.039600 2.624800
15.061800 2.733600
15.083900 2.833400
15.106100 2.856500
15.128200 2.853800
15.150400 2.874300
15.172600 2.973000
15.194700 3.173600
15.216900 3.153900
15.239100 3.088900
15.261200 3.016500
15.283400 2.951800
15.305500 2.841500
15.327700 2.751900
15.349900 2.708500
15.372000 2.658500
15.394200 2.648000
15.416300 2.668000
15.438500 2.608800
15.460700 2.561400
15.482800 2.621600
15.505000 2.729800
15.527200 2.817400
15.549300 2.750000
15.571500 2.606900
15.593600 2.592900
15.615800 2.494200
15.638000 2.464000
15.660100 2.480600
15.682300 2.496600
15.704400 2.531200
15.726600 2.549300
15.748800 2.616500
15.770900 2.736400
15.793100 2.731000
15.815300 2.734900
15.837400 2.713800
15.859600 2.804300
15.881700 2.906100
15.903900 2.945800
15.926100 2.996400
15.948200 3.069500
15.970400 3.162200
15.992500 3.176300
16.014700 3.078200
16.036900 3.004700
16.059000 2.953000
16.081200 2.862400
16.103400 2.774100
16.125500 2.728200
16.147700 2.719600
16.169800 2.780400
16.192000 2.876200
16.214200 3.032600
16.236300 3.121100
16.258500 3.289000
16.280600 3.383900
16.302800 3.440200
16.325000 3.507400
16.347100 3.525300
16.369300 3.595400
16.391500 3.592000
16.413600 3.568400
16.435800 3.567800
16.457900 3.629000
16.480100 3.756200
16.502300 3.870200
16.524400 3.916600
16.546600 4.048900
16.568700 3.853300
16.590900 3.701100
16.613100 3.558800
16.635200 3.433300
16.657400 3.392300
16.679600 3.400100
16.701700 3.366200
16.723900 3.256400
16.746000 3.073500
16.768200 3.018100
16.790400 2.824600
16.812500 2.663100
16.834700 2.599600
16.856800 2.581700
16.879000 2.607300
16.901200 2.697100
16.923300 2.861800
16.945500 2.981000
16.967600 2.997600
16.989800 3.042800
17.012000 3.061000
17.034100 3.093400
17.056300 3.083500
17.078500 3.050700
17.100600 3.030500
17.122800 2.999500
17.144900 2.941800
17.167100 2.958500
17.189300 3.036700
17.211400 3.072000
17.233600 3.137200
17.255700 3.124500
17.277900 3.106900
17.300100 3.029900
17.322200 2.882400
17.344400 2.675700
17.366600 2.491200
17.388700 2.411300
17.410900 2.353800
17.433000 2.326700
17.455200 2.426500
17.477400 2.459200
17.499500 2.459100
17.521700 2.473500
17.543800 2.539800
17.566000 2.644400
17.588200 2.817500
17.610300 3.019900
17.632500 3.227600
17.654700 3.358700
17.676800 3.478700
17.699000 3.622100
17.721100 3.602300
17.743300 3.528600
17.765500 3.496600
17.787600 3.499500
17.809800 3.431600
17.831900 3.441000
17.854100 3.293100
17.876300 3.198100
17.898400 3.185900
17.920600 3.192700
17.942800 3.234300
17.964900 3.187700
17.987100 3.215500
18.009200 3.150100
18.031400 2.980700
18.053600 2.891300
18.075700 2.743200
18.097900 2.516700
18.120000 2.348700
18.142200 2.347200
18.164400 2.316000
18.186500 2.283000
18.208700 2.290200
18.230900 2.338600
18.253000 2.474500
18.275200 2.566500
18.297300 2.699100
18.319500 2.804300
18.341700 2.904600
18.363800 2.962700
18.386000 3.066600
18.408100 3.154100
18.430300 3.253000
18.452500 3.235900
18.474600 3.259400
18.496800 3.315400
18.519000 3.364400
18.541100 3.414200
18.563300 3.411600
18.585400 3.303700
18.607600 3.275100
18.629800 3.401300
18.651900 3.354400
18.674100 3.210800
18.696200 3.148700
18.718400 3.112300
18.740600 3.125200
18.762700 3.081200
18.784900 3.001900
18.807100 3.020400
18.829200 3.129000
18.851400 3.210800
18.873500 3.203500
18.895700 3.300800
18.917900 3.397800
18.940000 3.486400
18.962200 3.471000
18.984300 3.470600
19.006500 3.452700
19.028700 3.430200
19.050800 3.401700
19.073000 3.323500
19.095100 3.201500
19.117300 3.086000
19.139500 2.982000
19.161600 2.992200
19.183800 2.972500
19.206000 2.915100
19.228100 2.935300
19.250300 2.934600
19.272400 2.855200
19.294600 2.765800
19.316800 2.698400
19.338900 2.669000
19.361100 2.641900
19.383200 2.665800
19.405400 2.702900
19.427600 2.702300
19.449700 2.697000
19.471900 2.727200
19.494100 2.762700
19.516200 2.778800
19.538400 2.783500
19.560500 2.778200
19.582700 2.799000
19.604900 2.865300
19.627000 2.989400
19.649200 3.175400
19.671300 3.329700
19.693500 3.535500
19.715700 3.531700
19.737800 3.296800
19.760000 3.167100
19.782200 3.133400
19.804300 3.062000
19.826500 2.963800
19.848600 2.924900
19.870800 2.874800
19.893000 2.820600
19.915100 2.778200
19.937300 2.780200
19.959400 2.784500
19.981600 2.817100
20.003800 2.760200
20.025900 2.707000
20.048100 2.657000
20.070300 2.623500
20.092400 2.618900
20.114600 2.641200
20.136700 2.655800
20.158900 2.715000
20.181100 2.716600
20.203200 2.752000
20.225400 2.778300
20.247500 2.749700
20.269700 2.757200
20.291900 2.829500
20.314000 2.883800
20.336200 2.952700
20.358400 3.084500
20.380500 3.130100
20.402700 3.113600
20.424800 3.100500
20.447000 3.137900
20.469200 3.229600
20.491300 3.362100
20.513500 3.285300
20.535600 3.244100
20.557800 3.239300
20.580000 3.255100
20.602100 3.327000
20.624300 3.559800
20.646500 3.633500
20.668600 3.694000
20.690800 3.751500
20.712900 3.684000
20.735100 3.635300
20.757300 3.564400
20.779400 3.531800
20.801600 3.576100
20.823700 3.603300
20.845900 3.494800
20.868100 3.469700
20.890200 3.466800
20.912400 3.493300
20.934500 3.511100
20.956700 3.513100
20.978900 3.588000
21.001000 3.644900
21.023200 3.712400
21.045400 3.663100
21.067500 3.606000
21.089700 3.528500
21.111800 3.443600
21.134000 3.372500
21.156200 3.373400
21.178300 3.333800
21.200500 3.316300
21.222600 3.263600
21.244800 3.244200
21.267000 3.290800
21.289100 3.315500
21.311300 3.355300
21.333500 3.384700
21.355600 3.436900
21.377800 3.554800
21.399900 3.780400
21.422100 3.755000
21.444300 3.797600
21.466400 3.863200
21.488600 3.944700
21.510700 4.033600
21.532900 4.038800
21.555100 3.984800
21.577200 3.970100
21.599400 3.821300
21.621600 3.707000
21.643700 3.557900
21.665900 3.447400
21.688000 3.333900
21.710200 3.346200
21.732400 3.387400
21.754500 3.469900
21.776700 3.549800
21.798800 3.676000
21.821000 3.846500
21.843200 3.976300
21.865300 4.023200
21.887500 3.955900
21.909700 3.839800
21.931800 3.621500
21.954000 3.503700
21.976100 3.432400
21.998300 3.380000
22.020500 3.208400
22.042600 3.144500
22.064800 3.058800
22.086900 3.033000
22.109100 3.049600
22.131300 3.071200
22.153400 3.097100
22.175600 3.118800
22.197800 3.125200
22.219900 3.082900
22.242100 2.987600
22.264200 2.976700
22.286400 2.984500
22.308600 2.957500
22.330700 2.999500
22.352900 2.948100
22.375000 2.917100
22.397200 2.824200
22.419400 2.742800
22.441500 2.789900
22.463700 2.849300
22.485900 2.932200
22.508000 3.049500
22.530200 3.184600
22.552300 3.318000
22.574500 3.345700
22.596700 3.344900
22.618800 3.348700
22.641000 3.334900
22.663100 3.287300
22.685300 3.245900
22.707500 3.118700
22.729600 3.114100
22.751800 3.293900
22.774000 3.322000
22.796100 3.340500
22.818300 3.209600
22.840400 3.051600
22.862600 2.929600
22.884800 2.957500
22.906900 2.947200
22.929100 2.908500
22.951200 2.866900
22.973400 2.848200
22.995600 2.983700
23.017700 3.023700
23.039900 2.955500
23.062000 2.853000
23.084200 2.842100
23.106400 2.887200
23.128500 2.922200
23.150700 3.003400
23.172900 3.179800
23.195000 3.399300
23.217200 3.536200
23.239300 3.552200
23.261500 3.548300
23.283700 3.505000
23.305800 3.352700
23.328000 3.188200
23.350100 3.005300
23.372300 2.923700
23.394500 2.946100
23.416600 2.930500
23.438800 2.956500
23.461000 2.981200
23.483100 2.983700
23.505300 2.958900
23.527400 2.917800
23.549600 2.889400
23.571800 2.865200
23.593900 2.847900
23.616100 2.787100
23.638200 2.777000
23.660400 2.834300
23.682600 2.898400
23.704700 2.966900
23.726900 3.035600
23.749100 3.181500
23.771200 3.206300
23.793400 3.180400
23.815500 3.135700
23.837700 3.161300
23.859900 3.091700
23.882000 3.115700
23.904200 3.103900
23.926300 3.189300
23.948500 3.130900
23.970700 3.028800
23.992800 2.965100
24.015000 2.896400
24.037200 2.884100
24.059300 2.895300
24.081500 2.941400
24.103600 3.030100
24.125800 3.072100
24.148000 2.957500
24.170100 2.912300
24.192300 2.932400
24.214400 2.926600
24.236600 2.899700
24.258800 2.847500
24.280900 2.849300
24.303100 2.891900
24.325300 2.929400
24.347400 2.959800
24.369600 2.946800
24.391700 2.864100
24.413900 2.829800
24.436100 2.812200
24.458200 2.823300
24.480400 2.823100
24.502500 2.848600
24.524700 2.839700
24.546900 2.838900
24.569000 2.903200
24.591200 2.982700
24.613400 2.938100
24.635500 3.131000
24.657700 3.083400
24.679800 3.041800
24.702000 3.056600
24.724200 3.129400
24.746300 3.110400
24.768500 3.083000
24.790600 3.101300
24.812800 3.074600
24.835000 3.108900
24.857100 3.090300
24.879300 3.047400
24.901400 3.025400
24.923600 3.029900
24.945800 2.997600
24.967900 2.952400
24.990100 2.848800
25.012300 2.801500
25.034400 2.806800
25.056600 2.859100
25.078700 2.901300
25.100900 2.939700
25.123100 3.051600
25.145200 3.080800
25.167400 3.052600
25.189500 3.106200
25.211700 3.156700
25.233900 3.240900
25.256000 3.322800
25.278200 3.375800
25.300400 3.322200
25.322500 3.301100
25.344700 3.328300
25.366800 3.248200
25.389000 3.167400
25.411200 3.152400
25.433300 3.114000
25.455500 3.085200
25.477600 3.090200
25.499800 3.108300
25.522000 3.128800
25.544100 3.103700
25.566300 3.024800
25.588500 3.003000
25.610600 3.030900
25.632800 3.066000
25.654900 3.040000
25.677100 3.118900
25.699300 3.109900
25.721400 3.115100
25.743600 3.157600
25.765700 3.209100
25.787900 3.187500
25.810100 3.172600
25.832200 3.161800
25.854400 3.153500
25.876600 3.147700
25.898700 3.103000
25.920900 3.062100
25.943000 2.995300
25.965200 2.956000
25.987400 2.960400
26.009500 2.930200
26.031700 2.885300
26.053800 2.874500
26.076000 2.891900
26.098200 2.960300
26.120300 3.058400
26.142500 3.156400
26.164700 3.220100
26.186800 3.282400
26.209000 3.347700
26.231100 3.416400
26.253300 3.492500
26.275500 3.448200
26.297600 3.399300
26.319800 3.359800
26.341900 3.371500
26.364100 3.424400
26.386300 3.375400
26.408400 3.287200
26.430600 3.226200
26.452800 3.163500
26.474900 3.166100
26.497100 3.172300
26.519200 3.135500
26.541400 3.065400
26.563600 3.029400
26.585700 3.086200
26.607900 3.145400
26.630000 3.187300
26.652200 3.223600
26.674400 3.257200
26.696500 3.317000
26.718700 3.445700
26.740900 3.582000
26.763000 3.710600
26.785200 3.707100
26.807300 3.753000
26.829500 3.719600
26.851700 3.693400
26.873800 3.705800
26.896000 3.471500
26.918100 3.365500
26.940300 3.303700
26.962500 3.282800
26.984600 3.272400
27.006800 3.237700
27.028900 3.234300
27.051100 3.288200
27.073300 3.367100
27.095400 3.356700
27.117600 3.292700
27.139800 3.313200
27.161900 3.286300
27.184100 3.200100
27.206200 3.159300
27.228400 3.132400
27.250600 3.162500
27.272700 3.202900
27.294900 3.206100
27.317000 3.250600
27.339200 3.294600
27.361400 3.331900
27.383500 3.372600
27.405700 3.426800
27.427900 3.517700
27.450000 3.523200
27.472200 3.517300
27.494300 3.503700
27.516500 3.520000
27.538700 3.565500
27.560800 3.627000
27.583000 3.638400
27.605100 3.681500
27.627300 3.744000
27.649500 3.782700
27.671600 3.751500
27.693800 3.762500
27.716000 4.002000
27.738100 3.797900
27.760300 3.754100
27.782400 3.684900
27.804600 3.653000
27.826800 3.543500
27.848900 3.398300
27.871100 3.339100
27.893200 3.246200
27.915400 3.126700
27.937600 3.122700
27.959700 3.026800
27.981900 3.017800
28.004100 3.040900
28.026200 3.032900
28.048400 3.076200
28.070500 3.119600
28.092700 3.148500
28.114900 3.225100
28.137000 3.323700
28.159200 3.388700
28.181300 3.485300
28.203500 3.498400
28.225700 3.498400
28.247800 3.467300
28.270000 3.343600
28.292200 3.354900
28.314300 3.392000
28.336500 3.449400
28.358600 3.414200
28.380800 3.385900
28.403000 3.296200
28.425100 3.314300
28.447300 3.379100
28.469400 3.429500
28.491600 3.368600
28.513800 3.461500
28.535900 3.507000
28.558100 3.520400
28.580300 3.545100
28.602400 3.513000
28.624600 3.572200
28.646700 3.595500
28.668900 3.605300
28.691100 3.608200
28.713200 3.599500
28.735400 3.589500
28.757500 3.611900
28.779700 3.644000
28.801900 3.670500
28.824000 3.701700
28.846200 3.753300
28.868300 3.881600
28.890500 3.928300
28.912700 3.955100
28.934800 4.014100
28.957000 4.015500
28.979200 3.953000
29.001300 3.851900
29.023500 3.752100
29.045600 3.662800
29.067800 3.609700
29.090000 3.592100
29.112100 3.562300
29.134300 3.490100
29.156400 3.480400
29.178600 3.506200
29.200800 3.482200
29.222900 3.518700
29.245100 3.486200
29.267300 3.523200
29.289400 3.595900
29.311600 3.776000
29.333700 3.881900
29.355900 4.052300
29.378100 4.218400
29.400200 4.371600
29.422400 4.220100
29.444500 3.985400
29.466700 3.831500
29.488900 3.602200
29.511000 3.528700
29.533200 3.426300
29.555400 3.431400
29.577500 3.457000
29.599700 3.408700
29.621800 3.288500
29.644000 3.215800
29.666200 3.170700
29.688300 3.214100
29.710500 3.221300
29.732600 3.285600
29.754800 3.248700
29.777000 3.272400
29.799100 3.343100
29.821300 3.512300
29.843500 3.743500
29.865600 3.918400
29.887800 4.053200
29.909900 4.143100
29.932100 4.125600
29.954300 4.134000
29.976400 4.097200
29.998600 4.006200
30.020700 3.970300
30.042900 3.909300
30.065100 3.866600
30.087200 3.808400
30.109400 3.761400
30.131600 3.766800
30.153700 3.620700
30.175900 3.526300
30.198000 3.471500
30.220200 3.452100
30.242400 3.429500
30.264500 3.427700
30.286700 3.458400
30.308800 3.499800
30.331000 3.497300
30.353200 3.469600
30.375300 3.402000
30.397500 3.365000
30.419700 3.421200
30.441800 3.437000
30.464000 3.432400
30.486100 3.534500
30.508300 3.585200
30.530500 3.687300
30.552600 3.720900
30.574800 3.835500
30.596900 3.994200
30.619100 4.132500
30.641300 4.135400
30.663400 4.211700
30.685600 4.295000
30.707700 4.284600
30.729900 4.258300
30.752100 4.241400
30.774200 4.288800
30.796400 4.477800
30.818600 4.359100
30.840700 4.317500
30.862900 4.498700
30.885000 4.237000
30.907200 3.936900
30.929400 3.906800
30.951500 3.946100
30.973700 4.049500
30.995800 3.759700
31.018000 3.635000
31.040200 3.616700
31.062300 3.650600
31.084500 3.739500
31.106700 3.742200
31.128800 3.649800
31.151000 3.545000
31.173100 3.532300
31.195300 3.682400
31.217500 3.766400
31.239600 3.688700
31.261800 3.617700
31.283900 3.559800
31.306100 3.612100
31.328300 3.699200
31.350400 3.703900
31.372600 3.739600
31.394800 3.821000
31.416900 3.743800
31.439100 3.731900
31.461200 3.819000
31.483400 3.762700
31.505600 3.620800
31.527700 3.459600
31.549900 3.419700
31.572000 3.462000
31.594200 3.452900
31.616400 3.486900
31.638500 3.556400
31.660700 3.683500
31.682900 3.820300
31.705000 3.927000
31.727200 4.039400
31.749300 4.000500
31.771500 3.983500
31.793700 3.919800
31.815800 3.793800
31.838000 3.569200
31.860100 3.483600
31.882300 3.471200
31.904500 3.580200
31.926600 3.581200
31.948800 3.538600
31.971000 3.547600
31.993100 3.419400
32.015300 3.438400
32.037400 3.504400
32.059600 3.624500
32.081800 3.736100
32.103900 3.835000
32.126100 3.876300
32.148200 3.815500
32.170400 3.704100
32.192600 3.487600
32.214700 3.448800
32.236900 3.375200
32.259100 3.203300
32.281200 3.046100
32.303400 2.928000
32.325500 2.831600
32.347700 2.728200
32.369900 2.682900
32.392000 2.764500
32.414200 2.843100
32.436300 2.939700
32.458500 2.920700
32.480700 2.802600
32.502800 2.619000
32.525000 2.449200
32.547200 2.291700
32.569300 2.247400
32.591500 2.237800
32.613600 2.139800
32.635800 2.031300
32.658000 1.849100
32.680100 1.763900
32.702300 1.681500
32.724400 1.473900
32.746600 1.274200
32.768800 1.095100
32.790900 0.963400
32.813100 0.831400
32.835200 0.793000
32.857400 0.705000
32.879600 0.555700
32.901700 0.477300
32.923900 0.438100
32.946100 0.394500
32.968200 0.337600
32.990400 0.281700
33.012500 0.246900
33.034700 0.222300
33.056900 0.206500
33.079000 0.201700
33.101200 0.179100
33.123300 0.140600
33.145500 0.104800
33.167700 0.072900
33.189800 0.052200
33.212000 0.036600
33.234200 0.021100
33.256300 0.007200
33.278500 0.000000
33.300600 0.000000
33.322800 0.000000
33.345000 0.000000
33.367100 0.000000
33.389300 0.000000
33.411400 0.000000
33.433600 0.000000
33.455800 0.000000
33.477900 0.000000
33.500100 0.000000
33.522300 0.000000
33.544400 0.000000
33.566600 0.000000
33.588700 0.000000
33.610900 0.000000
33.633100 0.000000
33.655200 0.000000
33.677400 0.000000
33.699500 0.000000
33.721700 0.000000
33.743900 0.000000
33.766000 0.000000
33.788200 0.000000
33.810400 0.000000
33.832500 0.000000
33.854700 0.000000
33.876800 0.000000
33.899000 0.000000
33.921200 0.000000
33.943300 0.000000
33.965500 0.000000
33.987600 0.000000
34.009800 0.000000
34.032000 0.000000
34.054100 0.000000
34.076300 0.000000
34.098500 0.000000
34.120600 0.000000
34.142800 0.000000
34.164900 0.000000
34.187100 0.000000
34.209300 0.000000
34.231400 0.000000
34.253600 0.000000
34.275700 0.000000
34.297900 0.000000
34.320100 0.000000
34.342200 0.000000
34.364400 0.000000
34.386600 0.000000
34.408700 0.000000
34.430900 0.000000
34.453000 0.000000
34.475200 0.000000
34.497400 0.000000
34.519500 0.000000
34.541700 0.000000
34.563800 0.000000
34.586000 0.000000
34.608200 0.000000
34.630300 0.000000
34.652500 0.000000
34.674600 0.000000
34.696800 0.000000
34.719000 0.000000
34.741100 0.000000
34.763300 0.000000
34.785500 0.000000
34.807600 0.000000
34.829800 0.000000
34.851900 0.000000
34.874100 0.000000
34.896300 0.000000
34.918400 0.000000
34.940600 0.000000
34.962700 0.000000
34.984900 0.000000
35.007100 0.000000
35.029200 0.000000
35.051400 0.000000
35.073600 0.000000
35.095700 0.000000
35.117900 0.000000
35.140000 0.000000
35.162200 0.000000
35.184400 0.000000
35.206500 0.000000
35.228700 0.000000
35.250800 0.000000
35.273000 0.000000
35.295200 0.000000
e
