set title 'mp-1187019 - Density of States'
set xlabel 'Energy (eV)'
set ylabel 'DOS (states/eV)'
set grid
set xrange [-10:10]
set yrange [0:8.899]
set xzeroaxis lt -1
set terminal png size 800,600
set output 'mp-1187019_dos_gnuplot.png'
plot '-' using 1:2 with lines title 'DOS'
-17.211900 0.000000
-17.189500 0.000000
-17.167100 0.000000
-17.144700 0.000000
-17.122400 0.000000
-17.100000 0.000000
-17.077600 0.000000
-17.055200 0.000000
-17.032800 0.000000
-17.010500 0.000000
-16.988100 0.000000
-16.965700 0.000000
-16.943300 0.000000
-16.921000 0.000000
-16.898600 0.000000
-16.876200 0.000000
-16.853800 0.000000
-16.831500 0.000000
-16.809100 0.000000
-16.786700 0.000000
-16.764300 0.000000
-16.741900 0.000000
-16.719600 0.000000
-16.697200 0.000000
-16.674800 0.000000
-16.652400 0.000000
-16.630100 0.000000
-16.607700 0.000000
-16.585300 0.000000
-16.562900 0.000000
-16.540600 0.000000
-16.518200 0.000000
-16.495800 0.000000
-16.473400 0.000000
-16.451000 0.000000
-16.428700 0.000000
-16.406300 0.000000
-16.383900 0.000000
-16.361500 0.000000
-16.339200 0.000000
-16.316800 0.000000
-16.294400 0.000000
-16.272000 0.000000
-16.249700 0.000000
-16.227300 0.000000
-16.204900 0.000000
-16.182500 0.000000
-16.160200 0.000000
-16.137800 0.000000
-16.115400 0.000000
-16.093000 0.000000
-16.070600 0.000000
-16.048300 0.000000
-16.025900 0.000000
-16.003500 0.000000
-15.981100 0.000000
-15.958800 0.000000
-15.936400 0.000000
-15.914000 0.000000
-15.891600 0.000000
-15.869300 0.000000
-15.846900 0.000000
-15.824500 0.000000
-15.802100 0.000000
-15.779700 0.000000
-15.757400 0.000000
-15.735000 0.000000
-15.712600 0.000000
-15.690200 0.000000
-15.667900 0.000000
-15.645500 0.000000
-15.623100 0.000000
-15.600700 0.000000
-15.578400 0.000000
-15.556000 0.000000
-15.533600 0.000000
-15.511200 0.000000
-15.488800 0.000000
-15.466500 0.000000
-15.444100 0.000000
-15.421700 0.000000
-15.399300 0.000000
-15.377000 0.000000
-15.354600 0.000000
-15.332200 0.000000
-15.309800 0.000100
-15.287500 0.000700
-15.265100 0.005100
-15.242700 0.023400
-15.220300 0.075800
-15.197900 0.178300
-15.175600 0.334800
-15.153200 0.558100
-15.130800 0.846400
-15.108400 1.105600
-15.086100 1.232600
-15.063700 1.229900
-15.041300 1.090900
-15.018900 0.802300
-14.996600 0.530500
-14.974200 0.522300
-14.951800 0.834400
-14.929400 1.313400
-14.907000 1.786300
-14.884700 2.078400
-14.862300 1.940300
-14.839900 1.344600
-14.817500 0.665800
-14.795200 0.272900
-14.772800 0.246400
-14.750400 0.523100
-14.728000 0.982100
-14.705700 1.438600
-14.683300 1.788300
-14.660900 2.078200
-14.638500 2.282000
-14.616100 2.158200
-14.593800 1.589400
-14.571400 0.912300
-14.549000 0.622300
-14.526600 0.909200
-14.504300 1.505600
-14.481900 1.872200
-14.459500 1.784000
-14.437100 1.642200
-14.414800 1.872400
-14.392400 2.317900
-14.370000 2.513000
-14.347600 2.382300
-14.325300 2.417800
-14.302900 2.970500
-14.280500 3.598900
-14.258100 3.525100
-14.235700 2.660800
-14.213400 1.767100
-14.191000 1.534800
-14.168600 1.909300
-14.146200 2.337000
-14.123900 2.349300
-14.101500 1.973000
-14.079100 1.621100
-14.056700 1.531600
-14.034400 1.588800
-14.012000 1.635300
-13.989600 1.614300
-13.967200 1.484800
-13.944800 1.199600
-13.922500 0.799900
-13.900100 0.423300
-13.877700 0.174100
-13.855300 0.054400
-13.833000 0.012500
-13.810600 0.002100
-13.788200 0.000500
-13.765800 0.002000
-13.743500 0.011300
-13.721100 0.042600
-13.698700 0.109900
-13.676300 0.198800
-13.653900 0.277200
-13.631600 0.375600
-13.609200 0.578100
-13.586800 0.838500
-13.564400 0.960000
-13.542100 0.905800
-13.519700 0.881300
-13.497300 0.946300
-13.474900 0.889800
-13.452600 0.614300
-13.430200 0.296900
-13.407800 0.120300
-13.385400 0.130000
-13.363000 0.325900
-13.340700 0.657200
-13.318300 0.953700
-13.295900 1.117100
-13.273500 1.324500
-13.251200 1.679000
-13.228800 1.837400
-13.206400 1.473200
-13.184000 0.817800
-13.161700 0.309500
-13.139300 0.079600
-13.116900 0.014700
-13.094500 0.008600
-13.072100 0.039900
-13.049800 0.154800
-13.027400 0.408800
-13.005000 0.735300
-12.982600 0.916100
-12.960300 0.851900
-12.937900 0.755500
-12.915500 0.846700
-12.893100 1.046200
-12.870800 1.231300
-12.848400 1.499900
-12.826000 1.816200
-12.803600 1.799100
-12.781300 1.285900
-12.758900 0.634600
-12.736500 0.213600
-12.714100 0.050600
-12.691700 0.023100
-12.669400 0.088200
-12.647000 0.331900
-12.624600 0.855200
-12.602200 1.495200
-12.579900 1.774500
-12.557500 1.429600
-12.535100 0.781700
-12.512700 0.290100
-12.490400 0.073000
-12.468000 0.012500
-12.445600 0.002100
-12.423200 0.005700
-12.400800 0.033400
-12.378500 0.136400
-12.356100 0.382900
-12.333700 0.760500
-12.311300 1.156300
-12.289000 1.565400
-12.266600 2.096800
-12.244200 2.555600
-12.221800 2.471800
-12.199500 1.769800
-12.177100 0.917900
-12.154700 0.352000
-12.132300 0.159700
-12.109900 0.297600
-12.087600 0.767300
-12.065200 1.414000
-12.042800 1.773300
-12.020400 1.509700
-11.998100 0.872500
-11.975700 0.342100
-11.953300 0.091000
-11.930900 0.016400
-11.908600 0.002000
-11.886200 0.000400
-11.863800 0.002500
-11.841400 0.020000
-11.819000 0.106300
-11.796700 0.384000
-11.774300 0.940500
-11.751900 1.563200
-11.729500 1.764000
-11.707200 1.355400
-11.684800 0.732000
-11.662400 0.375900
-11.640000 0.442200
-11.617700 0.839100
-11.595300 1.386500
-11.572900 1.896700
-11.550500 2.144900
-11.528100 1.900500
-11.505800 1.246800
-11.483400 0.637700
-11.461000 0.479100
-11.438600 0.900000
-11.416300 1.722000
-11.393900 2.402400
-11.371500 2.389100
-11.349100 1.720800
-11.326800 0.964200
-11.304400 0.581700
-11.282000 0.633900
-11.259600 1.024000
-11.237200 1.711000
-11.214900 2.454700
-11.192500 2.671100
-11.170100 2.076400
-11.147700 1.160600
-11.125400 0.626900
-11.103000 0.813900
-11.080600 1.746700
-11.058200 3.174300
-11.035900 4.428600
-11.013500 4.680000
-10.991100 3.762500
-10.968700 2.556100
-10.946400 2.030000
-10.924000 2.149300
-10.901600 2.171000
-10.879200 1.758500
-10.856800 1.348000
-10.834500 1.499000
-10.812100 2.396500
-10.789700 3.857000
-10.767300 5.220300
-10.745000 5.679900
-10.722600 5.359000
-10.700200 5.215700
-10.677800 5.486800
-10.655500 5.414100
-10.633100 4.738000
-10.610700 4.201900
-10.588300 4.322300
-10.565900 4.632100
-10.543600 4.334300
-10.521200 3.217300
-10.498800 1.812900
-10.476400 0.760300
-10.454100 0.236100
-10.431700 0.054400
-10.409300 0.009300
-10.386900 0.001700
-10.364600 0.005300
-10.342200 0.034500
-10.319800 0.158400
-10.297400 0.499600
-10.275000 1.085900
-10.252700 1.627800
-10.230300 1.684600
-10.207900 1.203600
-10.185500 0.593300
-10.163200 0.201600
-10.140800 0.049000
-10.118400 0.025100
-10.096000 0.110800
-10.073700 0.468300
-10.051300 1.352200
-10.028900 2.657900
-10.006500 3.593400
-9.984100 3.491300
-9.961800 2.864600
-9.939400 2.718300
-9.917000 3.105900
-9.894600 3.216700
-9.872300 2.572500
-9.849900 1.520500
-9.827500 0.654600
-9.805100 0.202900
-9.782800 0.044700
-9.760400 0.006900
-9.738000 0.000800
-9.715600 0.000700
-9.693200 0.005700
-9.670900 0.033800
-9.648500 0.136800
-9.626100 0.375700
-9.603700 0.700400
-9.581400 0.887800
-9.559000 0.775100
-9.536600 0.516900
-9.514200 0.435900
-9.491900 0.697300
-9.469500 1.174300
-9.447100 1.533700
-9.424700 1.498100
-9.402300 1.087000
-9.380000 0.576700
-9.357600 0.219200
-9.335200 0.059900
-9.312800 0.019600
-9.290500 0.036600
-9.268100 0.096500
-9.245700 0.183000
-9.223300 0.262800
-9.201000 0.376000
-9.178600 0.687100
-9.156200 1.253700
-9.133800 1.736500
-9.111500 1.693000
-9.089100 1.218500
-9.066700 0.850000
-9.044300 0.837600
-9.021900 0.914500
-8.999600 0.771800
-8.977200 0.452600
-8.954800 0.180700
-8.932400 0.049000
-8.910100 0.009000
-8.887700 0.001100
-8.865300 0.000100
-8.842900 0.000000
-8.820600 0.000000
-8.798200 0.000000
-8.775800 0.000000
-8.753400 0.000000
-8.731000 0.000000
-8.708700 0.000200
-8.686300 0.001800
-8.663900 0.013600
-8.641500 0.067800
-8.619200 0.229200
-8.596800 0.526100
-8.574400 0.819400
-8.552000 0.866300
-8.529700 0.621700
-8.507300 0.302900
-8.484900 0.100900
-8.462500 0.029700
-8.440100 0.045000
-8.417800 0.160300
-8.395400 0.417300
-8.373000 0.738800
-8.350600 0.887700
-8.328300 0.724100
-8.305900 0.400900
-8.283500 0.150600
-8.261100 0.038400
-8.238800 0.006700
-8.216400 0.001100
-8.194000 0.002800
-8.171600 0.014400
-8.149200 0.051000
-8.126900 0.122200
-8.104500 0.198700
-8.082100 0.219400
-8.059700 0.164400
-8.037400 0.083600
-8.015000 0.028900
-7.992600 0.006800
-7.970200 0.001100
-7.947900 0.000100
-7.925500 0.000000
-7.903100 0.000000
-7.880700 0.000000
-7.858300 0.000000
-7.836000 0.000000
-7.813600 0.000000
-7.791200 0.000000
-7.768800 0.000000
-7.746500 0.000000
-7.724100 0.000000
-7.701700 0.000000
-7.679300 0.000000
-7.657000 0.000000
-7.634600 0.000000
-7.612200 0.000000
-7.589800 0.000000
-7.567400 0.000000
-7.545100 0.000000
-7.522700 0.000000
-7.500300 0.000000
-7.477900 0.000000
-7.455600 0.000000
-7.433200 0.000000
-7.410800 0.000000
-7.388400 0.000000
-7.366100 0.000000
-7.343700 0.000000
-7.321300 0.000000
-7.298900 0.000000
-7.276600 0.000000
-7.254200 0.000000
-7.231800 0.000000
-7.209400 0.000000
-7.187000 0.000000
-7.164700 0.000000
-7.142300 0.000000
-7.119900 0.000000
-7.097500 0.000000
-7.075200 0.000000
-7.052800 0.000000
-7.030400 0.000000
-7.008000 0.000000
-6.985700 0.000000
-6.963300 0.000000
-6.940900 0.000000
-6.918500 0.000000
-6.896100 0.000000
-6.873800 0.000000
-6.851400 0.000000
-6.829000 0.000000
-6.806600 0.000000
-6.784300 0.000000
-6.761900 0.000000
-6.739500 0.000000
-6.717100 0.000000
-6.694800 0.000000
-6.672400 0.000000
-6.650000 0.000000
-6.627600 0.000000
-6.605200 0.000000
-6.582900 0.000000
-6.560500 0.000000
-6.538100 0.000000
-6.515700 0.000000
-6.493400 0.000000
-6.471000 0.000000
-6.448600 0.000000
-6.426200 0.000000
-6.403900 0.000000
-6.381500 0.000000
-6.359100 0.000000
-6.336700 0.000000
-6.314300 0.000000
-6.292000 0.000000
-6.269600 0.000000
-6.247200 0.000000
-6.224800 0.000000
-6.202500 0.000000
-6.180100 0.000000
-6.157700 0.000000
-6.135300 0.000000
-6.113000 0.000000
-6.090600 0.000000
-6.068200 0.000000
-6.045800 0.000000
-6.023400 0.000000
-6.001100 0.000000
-5.978700 0.000000
-5.956300 0.000000
-5.933900 0.000000
-5.911600 0.000000
-5.889200 0.000000
-5.866800 0.000000
-5.844400 0.000000
-5.822100 0.000000
-5.799700 0.000000
-5.777300 0.000000
-5.754900 0.000000
-5.732600 0.000000
-5.710200 0.000000
-5.687800 0.000000
-5.665400 0.000000
-5.643000 0.000000
-5.620700 0.000000
-5.598300 0.000000
-5.575900 0.000000
-5.553500 0.000000
-5.531200 0.000000
-5.508800 0.000000
-5.486400 0.000000
-5.464000 0.000000
-5.441700 0.000000
-5.419300 0.000300
-5.396900 0.002800
-5.374500 0.016600
-5.352100 0.067600
-5.329800 0.186400
-5.307400 0.348600
-5.285000 0.442900
-5.262600 0.383900
-5.240300 0.239200
-5.217900 0.165600
-5.195500 0.278400
-5.173100 0.587700
-5.150800 0.957400
-5.128400 1.206100
-5.106000 1.302500
-5.083600 1.317900
-5.061200 1.290500
-5.038900 1.233000
-5.016500 1.087500
-4.994100 0.782500
-4.971700 0.414900
-4.949400 0.155000
-4.927000 0.047200
-4.904600 0.047000
-4.882200 0.142300
-4.859900 0.369600
-4.837500 0.769600
-4.815100 1.352400
-4.792700 1.999300
-4.770300 2.398000
-4.748000 2.317300
-4.725600 1.910900
-4.703200 1.520400
-4.680800 1.274200
-4.658500 1.067000
-4.636100 0.931600
-4.613700 1.139900
-4.591300 1.752900
-4.569000 2.366000
-4.546600 2.557900
-4.524200 2.321400
-4.501800 1.848000
-4.479400 1.256500
-4.457100 0.678000
-4.434700 0.271900
-4.412300 0.079600
-4.389900 0.032600
-4.367600 0.103900
-4.345200 0.428500
-4.322800 1.285000
-4.300400 2.758100
-4.278100 4.250100
-4.255700 4.741100
-4.233300 3.908500
-4.210900 2.518500
-4.188500 1.502300
-4.166200 1.113400
-4.143800 0.994500
-4.121400 0.779500
-4.099000 0.517400
-4.076700 0.541600
-4.054300 1.107300
-4.031900 2.043800
-4.009500 2.646400
-3.987200 2.335500
-3.964800 1.408000
-3.942400 0.624300
-3.920000 0.390500
-3.897700 0.702500
-3.875300 1.322400
-3.852900 1.755200
-3.830500 1.587500
-3.808100 0.985600
-3.785800 0.479500
-3.763400 0.435600
-3.741000 1.013600
-3.718600 2.224000
-3.696300 3.696000
-3.673900 4.674600
-3.651500 4.635400
-3.629100 3.908300
-3.606800 3.304400
-3.584400 3.023800
-3.562000 2.550300
-3.539600 1.675600
-3.517200 0.848800
-3.494900 0.563600
-3.472500 1.009500
-3.450100 2.058800
-3.427700 3.106800
-3.405400 3.335300
-3.383000 2.580200
-3.360600 1.536100
-3.338200 0.869400
-3.315900 0.622600
-3.293500 0.601300
-3.271100 0.827700
-3.248700 1.337800
-3.226300 1.831400
-3.204000 1.940400
-3.181600 1.710400
-3.159200 1.431800
-3.136800 1.282300
-3.114500 1.394700
-3.092100 1.769500
-3.069700 2.106900
-3.047300 2.266300
-3.025000 2.569300
-3.002600 3.210600
-2.980200 3.844500
-2.957800 3.959600
-2.935400 3.395000
-2.913100 2.462700
-2.890700 1.590300
-2.868300 1.008100
-2.845900 0.823800
-2.823600 1.188700
-2.801200 2.235300
-2.778800 3.693600
-2.756400 4.772200
-2.734100 4.826200
-2.711700 3.953500
-2.689300 2.742500
-2.666900 1.806200
-2.644500 1.562400
-2.622200 2.095500
-2.599800 3.146700
-2.577400 4.264000
-2.555000 4.982200
-2.532700 5.025000
-2.510300 4.434700
-2.487900 3.470600
-2.465500 2.524800
-2.443200 1.971600
-2.420800 1.782800
-2.398400 1.611400
-2.376000 1.342000
-2.353600 1.128100
-2.331300 1.015700
-2.308900 0.940900
-2.286500 0.979500
-2.264100 1.373500
-2.241800 2.276600
-2.219400 3.360000
-2.197000 3.855500
-2.174600 3.433900
-2.152300 2.683500
-2.129900 2.261700
-2.107500 2.174300
-2.085100 2.235400
-2.062800 2.538000
-2.040400 3.058400
-2.018000 3.357100
-1.995600 3.170700
-1.973200 2.924800
-1.950900 3.213700
-1.928500 4.059600
-1.906100 4.972200
-1.883700 5.379200
-1.861400 4.911900
-1.839000 3.785000
-1.816600 2.823200
-1.794200 2.698600
-1.771900 3.303100
-1.749500 4.019300
-1.727100 4.396400
-1.704700 4.418600
-1.682300 4.307400
-1.660000 4.296900
-1.637600 4.427400
-1.615200 4.476000
-1.592800 4.282400
-1.570500 3.873700
-1.548100 3.220800
-1.525700 2.414700
-1.503300 1.955400
-1.481000 2.419500
-1.458600 3.944500
-1.436200 5.970300
-1.413800 7.295300
-1.391400 6.904000
-1.369100 5.156400
-1.346700 3.616400
-1.324300 3.435500
-1.301900 4.307300
-1.279600 5.004300
-1.257200 4.721300
-1.234800 3.797000
-1.212400 3.070700
-1.190100 2.833900
-1.167700 2.697600
-1.145300 2.282300
-1.122900 1.722900
-1.100500 1.397300
-1.078200 1.402800
-1.055800 1.565000
-1.033400 1.741600
-1.011000 1.865700
-0.988700 1.923100
-0.966300 2.067800
-0.943900 2.402900
-0.921500 2.634500
-0.899200 2.438300
-0.876800 1.923900
-0.854400 1.375900
-0.832000 0.963000
-0.809600 0.800900
-0.787300 1.014400
-0.764900 1.685600
-0.742500 2.648800
-0.720100 3.362600
-0.697800 3.333900
-0.675400 2.699700
-0.653000 2.008200
-0.630600 1.562500
-0.608300 1.331700
-0.585900 1.245500
-0.563500 1.272200
-0.541100 1.384500
-0.518800 1.604000
-0.496400 1.948900
-0.474000 2.325400
-0.451600 2.570300
-0.429200 2.505300
-0.406900 2.015100
-0.384500 1.296800
-0.362100 0.799100
-0.339700 0.810200
-0.317400 1.323100
-0.295000 2.081300
-0.272600 2.585200
-0.250200 2.424900
-0.227900 1.732300
-0.205500 1.038000
-0.183100 0.774900
-0.160700 1.074100
-0.138300 1.782700
-0.116000 2.542700
-0.093600 3.071000
-0.071200 3.305300
-0.048800 3.169200
-0.026500 2.637200
-0.004100 2.066100
0.018300 1.841000
0.040700 1.851700
0.063000 1.794600
0.085400 1.620700
0.107800 1.407900
0.130200 1.212500
0.152600 1.190200
0.174900 1.503300
0.197300 2.039200
0.219700 2.475700
0.242100 2.623800
0.264400 2.553000
0.286800 2.458600
0.309200 2.498200
0.331600 2.706900
0.353900 3.069500
0.376300 3.581200
0.398700 4.107000
0.421100 4.390400
0.443500 4.454300
0.465800 4.701900
0.488200 5.266700
0.510600 5.666500
0.533000 5.500200
0.555300 5.012600
0.577700 4.676400
0.600100 4.581100
0.622500 4.406200
0.644800 3.907200
0.667200 3.329300
0.689600 3.266500
0.712000 4.067200
0.734400 5.476100
0.756700 6.935400
0.779100 7.932400
0.801500 8.089700
0.823900 7.517700
0.846200 6.966400
0.868600 6.973400
0.891000 7.074700
0.913400 6.473000
0.935700 5.168400
0.958100 3.865000
0.980500 3.086400
1.002900 2.774400
1.025300 2.558600
1.047600 2.166200
1.070000 1.569000
1.092400 0.916100
1.114800 0.408400
1.137100 0.146300
1.159500 0.114100
1.181900 0.327400
1.204300 0.874600
1.226600 1.698900
1.249000 2.416700
1.271400 2.629500
1.293800 2.441500
1.316100 2.322400
1.338500 2.523500
1.360900 3.047300
1.383300 3.863500
1.405700 4.713500
1.428000 5.243000
1.450400 5.455100
1.472800 5.372300
1.495200 4.657200
1.517500 3.268900
1.539900 1.861000
1.562300 1.081400
1.584700 0.972600
1.607000 1.171400
1.629400 1.436000
1.651800 1.827200
1.674200 2.335100
1.696600 2.630400
1.718900 2.455400
1.741300 2.013700
1.763700 1.695700
1.786100 1.660700
1.808400 1.889500
1.830800 2.363800
1.853200 2.940400
1.875600 3.285600
1.897900 3.322900
1.920300 3.312800
1.942700 3.213000
1.965100 2.821700
1.987500 2.484000
2.009800 2.625700
2.032200 2.911600
2.054600 2.739800
2.077000 2.224800
2.099300 1.960000
2.121700 2.117100
2.144100 2.294200
2.166500 2.037900
2.188800 1.346200
2.211200 0.634500
2.233600 0.228500
2.256000 0.148900
2.278400 0.316300
2.300700 0.630100
2.323100 0.869100
2.345500 0.816500
2.367900 0.533900
2.390200 0.305000
2.412600 0.363100
2.435000 0.804700
2.457400 1.580600
2.479700 2.428900
2.502100 2.948400
2.524500 2.902000
2.546900 2.445300
2.569300 1.913100
2.591600 1.476300
2.614000 1.199500
2.636400 1.201100
2.658800 1.475800
2.681100 1.722800
2.703500 1.612100
2.725900 1.199000
2.748300 0.889300
2.770600 0.976300
2.793000 1.381500
2.815400 1.860600
2.837800 2.244700
2.860200 2.462700
2.882500 2.526000
2.904900 2.393000
2.927300 1.913500
2.949700 1.164500
2.972000 0.511000
2.994400 0.194200
3.016800 0.239300
3.039200 0.711600
3.061500 1.682300
3.083900 2.819500
3.106300 3.349600
3.128700 2.825500
3.151000 1.688800
3.173400 0.711400
3.195800 0.209700
3.218200 0.043500
3.240600 0.011400
3.262900 0.036200
3.285300 0.163300
3.307700 0.513200
3.330100 1.108400
3.352400 1.646100
3.374800 1.682100
3.397200 1.182800
3.419600 0.572700
3.441900 0.196800
3.464300 0.087900
3.486700 0.207500
3.509100 0.620300
3.531500 1.334400
3.553800 2.086700
3.576200 2.556100
3.598600 2.708600
3.621000 2.672500
3.643300 2.570700
3.665700 2.497000
3.688100 2.367800
3.710500 2.044400
3.732800 1.553500
3.755200 1.001000
3.777600 0.512100
3.800000 0.212400
3.822400 0.164400
3.844700 0.424900
3.867100 1.060500
3.889500 1.950500
3.911900 2.747300
3.934200 3.173800
3.956600 3.139500
3.979000 2.692300
4.001400 2.162900
4.023700 1.981400
4.046100 2.100000
4.068500 2.037700
4.090900 1.600000
4.113300 1.104600
4.135600 0.954600
4.158000 1.263600
4.180400 1.698600
4.202800 1.755800
4.225100 1.429100
4.247500 1.315800
4.269900 1.826800
4.292300 2.527500
4.314600 2.578100
4.337000 1.813100
4.359400 0.877100
4.381800 0.338800
4.404200 0.299100
4.426500 0.693000
4.448900 1.371100
4.471300 1.977400
4.493700 2.252800
4.516000 2.334600
4.538400 2.356200
4.560800 2.188200
4.583200 1.794700
4.605500 1.297700
4.627900 0.788900
4.650300 0.370500
4.672700 0.133400
4.695100 0.086100
4.717400 0.263300
4.739800 0.820500
4.762200 1.830000
4.784600 2.902800
4.806900 3.300000
4.829300 2.712300
4.851700 1.679400
4.874100 0.982700
4.896400 0.865800
4.918800 1.002000
4.941200 1.023600
4.963600 0.873500
4.985900 0.659300
5.008300 0.472100
5.030700 0.472100
5.053100 0.912900
5.075500 1.900100
5.097800 3.070400
5.120200 3.689400
5.142600 3.353700
5.165000 2.389900
5.187300 1.380400
5.209700 0.676200
5.232100 0.419300
5.254500 0.672700
5.276800 1.361100
5.299200 2.126900
5.321600 2.521000
5.344000 2.431500
5.366400 2.043600
5.388700 1.505300
5.411100 0.943900
5.433500 0.591700
5.455900 0.627300
5.478200 0.953300
5.500600 1.221700
5.523000 1.148500
5.545400 0.785500
5.567700 0.400500
5.590100 0.169200
5.612500 0.080800
5.634900 0.057000
5.657300 0.057700
5.679600 0.075900
5.702000 0.098600
5.724400 0.116500
5.746800 0.155000
5.769100 0.245900
5.791500 0.390900
5.813900 0.624300
5.836300 1.055500
5.858600 1.652000
5.881000 2.022400
5.903400 1.788000
5.925800 1.134800
5.948200 0.604700
5.970500 0.519800
5.992900 0.848600
6.015300 1.314700
6.037700 1.528400
6.060000 1.308500
6.082400 0.872700
6.104800 0.531400
6.127200 0.375500
6.149500 0.372100
6.171900 0.507000
6.194300 0.740800
6.216700 1.031000
6.239100 1.424200
6.261400 1.941900
6.283800 2.370900
6.306200 2.351900
6.328600 1.831900
6.350900 1.256800
6.373300 1.070700
6.395700 1.232400
6.418100 1.381300
6.440400 1.276200
6.462800 1.007300
6.485200 0.879100
6.507600 1.069500
6.529900 1.427400
6.552300 1.701200
6.574700 1.800500
6.597100 1.701000
6.619500 1.383800
6.641800 0.968000
6.664200 0.676700
6.686600 0.682500
6.709000 0.983400
6.731300 1.359900
6.753700 1.557700
6.776100 1.522800
6.798500 1.347500
6.820800 1.088000
6.843200 0.786400
6.865600 0.547800
6.888000 0.449600
6.910400 0.466900
6.932700 0.554900
6.955100 0.680500
6.977500 0.746800
6.999900 0.655400
7.022200 0.470700
7.044600 0.362100
7.067000 0.377600
7.089400 0.410400
7.111700 0.390500
7.134100 0.393600
7.156500 0.521000
7.178900 0.742000
7.201300 0.929700
7.223600 1.060600
7.246000 1.244300
7.268400 1.531500
7.290800 1.875000
7.313100 2.252900
7.335500 2.638300
7.357900 2.862000
7.380300 2.705600
7.402600 2.221300
7.425000 1.759400
7.447400 1.629700
7.469800 1.922000
7.492200 2.553400
7.514500 3.289700
7.536900 3.765100
7.559300 3.705300
7.581700 3.295900
7.604000 3.116300
7.626400 3.432100
7.648800 3.775200
7.671200 3.587200
7.693500 3.001800
7.715900 2.502800
7.738300 2.200400
7.760700 1.945400
7.783100 1.716100
7.805400 1.606400
7.827800 1.747300
7.850200 2.240700
7.872600 2.971700
7.894900 3.550900
7.917300 3.645300
7.939700 3.386200
7.962100 3.175800
7.984400 3.101100
8.006800 2.943100
8.029200 2.679400
8.051600 2.536000
8.074000 2.626200
8.096300 2.854200
8.118700 3.065100
8.141100 3.118900
8.163500 2.927400
8.185800 2.534000
8.208200 2.129600
8.230600 1.953700
8.253000 2.092100
8.275300 2.314600
8.297700 2.288900
8.320100 2.024600
8.342500 1.875200
8.364800 2.084500
8.387200 2.575400
8.409600 3.212800
8.432000 3.980800
8.454400 4.711600
8.476700 4.955100
8.499100 4.485200
8.521500 3.689800
8.543900 3.105000
8.566200 2.813400
8.588600 2.599000
8.611000 2.438600
8.633400 2.515400
8.655700 2.813300
8.678100 2.993700
8.700500 2.797300
8.722900 2.360400
8.745300 2.046900
8.767600 2.116800
8.790000 2.526000
8.812400 2.997300
8.834800 3.383900
8.857100 3.764600
8.879500 4.057400
8.901900 3.990800
8.924300 3.583800
8.946600 3.178700
8.969000 2.969400
8.991400 2.912000
9.013800 3.012300
9.036200 3.403400
9.058500 4.141000
9.080900 4.902100
9.103300 5.030000
9.125700 4.231800
9.148000 3.016000
9.170400 2.112600
9.192800 1.794600
9.215200 1.907000
9.237500 2.162800
9.259900 2.297700
9.282300 2.178100
9.304700 1.880900
9.327100 1.624200
9.349400 1.583200
9.371800 1.793000
9.394200 2.177200
9.416600 2.580000
9.438900 2.866200
9.461300 3.046500
9.483700 3.171200
9.506100 3.257300
9.528400 3.381500
9.550800 3.549500
9.573200 3.585500
9.595600 3.376700
9.618000 3.090200
9.640300 2.997700
9.662700 3.122200
9.685100 3.277700
9.707500 3.414500
9.729800 3.640700
9.752200 3.993000
9.774600 4.297700
9.797000 4.270100
9.819300 3.901400
9.841700 3.587600
9.864100 3.629000
9.886500 3.810700
9.908900 3.690800
9.931200 3.169300
9.953600 2.564800
9.976000 2.222000
9.998400 2.235100
10.020700 2.440800
10.043100 2.595900
10.065500 2.630100
10.087900 2.683600
10.110200 2.857900
10.132600 3.006600
10.155000 2.899900
10.177400 2.601700
10.199700 2.456700
10.222100 2.660000
10.244500 3.036900
10.266900 3.240100
10.289300 3.051200
10.311600 2.550300
10.334000 2.051900
10.356400 1.826600
10.378800 1.848400
10.401100 1.856500
10.423500 1.693300
10.445900 1.515200
10.468300 1.546700
10.490600 1.736400
10.513000 1.899200
10.535400 2.077800
10.557800 2.422000
10.580200 2.773100
10.602500 2.777600
10.624900 2.420400
10.647300 2.034800
10.669700 1.833200
10.692000 1.824900
10.714400 2.078000
10.736800 2.706700
10.759200 3.576700
10.781500 4.227900
10.803900 4.243700
10.826300 3.651600
10.848700 2.858900
10.871100 2.272500
10.893400 2.049900
10.915800 2.130100
10.938200 2.420700
10.960600 2.853300
10.982900 3.230200
11.005300 3.263600
11.027700 2.892900
11.050100 2.352300
11.072400 1.868800
11.094800 1.512200
11.117200 1.327200
11.139600 1.381700
11.162000 1.660100
11.184300 2.035100
11.206700 2.327400
11.229100 2.341600
11.251500 2.012700
11.273800 1.548800
11.296200 1.236600
11.318600 1.187100
11.341000 1.353600
11.363300 1.618600
11.385700 1.871100
11.408100 2.089500
11.430500 2.320800
11.452900 2.614000
11.475200 3.061000
11.497600 3.747600
11.520000 4.416500
11.542400 4.503600
11.564700 3.864500
11.587100 3.012700
11.609500 2.458500
11.631900 2.296400
11.654200 2.411000
11.676600 2.691300
11.699000 3.019400
11.721400 3.218300
11.743700 3.152200
11.766100 2.897400
11.788500 2.704200
11.810900 2.767500
11.833300 3.033600
11.855600 3.224900
11.878000 3.139900
11.900400 2.866900
11.922800 2.641000
11.945100 2.658300
11.967500 3.001500
11.989900 3.526100
12.012300 3.904800
12.034600 3.902200
12.057000 3.553500
12.079400 3.145300
12.101800 3.001800
12.124200 3.148600
12.146500 3.325500
12.168900 3.354200
12.191300 3.221900
12.213700 2.894500
12.236000 2.406700
12.258400 2.010400
12.280800 1.897800
12.303200 1.916000
12.325500 1.839900
12.347900 1.782900
12.370300 2.018400
12.392700 2.521000
12.415100 3.027800
12.437400 3.377000
12.459800 3.475400
12.482200 3.264300
12.504600 2.935100
12.526900 2.832000
12.549300 3.057200
12.571700 3.314200
12.594100 3.215000
12.616400 2.764700
12.638800 2.354100
12.661200 2.337200
12.683600 2.893700
12.706000 4.010800
12.728300 5.182000
12.750700 5.545700
12.773100 4.867300
12.795500 3.977700
12.817800 3.757700
12.840200 4.105200
12.862600 4.280800
12.885000 3.951000
12.907300 3.532700
12.929700 3.546900
12.952100 3.896700
12.974500 4.046500
12.996900 3.873400
13.019200 3.827500
13.041600 4.166900
13.064000 4.688000
13.086400 5.140300
13.108700 5.289200
13.131100 4.880500
13.153500 3.990900
13.175900 3.103700
13.198200 2.621800
13.220600 2.521700
13.243000 2.583000
13.265400 2.713700
13.287800 2.930300
13.310100 3.252100
13.332500 3.759000
13.354900 4.542500
13.377300 5.466400
13.399600 6.168800
13.422000 6.436900
13.444400 6.408500
13.466800 6.210800
13.489100 5.723300
13.511500 4.956300
13.533900 4.190600
13.556300 3.592800
13.578600 3.091600
13.601000 2.673900
13.623400 2.522100
13.645800 2.741500
13.668200 3.126800
13.690500 3.347000
13.712900 3.321600
13.735300 3.312200
13.757700 3.598600
13.780000 4.153100
13.802400 4.677400
13.824800 4.856600
13.847200 4.580400
13.869500 4.078200
13.891900 3.884500
13.914300 4.434900
13.936700 5.535300
13.959100 6.384200
13.981400 6.278600
14.003800 5.289900
14.026200 4.144100
14.048600 3.488600
14.070900 3.494400
14.093300 3.948400
14.115700 4.447900
14.138100 4.713300
14.160400 4.816800
14.182800 5.090200
14.205200 5.736600
14.227600 6.349300
14.250000 6.245800
14.272300 5.478300
14.294700 4.840700
14.317100 4.967800
14.339500 5.822000
14.361800 6.722100
14.384200 6.913000
14.406600 6.348500
14.429000 5.584600
14.451300 4.931500
14.473700 4.322900
14.496100 3.900300
14.518500 3.972400
14.540900 4.482600
14.563200 5.088000
14.585600 5.616300
14.608000 6.043800
14.630400 6.227500
14.652700 5.955500
14.675100 5.186300
14.697500 4.165500
14.719900 3.294000
14.742200 2.855700
14.764600 2.919200
14.787000 3.425300
14.809400 4.230400
14.831800 4.997000
14.854100 5.191600
14.876500 4.628900
14.898900 3.818100
14.921300 3.370500
14.943600 3.488000
14.966000 4.018100
14.988400 4.498400
15.010800 4.439000
15.033100 3.924300
15.055500 3.568300
15.077900 3.779000
15.100300 4.402500
15.122700 4.979500
15.145000 5.147300
15.167400 4.851000
15.189800 4.317200
15.212200 4.005800
15.234500 4.330200
15.256900 5.155400
15.279300 5.862600
15.301700 6.032800
15.324000 5.761700
15.346400 5.290500
15.368800 4.695800
15.391200 4.056300
15.413500 3.638800
15.435900 3.664700
15.458300 3.980900
15.480700 4.164600
15.503100 3.964200
15.525400 3.485700
15.547800 2.937800
15.570200 2.469200
15.592600 2.327100
15.614900 2.774500
15.637300 3.673000
15.659700 4.453400
15.682100 4.663700
15.704400 4.336900
15.726800 3.797000
15.749200 3.384100
15.771600 3.294800
15.794000 3.430000
15.816300 3.514500
15.838700 3.440300
15.861100 3.343800
15.883500 3.347900
15.905800 3.359400
15.928200 3.228400
15.950600 3.038900
15.973000 2.960800
15.995300 2.903800
16.017700 2.716300
16.040100 2.539100
16.062500 2.618100
16.084900 2.945800
16.107200 3.284400
16.129600 3.406000
16.152000 3.262600
16.174400 3.067800
16.196700 3.060100
16.219100 3.089900
16.241500 2.811200
16.263900 2.265100
16.286200 1.880500
16.308600 1.994400
16.331000 2.611400
16.353400 3.538700
16.375800 4.567000
16.398100 5.482600
16.420500 6.092400
16.442900 6.280800
16.465300 5.956900
16.487600 5.147800
16.510000 4.212300
16.532400 3.667300
16.554800 3.698800
16.577100 4.046800
16.599500 4.351800
16.621900 4.397100
16.644300 4.143400
16.666700 3.737000
16.689000 3.370800
16.711400 3.064700
16.733800 2.784300
16.756200 2.721800
16.778500 3.147500
16.800900 4.030000
16.823300 5.015200
16.845700 5.720200
16.868000 5.975300
16.890400 5.980800
16.912800 6.157500
16.935200 6.552800
16.957600 6.706700
16.979900 6.346500
17.002300 5.720800
17.024700 5.168600
17.047100 4.841900
17.069400 4.703000
17.091800 4.506800
17.114200 4.058800
17.136600 3.508700
17.158900 3.152700
17.181300 3.084600
17.203700 3.203500
17.226100 3.466200
17.248400 3.967400
17.270800 4.736300
17.293200 5.593100
17.315600 6.219300
17.338000 6.302300
17.360300 5.787200
17.382700 5.027400
17.405100 4.511800
17.427500 4.509200
17.449800 4.929100
17.472200 5.343800
17.494600 5.340000
17.517000 4.946100
17.539300 4.474800
17.561700 4.033000
17.584100 3.514400
17.606500 2.950600
17.628900 2.552100
17.651200 2.474900
17.673600 2.735900
17.696000 3.295700
17.718400 4.001200
17.740700 4.487600
17.763100 4.481300
17.785500 4.151000
17.807900 3.931500
17.830200 4.103200
17.852600 4.547100
17.875000 4.879900
17.897400 4.858500
17.919800 4.614600
17.942100 4.549700
17.964500 4.941700
17.986900 5.593800
18.009300 6.029000
18.031600 6.071200
18.054000 5.969000
18.076400 5.811700
18.098800 5.307300
18.121100 4.393100
18.143500 3.489600
18.165900 2.989700
18.188300 2.940900
18.210700 3.205200
18.233000 3.628100
18.255400 4.049700
18.277800 4.272300
18.300200 4.078000
18.322500 3.436300
18.344900 2.681000
18.367300 2.201500
18.389700 2.060600
18.412000 2.074900
18.434400 2.105200
18.456800 2.213900
18.479200 2.559200
18.501600 3.158700
18.523900 3.826400
18.546300 4.322300
18.568700 4.581800
18.591100 4.820100
18.613400 5.197700
18.635800 5.546100
18.658200 5.774100
18.680600 6.027800
18.702900 6.175200
18.725300 5.829700
18.747700 5.009700
18.770100 4.158000
18.792400 3.522900
18.814800 2.995600
18.837200 2.498600
18.859600 2.174300
18.882000 2.162000
18.904300 2.470200
18.926700 3.066100
18.949100 3.754700
18.971500 4.110400
18.993800 3.901400
19.016200 3.377100
19.038600 2.912400
19.061000 2.633300
19.083300 2.520700
19.105700 2.615400
19.128100 2.948400
19.150500 3.392000
19.172900 3.705200
19.195200 3.740600
19.217600 3.589300
19.240000 3.512500
19.262400 3.693500
19.284700 3.986000
19.307100 4.084500
19.329500 4.101900
19.351900 4.502200
19.374200 5.237800
19.396600 5.625900
19.419000 5.349400
19.441400 4.943700
19.463800 4.980200
19.486100 5.266900
19.508500 5.268000
19.530900 4.899000
19.553300 4.467700
19.575600 4.222100
19.598000 4.233700
19.620400 4.424800
19.642800 4.573900
19.665100 4.456300
19.687500 4.136400
19.709900 4.041100
19.732300 4.442400
19.754700 4.964000
19.777000 5.066000
19.799400 4.765300
19.821800 4.403600
19.844200 4.151700
19.866500 4.053900
19.888900 4.121000
19.911300 4.321300
19.933700 4.666600
19.956000 5.143900
19.978400 5.667900
20.000800 6.171700
20.023200 6.503800
20.045600 6.517000
20.067900 6.340000
20.090300 6.086600
20.112700 5.556900
20.135100 4.675300
20.157400 3.807700
20.179800 3.403600
20.202200 3.681600
20.224600 4.523200
20.246900 5.429300
20.269300 5.907500
20.291700 5.901100
20.314100 5.563700
20.336500 4.975900
20.358800 4.308900
20.381200 3.899000
20.403600 4.011000
20.426000 4.488000
20.448300 4.744400
20.470700 4.402000
20.493100 3.735800
20.515500 3.283800
20.537800 3.298700
20.560200 3.607500
20.582600 3.820900
20.605000 3.713900
20.627300 3.427300
20.649700 3.263800
20.672100 3.374300
20.694500 3.646400
20.716900 3.776600
20.739200 3.534300
20.761600 3.080200
20.784000 2.851000
20.806400 3.024100
20.828700 3.316300
20.851100 3.408100
20.873500 3.388700
20.895900 3.637400
20.918200 4.254800
20.940600 4.846400
20.963000 5.159700
20.985400 5.447400
21.007800 5.779000
21.030100 5.732800
21.052500 5.088600
21.074900 4.254800
21.097300 3.852300
21.119600 4.063200
21.142000 4.521100
21.164400 4.830900
21.186800 4.974900
21.209100 5.098200
21.231500 5.151400
21.253900 4.995200
21.276300 4.642300
21.298700 4.184900
21.321000 3.723200
21.343400 3.440300
21.365800 3.509700
21.388200 3.889500
21.410500 4.298600
21.432900 4.481300
21.455300 4.521200
21.477700 4.680000
21.500000 4.861900
21.522400 4.632600
21.544800 3.922300
21.567200 3.255700
21.589600 3.099800
21.611900 3.402000
21.634300 3.879400
21.656700 4.337000
21.679100 4.615800
21.701400 4.546600
21.723800 4.118000
21.746200 3.620600
21.768600 3.422400
21.790900 3.584700
21.813300 3.865300
21.835700 4.045000
21.858100 4.148400
21.880500 4.347400
21.902800 4.634400
21.925200 4.720300
21.947600 4.503700
21.970000 4.374100
21.992300 4.660100
22.014700 5.138200
22.037100 5.337500
22.059500 5.011300
22.081800 4.311600
22.104200 3.675500
22.126600 3.464900
22.149000 3.771600
22.171400 4.449400
22.193700 5.048700
22.216100 5.088500
22.238500 4.642000
22.260900 4.283800
22.283200 4.456200
22.305600 4.987500
22.328000 5.226300
22.350400 4.858500
22.372700 4.371100
22.395100 4.363700
22.417500 4.756900
22.439900 4.990900
22.462200 4.751400
22.484600 4.311500
22.507000 4.192100
22.529400 4.562800
22.551800 5.079000
22.574100 5.336600
22.596500 5.355300
22.618900 5.419600
22.641300 5.578100
22.663600 5.629600
22.686000 5.481600
22.708400 5.230800
22.730800 4.983200
22.753100 4.785100
22.775500 4.690800
22.797900 4.698700
22.820300 4.653700
22.842700 4.408000
22.865000 4.003100
22.887400 3.582500
22.909800 3.259500
22.932200 3.117100
22.954500 3.136600
22.976900 3.122000
22.999300 2.927700
23.021700 2.723700
23.044000 2.788400
23.066400 3.064000
23.088800 3.201400
23.111200 3.084200
23.133600 2.965400
23.155900 3.052700
23.178300 3.365000
23.200700 3.896700
23.223100 4.520800
23.245400 4.884900
23.267800 4.731300
23.290200 4.241000
23.312600 3.868300
23.334900 3.903100
23.357300 4.235600
23.379700 4.448300
23.402100 4.168100
23.424500 3.460200
23.446800 2.797600
23.469200 2.507000
23.491600 2.459800
23.514000 2.438500
23.536300 2.465000
23.558700 2.632700
23.581100 2.905800
23.603500 3.199700
23.625800 3.473400
23.648200 3.653000
23.670600 3.652000
23.693000 3.500700
23.715400 3.290100
23.737700 3.069800
23.760100 2.828100
23.782500 2.511600
23.804900 2.161300
23.827200 1.968900
23.849600 2.075600
23.872000 2.363400
23.894400 2.549200
23.916700 2.473200
23.939100 2.234500
23.961500 2.030800
23.983900 1.877300
24.006200 1.615100
24.028600 1.238600
24.051000 0.972800
24.073400 0.946100
24.095800 1.022900
24.118100 1.040200
24.140500 1.015100
24.162900 1.020900
24.185300 1.037100
24.207600 1.001800
24.230000 0.893100
24.252400 0.753800
24.274800 0.673100
24.297100 0.718000
24.319500 0.929900
24.341900 1.307600
24.364300 1.655100
24.386700 1.685100
24.409000 1.419200
24.431400 1.156100
24.453800 1.033500
24.476200 0.952300
24.498500 0.832600
24.520900 0.701400
24.543300 0.597100
24.565700 0.540500
24.588000 0.556700
24.610400 0.618900
24.632800 0.628600
24.655200 0.517700
24.677600 0.324900
24.699900 0.149200
24.722300 0.048600
24.744700 0.011000
24.767100 0.001700
24.789400 0.000200
24.811800 0.000000
24.834200 0.000000
24.856600 0.000000
24.878900 0.000000
24.901300 0.000000
24.923700 0.000000
24.946100 0.000000
24.968500 0.000000
24.990800 0.000000
25.013200 0.000000
25.035600 0.000000
25.058000 0.000000
25.080300 0.000000
25.102700 0.000000
25.125100 0.000000
25.147500 0.000000
25.169800 0.000000
25.192200 0.000000
25.214600 0.000000
25.237000 0.000000
25.259400 0.000000
25.281700 0.000000
25.304100 0.000000
25.326500 0.000000
25.348900 0.000000
25.371200 0.000000
25.393600 0.000100
25.416000 0.000700
25.438400 0.003600
25.460700 0.012100
25.483100 0.027200
25.505500 0.041500
25.527900 0.043000
25.550300 0.030200
25.572600 0.014400
25.595000 0.004700
25.617400 0.001000
25.639800 0.000200
25.662100 0.000000
25.684500 0.000000
25.706900 0.000000
25.729300 0.000000
25.751600 0.000000
25.774000 0.000000
25.796400 0.000000
25.818800 0.000000
25.841100 0.000000
25.863500 0.000000
25.885900 0.000000
25.908300 0.000000
25.930700 0.000000
25.953000 0.000000
25.975400 0.000000
25.997800 0.000000
26.020200 0.000000
26.042500 0.000000
26.064900 0.000000
26.087300 0.000000
26.109700 0.000000
26.132000 0.000000
26.154400 0.000000
26.176800 0.000000
26.199200 0.000000
26.221600 0.000000
26.243900 0.000000
26.266300 0.000000
26.288700 0.000000
26.311100 0.000000
26.333400 0.000000
26.355800 0.000000
26.378200 0.000000
26.400600 0.000000
26.422900 0.000000
26.445300 0.000000
26.467700 0.000000
26.490100 0.000000
26.512500 0.000000
26.534800 0.000000
26.557200 0.000000
26.579600 0.000000
26.602000 0.000000
26.624300 0.000000
26.646700 0.000000
26.669100 0.000000
26.691500 0.000000
26.713800 0.000000
26.736200 0.000000
26.758600 0.000000
26.781000 0.000000
26.803400 0.000000
26.825700 0.000000
26.848100 0.000000
26.870500 0.000000
26.892900 0.000000
26.915200 0.000000
26.937600 0.000000
26.960000 0.000000
26.982400 0.000000
27.004700 0.000000
27.027100 0.000000
27.049500 0.000000
27.071900 0.000000
27.094300 0.000000
27.116600 0.000000
27.139000 0.000000
27.161400 0.000000
27.183800 0.000000
27.206100 0.000000
27.228500 0.000000
27.250900 0.000000
27.273300 0.000000
27.295600 0.000000
27.318000 0.000000
27.340400 0.000000
27.362800 0.000000
27.385200 0.000000
27.407500 0.000000
27.429900 0.000000
27.452300 0.000000
27.474700 0.000000
27.497000 0.000000
27.519400 0.000000
27.541800 0.000000
e
