set title 'mp-1120447 - Density of States'
set xlabel 'Energy (eV)'
set ylabel 'DOS (states/eV)'
set grid
set xrange [-10:10]
set yrange [0:6.757]
set xzeroaxis lt -1
set terminal png size 800,600
set output 'mp-1120447_dos_gnuplot.png'
plot '-' using 1:2 with lines title 'DOS'
-8.495400 0.000000
-8.480900 0.000000
-8.466400 0.000000
-8.451900 0.000000
-8.437400 0.000000
-8.422900 0.000000
-8.408300 0.000000
-8.393800 0.000000
-8.379300 0.000000
-8.364800 0.000000
-8.350300 0.000000
-8.335800 0.000000
-8.321300 0.000000
-8.306800 0.000000
-8.292300 0.000000
-8.277700 0.000000
-8.263200 0.000000
-8.248700 0.000000
-8.234200 0.000000
-8.219700 0.000000
-8.205200 0.000000
-8.190700 0.000000
-8.176200 0.000000
-8.161700 0.000000
-8.147100 0.000000
-8.132600 0.000000
-8.118100 0.000000
-8.103600 0.000000
-8.089100 0.000000
-8.074600 0.000000
-8.060100 0.000000
-8.045600 0.000000
-8.031100 0.000000
-8.016500 0.000000
-8.002000 0.000000
-7.987500 0.000000
-7.973000 0.000000
-7.958500 0.000000
-7.944000 0.000000
-7.929500 0.000000
-7.915000 0.000000
-7.900500 0.000000
-7.885900 0.000000
-7.871400 0.000000
-7.856900 0.000000
-7.842400 0.000000
-7.827900 0.000000
-7.813400 0.000000
-7.798900 0.000000
-7.784400 0.000000
-7.769900 0.000000
-7.755300 0.000000
-7.740800 0.000000
-7.726300 0.000000
-7.711800 0.000000
-7.697300 0.000000
-7.682800 0.000000
-7.668300 0.000000
-7.653800 0.000000
-7.639300 0.000000
-7.624700 0.000000
-7.610200 0.000000
-7.595700 0.000000
-7.581200 0.000000
-7.566700 0.000000
-7.552200 0.000000
-7.537700 0.000000
-7.523200 0.000000
-7.508700 0.000000
-7.494100 0.000000
-7.479600 0.000000
-7.465100 0.000000
-7.450600 0.000000
-7.436100 0.000000
-7.421600 0.000000
-7.407100 0.000000
-7.392600 0.000000
-7.378100 0.000000
-7.363500 0.000000
-7.349000 0.000000
-7.334500 0.000000
-7.320000 0.000000
-7.305500 0.000000
-7.291000 0.000000
-7.276500 0.000000
-7.262000 0.000000
-7.247500 0.000000
-7.232900 0.000000
-7.218400 0.000000
-7.203900 0.000000
-7.189400 0.000000
-7.174900 0.000200
-7.160400 0.032400
-7.145900 0.119100
-7.131400 0.259700
-7.116900 0.401200
-7.102300 0.466900
-7.087800 0.476800
-7.073300 0.513100
-7.058800 0.563400
-7.044300 0.615400
-7.029800 0.667500
-7.015300 0.717600
-7.000800 0.764000
-6.986300 0.805500
-6.971700 0.843000
-6.957200 0.878800
-6.942700 0.916900
-6.928200 0.947900
-6.913700 0.984500
-6.899200 1.022200
-6.884700 1.059500
-6.870200 1.096700
-6.855700 1.134800
-6.841100 1.175300
-6.826600 1.218000
-6.812100 1.262800
-6.797600 1.309600
-6.783100 1.357400
-6.768600 1.405600
-6.754100 1.453000
-6.739600 1.501900
-6.725100 1.560100
-6.710500 1.660300
-6.696000 1.766000
-6.681500 1.863400
-6.667000 1.927400
-6.652500 1.945700
-6.638000 1.966800
-6.623500 1.997800
-6.609000 2.027900
-6.594500 2.044000
-6.579900 2.136400
-6.565400 2.037500
-6.550900 2.042400
-6.536400 2.048400
-6.521900 2.052500
-6.507400 2.056700
-6.492900 2.054800
-6.478400 2.061500
-6.463900 2.066900
-6.449300 2.071100
-6.434800 2.079800
-6.420300 2.099000
-6.405800 2.124400
-6.391300 2.194200
-6.376800 2.247000
-6.362300 2.232500
-6.347800 2.177800
-6.333300 2.148400
-6.318700 2.148100
-6.304200 2.151700
-6.289700 2.140400
-6.275200 2.115200
-6.260700 2.078100
-6.246200 2.023500
-6.231700 1.951100
-6.217200 1.892700
-6.202700 1.841500
-6.188100 1.794900
-6.173600 1.750600
-6.159100 1.722600
-6.144600 1.720700
-6.130100 1.717700
-6.115600 1.610000
-6.101100 1.452900
-6.086600 1.355800
-6.072100 1.290900
-6.057500 1.239900
-6.043000 1.202900
-6.028500 1.172000
-6.014000 1.134200
-5.999500 1.087100
-5.985000 1.041500
-5.970500 0.999400
-5.956000 0.966200
-5.941500 0.937100
-5.926900 0.915900
-5.912400 1.106500
-5.897900 1.135500
-5.883400 1.063600
-5.868900 1.080300
-5.854400 1.095300
-5.839900 1.113500
-5.825400 1.141700
-5.810900 1.175000
-5.796300 1.173000
-5.781800 1.153700
-5.767300 1.150400
-5.752800 1.157500
-5.738300 1.201500
-5.723800 1.224700
-5.709300 1.202200
-5.694800 1.161700
-5.680300 1.121600
-5.665700 1.062700
-5.651200 1.014200
-5.636700 0.950600
-5.622200 0.897200
-5.607700 0.881600
-5.593200 0.875100
-5.578700 0.881400
-5.564200 0.894100
-5.549700 0.908500
-5.535100 0.922700
-5.520600 0.936200
-5.506100 0.949300
-5.491600 0.962200
-5.477100 0.975300
-5.462600 0.987900
-5.448100 1.001300
-5.433600 1.015200
-5.419100 1.034100
-5.404500 1.063000
-5.390000 1.102700
-5.375500 1.168500
-5.361000 1.205300
-5.346500 1.265700
-5.332000 1.374300
-5.317500 1.395400
-5.303000 1.416600
-5.288500 1.401000
-5.273900 1.385500
-5.259400 1.375900
-5.244900 1.373300
-5.230400 1.382200
-5.215900 1.397500
-5.201400 1.409000
-5.186900 1.414900
-5.172400 1.421900
-5.157900 1.429700
-5.143300 1.438800
-5.128800 1.450500
-5.114300 1.465400
-5.099800 1.485000
-5.085300 1.494000
-5.070800 1.468900
-5.056300 1.430100
-5.041800 1.389000
-5.027300 1.354500
-5.012700 1.326600
-4.998200 1.305200
-4.983700 1.289000
-4.969200 1.272900
-4.954700 1.256200
-4.940200 1.243000
-4.925700 1.232000
-4.911200 1.222500
-4.896700 1.214400
-4.882100 1.207300
-4.867600 1.201100
-4.853100 1.196400
-4.838600 1.192900
-4.824100 1.190600
-4.809600 1.189300
-4.795100 1.189200
-4.780600 1.190500
-4.766100 1.193300
-4.751500 1.197500
-4.737000 1.203100
-4.722500 1.209700
-4.708000 1.217200
-4.693500 1.225800
-4.679000 1.236000
-4.664500 1.247800
-4.650000 1.261300
-4.635500 1.276700
-4.620900 1.294600
-4.606400 1.314200
-4.591900 1.335400
-4.577400 1.362400
-4.562900 1.397300
-4.548400 1.444800
-4.533900 1.533300
-4.519400 1.606200
-4.504900 1.670200
-4.490300 1.728400
-4.475800 1.770000
-4.461300 1.814200
-4.446800 1.845800
-4.432300 1.764300
-4.417800 1.662400
-4.403300 1.572800
-4.388800 1.511900
-4.374300 1.490200
-4.359700 1.487100
-4.345200 1.529200
-4.330700 1.621500
-4.316200 1.712600
-4.301700 1.867300
-4.287200 2.112800
-4.272700 2.195000
-4.258200 2.269700
-4.243700 2.327400
-4.229100 2.592600
-4.214600 2.381600
-4.200100 2.123600
-4.185600 1.992700
-4.171100 1.949400
-4.156600 1.949400
-4.142100 1.952800
-4.127600 1.958000
-4.113100 1.975100
-4.098500 1.999900
-4.084000 2.027200
-4.069500 2.041700
-4.055000 2.038100
-4.040500 2.034400
-4.026000 2.037900
-4.011500 2.065800
-3.997000 2.100500
-3.982500 2.143500
-3.967900 2.185600
-3.953400 2.223800
-3.938900 2.265500
-3.924400 2.320400
-3.909900 2.409900
-3.895400 2.459500
-3.880900 2.520500
-3.866400 2.600500
-3.851900 2.691200
-3.837300 2.722800
-3.822800 2.703300
-3.808300 2.749700
-3.793800 2.556800
-3.779300 2.532300
-3.764800 2.524600
-3.750300 2.543400
-3.735800 2.468500
-3.721300 2.420500
-3.706700 2.349900
-3.692200 2.294700
-3.677700 2.260400
-3.663200 2.225400
-3.648700 2.177700
-3.634200 2.075600
-3.619700 1.987100
-3.605200 1.916400
-3.590700 1.851000
-3.576100 1.783200
-3.561600 1.722700
-3.547100 1.703100
-3.532600 1.701200
-3.518100 1.702800
-3.503600 1.740400
-3.489100 1.805400
-3.474600 1.881900
-3.460100 1.963300
-3.445500 2.028000
-3.431000 1.974700
-3.416500 1.897200
-3.402000 1.842600
-3.387500 1.800700
-3.373000 1.779900
-3.358500 1.769800
-3.344000 1.771600
-3.329500 1.771700
-3.314900 1.776100
-3.300400 1.785900
-3.285900 1.812200
-3.271400 1.837000
-3.256900 1.871800
-3.242400 1.903600
-3.227900 1.914200
-3.213400 1.926000
-3.198900 1.939100
-3.184300 1.950300
-3.169800 1.971600
-3.155300 2.100300
-3.140800 2.395100
-3.126300 2.229100
-3.111800 2.296300
-3.097300 2.390500
-3.082800 2.536400
-3.068300 2.736100
-3.053700 2.932600
-3.039200 2.815800
-3.024700 2.842400
-3.010200 2.954900
-2.995700 3.017000
-2.981200 3.178800
-2.966700 3.235500
-2.952200 3.258000
-2.937700 3.299600
-2.923100 3.368300
-2.908600 3.497400
-2.894100 3.745800
-2.879600 3.827100
-2.865100 3.569900
-2.850600 3.472400
-2.836100 3.328300
-2.821600 3.207700
-2.807100 3.149300
-2.792500 3.082300
-2.778000 3.023500
-2.763500 2.968800
-2.749000 2.923300
-2.734500 2.918400
-2.720000 2.846800
-2.705500 2.795800
-2.691000 2.769200
-2.676500 2.775900
-2.661900 2.744000
-2.647400 2.713700
-2.632900 2.708000
-2.618400 2.700300
-2.603900 2.640100
-2.589400 2.570900
-2.574900 2.505400
-2.560400 2.446200
-2.545900 2.391700
-2.531300 2.347000
-2.516800 2.312500
-2.502300 2.287900
-2.487800 2.263000
-2.473300 2.235800
-2.458800 2.215400
-2.444300 2.213400
-2.429800 2.212200
-2.415300 2.200200
-2.400700 2.193600
-2.386200 2.191000
-2.371700 2.180900
-2.357200 2.176700
-2.342700 2.182700
-2.328200 2.194400
-2.313700 2.206300
-2.299200 2.217300
-2.284700 2.223400
-2.270100 2.226300
-2.255600 2.220400
-2.241100 2.204000
-2.226600 2.185900
-2.212100 2.176700
-2.197600 2.175000
-2.183100 2.148800
-2.168600 2.105600
-2.154100 2.092900
-2.139500 2.083200
-2.125000 2.069900
-2.110500 2.046700
-2.096000 2.030300
-2.081500 2.022200
-2.067000 2.016900
-2.052500 2.005500
-2.038000 2.008900
-2.023500 2.006100
-2.008900 2.009900
-1.994400 2.010700
-1.979900 2.026900
-1.965400 2.047800
-1.950900 2.043300
-1.936400 2.036800
-1.921900 2.031600
-1.907400 2.028500
-1.892900 2.025400
-1.878300 2.021200
-1.863800 2.020000
-1.849300 2.024800
-1.834800 2.029400
-1.820300 2.035300
-1.805800 2.042300
-1.791300 2.033900
-1.776800 2.042200
-1.762300 2.063800
-1.747700 2.081000
-1.733200 2.085700
-1.718700 2.081700
-1.704200 2.078100
-1.689700 2.084000
-1.675200 2.158600
-1.660700 2.196200
-1.646200 2.176400
-1.631700 2.122100
-1.617100 2.071400
-1.602600 2.090100
-1.588100 2.102900
-1.573600 2.057900
-1.559100 2.049800
-1.544600 2.053900
-1.530100 2.066500
-1.515600 2.086800
-1.501100 2.106100
-1.486500 2.115000
-1.472000 2.143700
-1.457500 2.179900
-1.443000 2.200600
-1.428500 2.209000
-1.414000 2.217500
-1.399500 2.234200
-1.385000 2.251800
-1.370500 2.270600
-1.355900 2.291100
-1.341400 2.317800
-1.326900 2.324800
-1.312400 2.315500
-1.297900 2.291800
-1.283400 2.247100
-1.268900 2.204200
-1.254400 2.177700
-1.239900 2.177600
-1.225300 2.228900
-1.210800 2.306900
-1.196300 2.342600
-1.181800 2.122900
-1.167300 1.978600
-1.152800 1.827100
-1.138300 1.677700
-1.123800 1.626400
-1.109300 1.603400
-1.094700 1.566800
-1.080200 1.527800
-1.065700 1.499000
-1.051200 1.474400
-1.036700 1.467800
-1.022200 1.459900
-1.007700 1.455500
-0.993200 1.461200
-0.978700 1.501200
-0.964100 1.541200
-0.949600 1.568400
-0.935100 1.625100
-0.920600 1.714500
-0.906100 1.752800
-0.891600 1.751000
-0.877100 1.712100
-0.862600 1.651800
-0.848100 1.589100
-0.833500 1.532300
-0.819000 1.497600
-0.804500 1.473600
-0.790000 1.449700
-0.775500 1.431300
-0.761000 1.505500
-0.746500 1.473000
-0.732000 1.435600
-0.717500 1.466700
-0.702900 1.547800
-0.688400 1.656800
-0.673900 1.780400
-0.659400 1.839800
-0.644900 1.839500
-0.630400 1.856200
-0.615900 1.922600
-0.601400 2.014600
-0.586900 2.130200
-0.572300 2.260100
-0.557800 2.386000
-0.543300 2.495300
-0.528800 2.610400
-0.514300 2.680000
-0.499800 2.657800
-0.485300 2.764000
-0.470800 2.955200
-0.456300 2.989200
-0.441700 3.083500
-0.427200 3.156500
-0.412700 3.070800
-0.398200 3.088200
-0.383700 3.053400
-0.369200 2.970600
-0.354700 2.923800
-0.340200 2.909300
-0.325700 2.913800
-0.311100 2.949500
-0.296600 3.060200
-0.282100 3.326100
-0.267600 3.570200
-0.253100 3.821800
-0.238600 4.040800
-0.224100 4.325600
-0.209600 4.245500
-0.195100 4.136200
-0.180500 4.278400
-0.166000 4.355300
-0.151500 4.295800
-0.137000 4.203200
-0.122500 4.142200
-0.108000 4.047400
-0.093500 3.929100
-0.079000 3.860200
-0.064400 3.744900
-0.049900 3.407400
-0.035400 3.280300
-0.020900 3.277400
-0.006400 3.143900
0.008100 2.898000
0.022600 2.689200
0.037100 2.303700
0.051600 2.095600
0.066200 2.014200
0.080700 2.001800
0.095200 1.980900
0.109700 1.944300
0.124200 1.872100
0.138700 1.771400
0.153200 1.694500
0.167700 1.623400
0.182200 1.565300
0.196800 1.481400
0.211300 1.329700
0.225800 1.230100
0.240300 1.222100
0.254800 1.212700
0.269300 1.204300
0.283800 1.196900
0.298300 1.190900
0.312800 1.186100
0.327400 1.201000
0.341900 1.223300
0.356400 1.235700
0.370900 1.244100
0.385400 1.257400
0.399900 1.273900
0.414400 1.294400
0.428900 1.316000
0.443400 1.338000
0.458000 1.358400
0.472500 1.381600
0.487000 1.411200
0.501500 1.442300
0.516000 1.473000
0.530500 1.506300
0.545000 1.546000
0.559500 1.604000
0.574000 1.663600
0.588600 1.717500
0.603100 1.784100
0.617600 1.868600
0.632100 1.961500
0.646600 2.032100
0.661100 2.092000
0.675600 2.181300
0.690100 2.349100
0.704600 2.444900
0.719200 2.498700
0.733700 2.522000
0.748200 2.523200
0.762700 2.523000
0.777200 2.526900
0.791700 2.588300
0.806200 2.621200
0.820700 2.717200
0.835200 2.712100
0.849800 2.639200
0.864300 2.563500
0.878800 2.515100
0.893300 2.471500
0.907800 2.433800
0.922300 2.404700
0.936800 2.385200
0.951300 2.424900
0.965800 2.482900
0.980400 2.483000
0.994900 2.505400
1.009400 2.522100
1.023900 2.521200
1.038400 2.537900
1.052900 2.703900
1.067400 2.946300
1.081900 3.077200
1.096400 3.110300
1.111000 3.176200
1.125500 3.124000
1.140000 3.040600
1.154500 2.948700
1.169000 2.911000
1.183500 2.903000
1.198000 2.926500
1.212500 2.961100
1.227000 2.972400
1.241600 2.968400
1.256100 2.950700
1.270600 2.941400
1.285100 2.974600
1.299600 3.042000
1.314100 3.125100
1.328600 3.227300
1.343100 3.256900
1.357600 3.262500
1.372200 3.241400
1.386700 3.249600
1.401200 3.302600
1.415700 3.397900
1.430200 3.494700
1.444700 3.541500
1.459200 3.553700
1.473700 3.544600
1.488200 3.583400
1.502800 3.637500
1.517300 3.725800
1.531800 3.726900
1.546300 3.609500
1.560800 3.440000
1.575300 3.441300
1.589800 3.446200
1.604300 3.460100
1.618800 3.460000
1.633400 3.493100
1.647900 3.559600
1.662400 3.537900
1.676900 3.531800
1.691400 3.591000
1.705900 3.626100
1.720400 3.591100
1.734900 3.518000
1.749400 3.424200
1.764000 3.345400
1.778500 3.281200
1.793000 3.197100
1.807500 3.096700
1.822000 3.034400
1.836500 3.146200
1.851000 3.282200
1.865500 3.511100
1.880000 3.651300
1.894600 3.763300
1.909100 3.847900
1.923600 3.920200
1.938100 4.029300
1.952600 4.116500
1.967100 4.162300
1.981600 4.191100
1.996100 4.203200
2.010600 4.203200
2.025200 4.169000
2.039700 4.148700
2.054200 4.156600
2.068700 4.222600
2.083200 4.224900
2.097700 4.194300
2.112200 4.179800
2.126700 4.057400
2.141200 3.953700
2.155800 3.991300
2.170300 3.797400
2.184800 3.696300
2.199300 3.652600
2.213800 3.662900
2.228300 3.609900
2.242800 3.479500
2.257300 3.355100
2.271800 3.268700
2.286400 3.238300
2.300900 3.261500
2.315400 3.340500
2.329900 3.393200
2.344400 3.466300
2.358900 3.535800
2.373400 3.611200
2.387900 3.814400
2.402400 3.898800
2.417000 3.959200
2.431500 3.962600
2.446000 3.940600
2.460500 3.966800
2.475000 3.844000
2.489500 3.849500
2.504000 3.962100
2.518500 3.983500
2.533000 3.952700
2.547600 3.828100
2.562100 3.737600
2.576600 3.759500
2.591100 3.788900
2.605600 4.088300
2.620100 4.303900
2.634600 4.386000
2.649100 4.575000
2.663600 4.668400
2.678200 4.688300
2.692700 4.630900
2.707200 4.323700
2.721700 4.303600
2.736200 4.277400
2.750700 4.184400
2.765200 4.147600
2.779700 4.098700
2.794200 4.071400
2.808800 4.096000
2.823300 4.014100
2.837800 3.807300
2.852300 3.753800
2.866800 3.690500
2.881300 3.610500
2.895800 3.569200
2.910300 3.523700
2.924800 3.513700
2.939400 3.536100
2.953900 3.629100
2.968400 3.684500
2.982900 3.744300
2.997400 3.810400
3.011900 3.932900
3.026400 4.066800
3.040900 4.157900
3.055400 4.165900
3.070000 4.090300
3.084500 4.142500
3.099000 4.233400
3.113500 4.445500
3.128000 4.253000
3.142500 4.371300
3.157000 4.026300
3.171500 3.907800
3.186000 3.855700
3.200600 3.877300
3.215100 4.025100
3.229600 4.112300
3.244100 4.042500
3.258600 3.927100
3.273100 4.024800
3.287600 4.196600
3.302100 4.380900
3.316600 4.420400
3.331200 4.472600
3.345700 4.571400
3.360200 4.604900
3.374700 4.662600
3.389200 4.748100
3.403700 4.827200
3.418200 4.902600
3.432700 4.917500
3.447200 4.904200
3.461800 4.854900
3.476300 4.774000
3.490800 4.662100
3.505300 4.623900
3.519800 4.655300
3.534300 4.763900
3.548800 4.879700
3.563300 4.910400
3.577800 5.039900
3.592400 4.879000
3.606900 4.794100
3.621400 4.723200
3.635900 4.654600
3.650400 4.594000
3.664900 4.533200
3.679400 4.475700
3.693900 4.479000
3.708400 4.562000
3.723000 4.726800
3.737500 4.814400
3.752000 4.736400
3.766500 4.865600
3.781000 4.974400
3.795500 5.032500
3.810000 5.043200
3.824500 4.995200
3.839000 4.888000
3.853600 4.752500
3.868100 4.646500
3.882600 4.575000
3.897100 4.521100
3.911600 4.422100
3.926100 4.320400
3.940600 4.364300
3.955100 4.395300
3.969600 4.404000
3.984200 4.419800
3.998700 4.372900
4.013200 4.406600
4.027700 4.361500
4.042200 4.316200
4.056700 4.267500
4.071200 4.259200
4.085700 4.244100
4.100200 4.226700
4.114800 4.201600
4.129300 4.196000
4.143800 4.278400
4.158300 4.336800
4.172800 4.468800
4.187300 4.605600
4.201800 4.716700
4.216300 4.860000
4.230800 4.851200
4.245400 4.964700
4.259900 5.117300
4.274400 4.944100
4.288900 4.814300
4.303400 4.765900
4.317900 4.743100
4.332400 4.667600
4.346900 4.539700
4.361400 4.402400
4.376000 4.274300
4.390500 4.254900
4.405000 4.231200
4.419500 4.136200
4.434000 3.938200
4.448500 3.708200
4.463000 3.522900
4.477500 3.355600
4.492000 3.231400
4.506600 3.219900
4.521100 3.225500
4.535600 3.197100
4.550100 3.167300
4.564600 3.205200
4.579100 3.229000
4.593600 3.163200
4.608100 3.187800
4.622600 3.245700
4.637200 3.326800
4.651700 3.410900
4.666200 3.554900
4.680700 3.666500
4.695200 3.731400
4.709700 3.872600
4.724200 3.975200
4.738700 3.950500
4.753200 3.895200
4.767800 3.820400
4.782300 3.756600
4.796800 3.733900
4.811300 3.710600
4.825800 3.728000
4.840300 3.671900
4.854800 3.393500
4.869300 3.217100
4.883800 3.182800
4.898400 3.141000
4.912900 3.075300
4.927400 3.021000
4.941900 2.991400
4.956400 2.955300
4.970900 2.900800
4.985400 2.821000
4.999900 2.697900
5.014400 2.638900
5.029000 2.570900
5.043500 2.474000
5.058000 2.386400
5.072500 2.340600
5.087000 2.311100
5.101500 2.285900
5.116000 2.267800
5.130500 2.258600
5.145000 2.245100
5.159600 2.224300
5.174100 2.200200
5.188600 2.124500
5.203100 2.061800
5.217600 2.004500
5.232100 1.965800
5.246600 1.937700
5.261100 1.917500
5.275600 1.903400
5.290200 1.885100
5.304700 1.869500
5.319200 1.855800
5.333700 1.841700
5.348200 1.814000
5.362700 1.797500
5.377200 1.779400
5.391700 1.772200
5.406200 1.765200
5.420800 1.757900
5.435300 1.747700
5.449800 1.701700
5.464300 1.601300
5.478800 1.503700
5.493300 1.440600
5.507800 1.392000
5.522300 1.373100
5.536800 1.363500
5.551400 1.364300
5.565900 1.344000
5.580400 1.308800
5.594900 1.292900
5.609400 1.290700
5.623900 1.293500
5.638400 1.300300
5.652900 1.310100
5.667400 1.317900
5.682000 1.331500
5.696500 1.346800
5.711000 1.365700
5.725500 1.384200
5.740000 1.393300
5.754500 1.394200
5.769000 1.392100
5.783500 1.388300
5.798000 1.378700
5.812600 1.361100
5.827100 1.344700
5.841600 1.331200
5.856100 1.332300
5.870600 1.375500
5.885100 1.505300
5.899600 1.617400
5.914100 1.674200
5.928600 1.711700
5.943200 1.739200
5.957700 1.752900
5.972200 1.738400
5.986700 1.762300
6.001200 1.822000
6.015700 1.880600
6.030200 1.940500
6.044700 2.006900
6.059200 2.081100
6.073800 2.166900
6.088300 2.250100
6.102800 2.313700
6.117300 2.354900
6.131800 2.375300
6.146300 2.369100
6.160800 2.339400
6.175300 2.289400
6.189800 2.215700
6.204400 2.115100
6.218900 2.042600
6.233400 2.023100
6.247900 2.010600
6.262400 2.004200
6.276900 2.003300
6.291400 2.009400
6.305900 2.020700
6.320400 2.038000
6.335000 2.061900
6.349500 2.093400
6.364000 2.126400
6.378500 2.155300
6.393000 2.185800
6.407500 2.218800
6.422000 2.448200
6.436500 2.422700
6.451000 2.376900
6.465600 2.391800
6.480100 2.412800
6.494600 2.434500
6.509100 2.468000
6.523600 2.511500
6.538100 2.553000
6.552600 2.604400
6.567100 2.691500
6.581600 2.793200
6.596200 2.885500
6.610700 3.010400
6.625200 3.189100
6.639700 3.378100
6.654200 3.541900
6.668700 3.690100
6.683200 3.862900
6.697700 4.073700
6.712200 4.319500
6.726800 4.386500
6.741300 4.367300
6.755800 4.261400
6.770300 4.157000
6.784800 4.055500
6.799300 4.011000
6.813800 3.963100
6.828300 3.945500
6.842800 3.870700
6.857400 3.725400
6.871900 3.690500
6.886400 3.672300
6.900900 3.612200
6.915400 3.487600
6.929900 3.417500
6.944400 3.568200
6.958900 3.680000
6.973400 3.726400
6.988000 3.789000
7.002500 3.847300
7.017000 4.026800
7.031500 4.138100
7.046000 4.199100
7.060500 4.286000
7.075000 4.368700
7.089500 4.462900
7.104000 4.623500
7.118600 4.885200
7.133100 4.849900
7.147600 4.805400
7.162100 4.793200
7.176600 4.817500
7.191100 4.728100
7.205600 4.629300
7.220100 4.663300
7.234600 4.580400
7.249200 4.571200
7.263700 4.559400
7.278200 4.601600
7.292700 4.644000
7.307200 4.626300
7.321700 4.552500
7.336200 4.527900
7.350700 4.445700
7.365200 4.385400
7.379800 4.347100
7.394300 4.330600
7.408800 4.294200
7.423300 4.296800
7.437800 4.345200
7.452300 4.430800
7.466800 4.523200
7.481300 4.579600
7.495800 4.648000
7.510400 4.495300
7.524900 4.428100
7.539400 4.521800
7.553900 4.750700
7.568400 4.728700
7.582900 4.614900
7.597400 4.626800
7.611900 4.848900
7.626400 4.953000
7.641000 4.909400
7.655500 4.893500
7.670000 5.015700
7.684500 5.045200
7.699000 4.954100
7.713500 4.888200
7.728000 4.892100
7.742500 4.966600
7.757000 5.178900
7.771600 5.323200
7.786100 4.976200
7.800600 4.714400
7.815100 4.578700
7.829600 4.406700
7.844100 4.287800
7.858600 4.243300
7.873100 4.169700
7.887600 4.111900
7.902200 4.187800
7.916700 4.411600
7.931200 4.597700
7.945700 4.678900
7.960200 4.684400
7.974700 4.703600
7.989200 4.659800
8.003700 4.508800
8.018200 4.284600
8.032800 4.091700
8.047300 4.078200
8.061800 4.169000
8.076300 4.314000
8.090800 4.536200
8.105300 5.039400
8.119800 5.568400
8.134300 5.740300
8.148800 5.875300
8.163400 5.829900
8.177900 5.519800
8.192400 5.099400
8.206900 4.538400
8.221400 4.121000
8.235900 3.911800
8.250400 3.843000
8.264900 3.796800
8.279400 3.712900
8.294000 3.788900
8.308500 3.812300
8.323000 3.711400
8.337500 3.739900
8.352000 3.798200
8.366500 3.796100
8.381000 3.796800
8.395500 3.866300
8.410000 3.889800
8.424600 3.930400
8.439100 3.994200
8.453600 4.195800
8.468100 4.358200
8.482600 4.547200
8.497100 4.753400
8.511600 4.791400
8.526100 4.809600
8.540600 4.877800
8.555200 4.921300
8.569700 4.879200
8.584200 4.748100
8.598700 4.506100
8.613200 4.355400
8.627700 4.207600
8.642200 4.173600
8.656700 4.296100
8.671200 4.503800
8.685800 4.569500
8.700300 4.551700
8.714800 4.627600
8.729300 4.754300
8.743800 4.893400
8.758300 4.805200
8.772800 4.855400
8.787300 4.861900
8.801800 4.834400
8.816400 4.671400
8.830900 4.737700
8.845400 4.878000
8.859900 5.082900
8.874400 5.444800
8.888900 5.790000
8.903400 5.599400
8.917900 5.467400
8.932400 5.513300
8.947000 5.684500
8.961500 5.700900
8.976000 5.702600
8.990500 5.734300
9.005000 5.771000
9.019500 5.580800
9.034000 5.400300
9.048500 5.325700
9.063000 5.205300
9.077600 5.076900
9.092100 4.841300
9.106600 4.685700
9.121100 4.567500
9.135600 4.533700
9.150100 4.567600
9.164600 4.562000
9.179100 4.389700
9.193600 4.334200
9.208200 4.345800
9.222700 4.410800
9.237200 4.550200
9.251700 4.745200
9.266200 4.922200
9.280700 5.048700
9.295200 5.026400
9.309700 5.004600
9.324200 4.957100
9.338800 4.979300
9.353300 5.138700
9.367800 5.272700
9.382300 5.400400
9.396800 5.389800
9.411300 5.342100
9.425800 5.274000
9.440300 5.254300
9.454800 5.343000
9.469400 5.376900
9.483900 5.388300
9.498400 5.330400
9.512900 5.250400
9.527400 5.110100
9.541900 4.779800
9.556400 4.720600
9.570900 4.751700
9.585400 4.716000
9.600000 4.724500
9.614500 4.754900
9.629000 4.746600
9.643500 4.754400
9.658000 4.783200
9.672500 4.798900
9.687000 4.938400
9.701500 5.179800
9.716000 5.010500
9.730600 5.056000
9.745100 5.150300
9.759600 5.337600
9.774100 5.432300
9.788600 5.689600
9.803100 5.954700
9.817600 6.105400
9.832100 6.142500
9.846600 6.132600
9.861200 6.116300
9.875700 6.067800
9.890200 5.579400
9.904700 5.167100
9.919200 4.982000
9.933700 4.995300
9.948200 4.922500
9.962700 4.871000
9.977200 4.944800
9.991800 5.012700
10.006300 5.146700
10.020800 5.302300
10.035300 5.330400
10.049800 5.351500
10.064300 5.397300
10.078800 5.523500
10.093300 5.697300
10.107800 5.935100
10.122400 6.058300
10.136900 6.061300
10.151400 5.908900
10.165900 5.688700
10.180400 5.533700
10.194900 5.373400
10.209400 5.246000
10.223900 5.122000
10.238400 4.931300
10.253000 4.715700
10.267500 4.590000
10.282000 4.476600
10.296500 4.307300
10.311000 4.185200
10.325500 4.146200
10.340000 3.993600
10.354500 3.879000
10.369000 3.823400
10.383600 3.796600
10.398100 3.818100
10.412600 3.856300
10.427100 3.895100
10.441600 3.981000
10.456100 4.090200
10.470600 4.167900
10.485100 4.185600
10.499600 4.154500
10.514200 4.227500
10.528700 4.323800
10.543200 4.418600
10.557700 4.536300
10.572200 4.634700
10.586700 4.717000
10.601200 4.798900
10.615700 4.894100
10.630200 4.953200
10.644800 5.062600
10.659300 5.277800
10.673800 5.409300
10.688300 5.453200
10.702800 5.448500
10.717300 5.364700
10.731800 5.217300
10.746300 5.071000
10.760800 5.038200
10.775400 4.947200
10.789900 4.722600
10.804400 4.569000
10.818900 4.635200
10.833400 4.690400
10.847900 4.687500
10.862400 4.727400
10.876900 4.629200
10.891400 4.563200
10.906000 4.533600
10.920500 4.544500
10.935000 4.561300
10.949500 4.562400
10.964000 4.577300
10.978500 4.516200
10.993000 4.504800
11.007500 4.539200
11.022000 4.587800
11.036600 4.686300
11.051100 4.828500
11.065600 4.889400
11.080100 4.870100
11.094600 4.814400
11.109100 4.769000
11.123600 4.738800
11.138100 4.747800
11.152600 4.918800
11.167200 4.809700
11.181700 4.835500
11.196200 4.919900
11.210700 4.938700
11.225200 4.901100
11.239700 4.952600
11.254200 4.896700
11.268700 4.880400
11.283200 5.022900
11.297800 5.201500
11.312300 5.316400
11.326800 5.346800
11.341300 5.429700
11.355800 5.532300
11.370300 5.476100
11.384800 5.454400
11.399300 5.442300
11.413800 5.396100
11.428400 5.347500
11.442900 5.347900
11.457400 5.094800
11.471900 4.873100
11.486400 4.709400
11.500900 4.550200
11.515400 4.403500
11.529900 4.304700
11.544400 4.238100
11.559000 4.180900
11.573500 4.139200
11.588000 4.189700
11.602500 4.313800
11.617000 4.364400
11.631500 4.326700
11.646000 4.160500
11.660500 4.083800
11.675000 4.047300
11.689600 4.142200
11.704100 4.263600
11.718600 4.349300
11.733100 4.379100
11.747600 4.377400
11.762100 4.380700
11.776600 4.470400
11.791100 4.589300
11.805600 4.680300
11.820200 4.764800
11.834700 4.785500
11.849200 4.789700
11.863700 4.919700
11.878200 4.959800
11.892700 5.045400
11.907200 5.121300
11.921700 5.146500
11.936200 5.232200
11.950800 5.207700
11.965300 5.145600
11.979800 5.049400
11.994300 4.999400
12.008800 4.970400
12.023300 4.972400
12.037800 5.027300
12.052300 5.133900
12.066800 5.133500
12.081400 4.957400
12.095900 4.885700
12.110400 4.822600
12.124900 4.815400
12.139400 4.969900
12.153900 5.143400
12.168400 5.270100
12.182900 5.418000
12.197400 5.414700
12.212000 5.203100
12.226500 5.062700
12.241000 5.052400
12.255500 5.196900
12.270000 5.330600
12.284500 5.116100
12.299000 4.786200
12.313500 4.601500
12.328000 4.418100
12.342600 4.272300
12.357100 4.173500
12.371600 4.106600
12.386100 4.068900
12.400600 4.051500
12.415100 4.098200
12.429600 4.168300
12.444100 4.217400
12.458600 4.332000
12.473200 4.470100
12.487700 4.660400
12.502200 4.898100
12.516700 5.100200
12.531200 5.250400
12.545700 5.346000
12.560200 5.417200
12.574700 5.481700
12.589200 5.533200
12.603800 5.512500
12.618300 5.566600
12.632800 5.673600
12.647300 5.627900
12.661800 5.419900
12.676300 5.177600
12.690800 4.934500
12.705300 4.791500
12.719800 4.684700
12.734400 4.566000
12.748900 4.519900
12.763400 4.531400
12.777900 4.608100
12.792400 4.734200
12.806900 5.030900
12.821400 5.274000
12.835900 5.477000
12.850400 5.903300
12.865000 5.841800
12.879500 5.610100
12.894000 5.436100
12.908500 5.319000
12.923000 5.334400
12.937500 5.144500
12.952000 5.000500
12.966500 4.861700
12.981000 4.808000
12.995600 4.815100
13.010100 4.807700
13.024600 4.752000
13.039100 4.680200
13.053600 4.601300
13.068100 4.532000
13.082600 4.518200
13.097100 4.568200
13.111600 4.536100
13.126200 4.618800
13.140700 4.761400
13.155200 4.915000
13.169700 5.051300
13.184200 5.310600
13.198700 5.437400
13.213200 5.702500
13.227700 5.947700
13.242200 6.053200
13.256800 6.045100
13.271300 6.290100
13.285800 6.445200
13.300300 6.474000
13.314800 6.364400
13.329300 6.201800
13.343800 5.975600
13.358300 5.702000
13.372800 5.427500
13.387400 5.140400
13.401900 5.073800
13.416400 5.007600
13.430900 5.031200
13.445400 5.116600
13.459900 5.299100
13.474400 5.191500
13.488900 5.282600
13.503400 5.409700
13.518000 5.403900
13.532500 5.375500
13.547000 5.412200
13.561500 5.458300
13.576000 5.477700
13.590500 5.511600
13.605000 5.445800
13.619500 5.501600
13.634000 5.523600
13.648600 5.431000
13.663100 5.480400
13.677600 5.535700
13.692100 5.595700
13.706600 5.659000
13.721100 5.669500
13.735600 5.683800
13.750100 5.709400
13.764600 5.743300
13.779200 5.764800
13.793700 5.735300
13.808200 5.746400
13.822700 5.750700
13.837200 5.589000
13.851700 5.527600
13.866200 5.563900
13.880700 5.231000
13.895200 5.088100
13.909800 4.813900
13.924300 4.588300
13.938800 4.455700
13.953300 4.438100
13.967800 4.462200
13.982300 4.465900
13.996800 4.499100
14.011300 4.555600
14.025800 4.655300
14.040400 4.746300
14.054900 4.816600
14.069400 4.907700
14.083900 4.947800
14.098400 5.049600
14.112900 5.186500
14.127400 5.348100
14.141900 5.685200
14.156400 5.422000
14.171000 5.494900
14.185500 5.498000
14.200000 5.431300
14.214500 5.410800
14.229000 5.447900
14.243500 5.524500
14.258000 5.406500
14.272500 5.101400
14.287000 4.898100
14.301600 4.763800
14.316100 4.712700
14.330600 4.668700
14.345100 4.619100
14.359600 4.573800
14.374100 4.563700
14.388600 4.634700
14.403100 4.697800
14.417600 4.926600
14.432200 5.206200
14.446700 5.445000
14.461200 5.571300
14.475700 5.501500
14.490200 5.375700
14.504700 5.288600
14.519200 5.229200
14.533700 5.049800
14.548200 4.998200
14.562800 5.031100
14.577300 5.111200
14.591800 5.257200
14.606300 5.122700
14.620800 5.008000
14.635300 4.937300
14.649800 4.948100
14.664300 4.966900
14.678800 4.949600
14.693400 5.017800
14.707900 5.052500
14.722400 5.073500
14.736900 5.157400
14.751400 5.131600
14.765900 5.163100
14.780400 5.345200
14.794900 5.839800
14.809400 5.668300
14.824000 5.781700
14.838500 6.077500
14.853000 6.465600
14.867500 6.793900
14.882000 6.819700
14.896500 6.720700
14.911000 6.632800
14.925500 6.499500
14.940000 6.174600
14.954600 5.696400
14.969100 5.519800
14.983600 5.498600
14.998100 5.414500
15.012600 5.334500
15.027100 5.159200
15.041600 5.049500
15.056100 5.008000
15.070600 5.034600
15.085200 5.202400
15.099700 5.576200
15.114200 6.061200
15.128700 6.459700
15.143200 6.829300
15.157700 6.638000
15.172200 6.657500
15.186700 6.611200
15.201300 6.611300
15.215800 6.205800
15.230300 6.153600
15.244800 6.125000
15.259300 6.129300
15.273800 6.047100
15.288300 5.844700
15.302800 5.601700
15.317300 5.488200
15.331900 5.304600
15.346400 5.015200
15.360900 4.880900
15.375400 4.813400
15.389900 4.724800
15.404400 4.716700
15.418900 4.800400
15.433400 4.871900
15.447900 4.841800
15.462500 4.964100
15.477000 5.088500
15.491500 5.215500
15.506000 5.410200
15.520500 5.587900
15.535000 5.745200
15.549500 5.743200
15.564000 5.690000
15.578500 5.582200
15.593100 5.506300
15.607600 5.498400
15.622100 5.505400
15.636600 5.544600
15.651100 5.616000
15.665600 5.621800
15.680100 5.554900
15.694600 5.391900
15.709100 5.347800
15.723700 5.264600
15.738200 5.181900
15.752700 5.135600
15.767200 5.136100
15.781700 5.129300
15.796200 5.144600
15.810700 5.195100
15.825200 5.306700
15.839700 5.397900
15.854300 5.501700
15.868800 5.704200
15.883300 5.884500
15.897800 6.018500
15.912300 6.150700
15.926800 6.301000
15.941300 6.388300
15.955800 6.335100
15.970300 6.229400
15.984900 6.191100
15.999400 6.089000
16.013900 5.997200
16.028400 5.910300
16.042900 5.737000
16.057400 5.643600
16.071900 5.696400
16.086400 5.718900
16.100900 5.691400
16.115500 5.619100
16.130000 5.623300
16.144500 5.711200
16.159000 5.803400
16.173500 5.854400
16.188000 5.822800
16.202500 5.838700
16.217000 5.895300
16.231500 5.924700
16.246100 5.907800
16.260600 5.779000
16.275100 5.655000
16.289600 5.604500
16.304100 5.678200
16.318600 5.776200
16.333100 5.867100
16.347600 5.862900
16.362100 5.839600
16.376700 5.841100
16.391200 6.002700
16.405700 5.870800
16.420200 5.784000
16.434700 5.917500
16.449200 5.992500
16.463700 6.084600
16.478200 6.166200
16.492700 6.093900
16.507300 5.950000
16.521800 5.849400
16.536300 5.719000
16.550800 5.584800
16.565300 5.414400
16.579800 5.334800
16.594300 5.371400
16.608800 5.315900
16.623300 5.208800
16.637900 5.168900
16.652400 5.126000
16.666900 5.340500
16.681400 5.465200
16.695900 5.358900
16.710400 5.315200
16.724900 5.302500
16.739400 5.305400
16.753900 5.371500
16.768500 5.434700
16.783000 5.524400
16.797500 5.675300
16.812000 5.871300
16.826500 6.001600
16.841000 5.988700
16.855500 6.115500
16.870000 5.953100
16.884500 5.938800
16.899100 6.000700
16.913600 6.114700
16.928100 6.235300
16.942600 6.213400
16.957100 6.160900
16.971600 6.082600
16.986100 6.075400
17.000600 6.151500
17.015100 6.204800
17.029700 6.041600
17.044200 6.015200
17.058700 5.875100
17.073200 5.448100
17.087700 5.292400
17.102200 5.152300
17.116700 5.088700
17.131200 5.126400
17.145700 5.199700
17.160300 5.185100
17.174800 5.192100
17.189300 5.218800
17.203800 5.318900
17.218300 5.585300
17.232800 5.836800
17.247300 5.984100
17.261800 6.215700
17.276300 6.386400
17.290900 6.463700
17.305400 6.492500
17.319900 6.490000
17.334400 6.427700
17.348900 6.595800
17.363400 6.716700
17.377900 6.480600
17.392400 6.187800
17.406900 5.887900
17.421500 5.653200
17.436000 5.488600
17.450500 5.457200
17.465000 5.247700
17.479500 4.933000
17.494000 4.798600
17.508500 4.722700
17.523000 4.776600
17.537500 4.982900
17.552100 5.311200
17.566600 5.631600
17.581100 5.891400
17.595600 5.993200
17.610100 6.154800
17.624600 6.037400
17.639100 6.097300
17.653600 6.170700
17.668100 6.330500
17.682700 6.309100
17.697200 6.280100
17.711700 6.230900
17.726200 6.246400
17.740700 6.254800
17.755200 6.272300
17.769700 6.236900
17.784200 6.221400
17.798700 6.118600
17.813300 5.879700
17.827800 5.556700
17.842300 5.310400
17.856800 5.213000
17.871300 5.162700
17.885800 5.122300
17.900300 5.084400
17.914800 5.078200
17.929300 5.089800
17.943900 5.117100
17.958400 5.236900
17.972900 5.395700
17.987400 5.588100
18.001900 5.822500
18.016400 6.135900
18.030900 6.346600
18.045400 6.514800
18.059900 6.654800
18.074500 6.620600
18.089000 6.506900
18.103500 6.636000
18.118000 6.503800
18.132500 6.203300
18.147000 6.014400
18.161500 5.902100
18.176000 5.816500
18.190500 5.923500
18.205100 5.892300
18.219600 5.816900
18.234100 5.717500
18.248600 5.635400
18.263100 5.593100
18.277600 5.663700
18.292100 5.611500
18.306600 5.513800
18.321100 5.340100
18.335700 5.254100
18.350200 5.180700
18.364700 5.123000
18.379200 5.020000
18.393700 4.967300
18.408200 4.725300
18.422700 4.450700
18.437200 4.224200
18.451700 4.016200
18.466300 3.828400
18.480800 3.647800
18.495300 3.445400
18.509800 3.198000
18.524300 2.992000
18.538800 2.811700
18.553300 2.601100
18.567800 2.391800
18.582300 2.238400
18.596900 2.104800
18.611400 1.981000
18.625900 1.849500
18.640400 1.747400
18.654900 1.681400
18.669400 1.623600
18.683900 1.555900
18.698400 1.435700
18.712900 1.321800
18.727500 1.175300
18.742000 1.077300
18.756500 0.967100
18.771000 0.877400
18.785500 0.768500
18.800000 0.675900
18.814500 0.607900
18.829000 0.546500
18.843500 0.485900
18.858100 0.424100
18.872600 0.361800
18.887100 0.303800
18.901600 0.250000
18.916100 0.199100
18.930600 0.149500
18.945100 0.105300
18.959600 0.074800
18.974100 0.058100
18.988700 0.050800
19.003200 0.044300
19.017700 0.038200
19.032200 0.032600
19.046700 0.027400
19.061200 0.022700
19.075700 0.018400
19.090200 0.014600
19.104700 0.011200
19.119300 0.008300
19.133800 0.005800
19.148300 0.003700
19.162800 0.002100
19.177300 0.001000
19.191800 0.000300
19.206300 0.000000
19.220800 0.000000
19.235300 0.000000
19.249900 0.000000
19.264400 0.000000
19.278900 0.000000
19.293400 0.000000
19.307900 0.000000
19.322400 0.000000
19.336900 0.000000
19.351400 0.000000
19.365900 0.000000
19.380500 0.000000
19.395000 0.000000
19.409500 0.000000
19.424000 0.000000
19.438500 0.000000
19.453000 0.000000
19.467500 0.000000
19.482000 0.000000
19.496500 0.000000
19.511100 0.000000
19.525600 0.000000
19.540100 0.000000
19.554600 0.000000
19.569100 0.000000
19.583600 0.000000
19.598100 0.000000
19.612600 0.000000
19.627100 0.000000
19.641700 0.000000
19.656200 0.000000
19.670700 0.000000
19.685200 0.000000
19.699700 0.000000
19.714200 0.000000
19.728700 0.000000
19.743200 0.000000
19.757700 0.000000
19.772300 0.000000
19.786800 0.000000
19.801300 0.000000
19.815800 0.000000
19.830300 0.000000
19.844800 0.000000
19.859300 0.000000
19.873800 0.000000
19.888300 0.000000
19.902900 0.000000
19.917400 0.000000
19.931900 0.000000
19.946400 0.000000
19.960900 0.000000
19.975400 0.000000
19.989900 0.000000
20.004400 0.000000
20.018900 0.000000
20.033500 0.000000
20.048000 0.000000
20.062500 0.000000
20.077000 0.000000
20.091500 0.000000
20.106000 0.000000
20.120500 0.000000
20.135000 0.000000
20.149500 0.000000
20.164100 0.000000
20.178600 0.000000
20.193100 0.000000
20.207600 0.000000
20.222100 0.000000
20.236600 0.000000
20.251100 0.000000
20.265600 0.000000
20.280100 0.000000
20.294700 0.000000
20.309200 0.000000
20.323700 0.000000
20.338200 0.000000
20.352700 0.000000
20.367200 0.000000
20.381700 0.000000
20.396200 0.000000
20.410700 0.000000
20.425300 0.000000
20.439800 0.000000
20.454300 0.000000
20.468800 0.000000
20.483300 0.000000
20.497800 0.000000
20.512300 0.000000
20.526800 0.000000
e
