set title 'mp-142 - Density of States'
set xlabel 'Energy (eV)'
set ylabel 'DOS (states/eV)'
set grid
set xrange [-10:10]
set yrange [0:2.712]
set xzeroaxis lt -1
set terminal png size 800,600
set output 'mp-142_dos_gnuplot.png'
plot '-' using 1:2 with lines title 'DOS'
-15.053500 0.000000
-15.023100 0.000000
-14.992700 0.000000
-14.962300 0.000000
-14.931900 0.000000
-14.901400 0.000000
-14.871000 0.000000
-14.840600 0.000000
-14.810200 0.000000
-14.779800 0.000000
-14.749400 0.000000
-14.718900 0.000000
-14.688500 0.000000
-14.658100 0.000000
-14.627700 0.000000
-14.597300 0.000000
-14.566900 0.000000
-14.536400 0.000000
-14.506000 0.000000
-14.475600 0.000000
-14.445200 0.000000
-14.414800 0.000000
-14.384400 0.000000
-14.353900 0.000000
-14.323500 0.000000
-14.293100 0.000000
-14.262700 0.000000
-14.232300 0.000000
-14.201900 0.000000
-14.171500 0.000000
-14.141000 0.000000
-14.110600 0.000000
-14.080200 0.000000
-14.049800 0.000000
-14.019400 0.000000
-13.989000 0.000000
-13.958500 0.000000
-13.928100 0.000000
-13.897700 0.000000
-13.867300 0.000000
-13.836900 0.000000
-13.806500 0.000000
-13.776000 0.000000
-13.745600 0.000000
-13.715200 0.000000
-13.684800 0.000000
-13.654400 0.000000
-13.624000 0.000000
-13.593500 0.000000
-13.563100 0.000000
-13.532700 0.000000
-13.502300 0.000000
-13.471900 0.000000
-13.441500 0.000000
-13.411000 0.000000
-13.380600 0.000000
-13.350200 0.000000
-13.319800 0.000000
-13.289400 0.000000
-13.259000 0.000000
-13.228600 0.000000
-13.198100 0.000000
-13.167700 0.000000
-13.137300 0.000000
-13.106900 0.000000
-13.076500 0.000000
-13.046100 0.000000
-13.015600 0.000000
-12.985200 0.000000
-12.954800 0.000000
-12.924400 0.000000
-12.894000 0.000000
-12.863600 0.000000
-12.833100 0.000000
-12.802700 0.000000
-12.772300 0.000000
-12.741900 0.000000
-12.711500 0.000000
-12.681100 0.000000
-12.650600 0.000000
-12.620200 0.000000
-12.589800 0.000000
-12.559400 0.000000
-12.529000 0.000000
-12.498600 0.000000
-12.468100 0.000000
-12.437700 0.000000
-12.407300 0.000000
-12.376900 0.000000
-12.346500 0.000000
-12.316100 0.000000
-12.285600 9.530600
-12.255200 36.295000
-12.224800 104.348600
-12.194400 81.983300
-12.164000 116.949700
-12.133600 84.278800
-12.103200 63.415000
-12.072700 33.040100
-12.042300 59.787400
-12.011900 50.412200
-11.981500 81.022700
-11.951100 79.737700
-11.920700 103.637700
-11.890200 80.112500
-11.859800 52.931500
-11.829400 91.669200
-11.799000 116.263600
-11.768600 67.571900
-11.738200 32.300400
-11.707700 0.000000
-11.677300 0.000000
-11.646900 0.000000
-11.616500 0.000000
-11.586100 0.000000
-11.555700 0.000000
-11.525200 0.000000
-11.494800 0.000000
-11.464400 0.000000
-11.434000 0.000000
-11.403600 0.000000
-11.373200 0.000000
-11.342700 0.000000
-11.312300 0.000000
-11.281900 0.000000
-11.251500 0.000000
-11.221100 0.000000
-11.190700 0.000000
-11.160300 0.000000
-11.129800 0.000000
-11.099400 0.000000
-11.069000 0.000000
-11.038600 0.000000
-11.008200 0.000000
-10.977800 0.000000
-10.947300 0.000000
-10.916900 0.000000
-10.886500 0.000000
-10.856100 0.000000
-10.825700 0.000000
-10.795300 0.000000
-10.764800 0.000000
-10.734400 0.000000
-10.704000 0.000000
-10.673600 0.000000
-10.643200 0.000000
-10.612800 0.000000
-10.582300 0.000000
-10.551900 0.000000
-10.521500 0.000000
-10.491100 0.000000
-10.460700 0.000000
-10.430300 0.000000
-10.399800 0.000000
-10.369400 0.000000
-10.339000 0.000000
-10.308600 0.000000
-10.278200 0.000000
-10.247800 0.000000
-10.217400 0.000000
-10.186900 0.000000
-10.156500 0.000000
-10.126100 0.000000
-10.095700 0.000000
-10.065300 0.000000
-10.034900 0.000000
-10.004400 0.000000
-9.974000 0.000000
-9.943600 0.000000
-9.913200 0.000000
-9.882800 0.000000
-9.852400 0.000000
-9.821900 0.000000
-9.791500 0.000000
-9.761100 0.000000
-9.730700 0.000000
-9.700300 0.000000
-9.669900 0.000000
-9.639400 0.000000
-9.609000 0.000000
-9.578600 0.000000
-9.548200 0.000000
-9.517800 0.000000
-9.487400 0.000000
-9.456900 0.000000
-9.426500 0.000000
-9.396100 0.000000
-9.365700 0.000000
-9.335300 0.000000
-9.304900 0.000000
-9.274400 0.000000
-9.244000 0.000000
-9.213600 0.000000
-9.183200 0.000000
-9.152800 0.000000
-9.122400 0.000000
-9.092000 0.000000
-9.061500 0.000000
-9.031100 0.000000
-9.000700 0.000000
-8.970300 0.000000
-8.939900 0.000000
-8.909500 0.000000
-8.879000 0.000000
-8.848600 0.000000
-8.818200 0.000000
-8.787800 0.000000
-8.757400 0.000000
-8.727000 0.000000
-8.696500 0.000000
-8.666100 0.000000
-8.635700 0.000000
-8.605300 0.000000
-8.574900 0.000000
-8.544500 0.000000
-8.514000 0.000000
-8.483600 0.000000
-8.453200 0.000000
-8.422800 0.000000
-8.392400 0.000000
-8.362000 0.000000
-8.331500 0.000000
-8.301100 0.000000
-8.270700 0.000000
-8.240300 0.000000
-8.209900 0.000000
-8.179500 0.000000
-8.149100 0.000000
-8.118600 0.000000
-8.088200 0.000000
-8.057800 0.000000
-8.027400 0.000000
-7.997000 0.000000
-7.966600 0.000000
-7.936100 0.000000
-7.905700 0.012500
-7.875300 0.068700
-7.844900 0.151500
-7.814500 0.173800
-7.784100 0.178100
-7.753600 0.206000
-7.723200 0.235200
-7.692800 0.265600
-7.662400 0.290400
-7.632000 0.302300
-7.601600 0.307700
-7.571100 0.319700
-7.540700 0.335000
-7.510300 0.351100
-7.479900 0.367100
-7.449500 0.383000
-7.419100 0.399700
-7.388600 0.417000
-7.358200 0.429800
-7.327800 0.437300
-7.297400 0.446000
-7.267000 0.456500
-7.236600 0.466600
-7.206200 0.476600
-7.175700 0.486800
-7.145300 0.497400
-7.114900 0.508900
-7.084500 0.521200
-7.054100 0.533800
-7.023700 0.546700
-6.993200 0.559400
-6.962800 0.570600
-6.932400 0.580100
-6.902000 0.588000
-6.871600 0.596500
-6.841200 0.605200
-6.810700 0.614500
-6.780300 0.624000
-6.749900 0.633700
-6.719500 0.643800
-6.689100 0.654200
-6.658700 0.665100
-6.628200 0.676200
-6.597800 0.687600
-6.567400 0.699200
-6.537000 0.711000
-6.506600 0.723700
-6.476200 0.737700
-6.445700 0.760800
-6.415300 0.820100
-6.384900 0.875500
-6.354500 0.862100
-6.324100 0.888600
-6.293700 0.895600
-6.263200 0.893000
-6.232800 0.886700
-6.202400 0.879900
-6.172000 0.876800
-6.141600 0.878200
-6.111200 0.872200
-6.080800 0.856500
-6.050300 0.848000
-6.019900 0.846700
-5.989500 0.846300
-5.959100 0.844400
-5.928700 0.840400
-5.898300 0.843900
-5.867800 0.848800
-5.837400 0.844400
-5.807000 0.837700
-5.776600 0.877700
-5.746200 0.928400
-5.715800 0.910200
-5.685300 0.926900
-5.654900 0.948600
-5.624500 0.969800
-5.594100 0.974800
-5.563700 0.964800
-5.533300 0.942900
-5.502800 0.915600
-5.472400 0.892000
-5.442000 0.873500
-5.411600 0.855600
-5.381200 0.838800
-5.350800 0.812600
-5.320300 0.795200
-5.289900 0.792600
-5.259500 0.789200
-5.229100 0.788400
-5.198700 0.790800
-5.168300 0.795100
-5.137900 0.801600
-5.107400 0.810600
-5.077000 0.822300
-5.046600 0.831200
-5.016200 0.827900
-4.985800 0.834400
-4.955400 0.858400
-4.924900 0.888600
-4.894500 0.938200
-4.864100 0.960800
-4.833700 0.958100
-4.803300 0.947200
-4.772900 0.941000
-4.742400 0.934600
-4.712000 0.930100
-4.681600 0.910300
-4.651200 0.909800
-4.620800 0.910800
-4.590400 0.913500
-4.559900 0.918100
-4.529500 0.942000
-4.499100 0.944900
-4.468700 0.951500
-4.438300 0.962300
-4.407900 0.977000
-4.377400 1.001600
-4.347000 1.051400
-4.316600 1.068600
-4.286200 1.090900
-4.255800 1.096000
-4.225400 1.128700
-4.195000 1.186300
-4.164500 1.229400
-4.134100 1.386000
-4.103700 1.142100
-4.073300 1.182000
-4.042900 1.174400
-4.012500 1.196700
-3.982000 1.218800
-3.951600 1.268000
-3.921200 1.289200
-3.890800 1.279600
-3.860400 1.316200
-3.830000 1.335000
-3.799500 1.242800
-3.769100 1.186600
-3.738700 1.143400
-3.708300 1.110200
-3.677900 1.058900
-3.647500 0.974400
-3.617000 0.963700
-3.586600 0.959600
-3.556200 0.935300
-3.525800 0.837700
-3.495400 0.803500
-3.465000 0.734500
-3.434500 0.700900
-3.404100 0.674900
-3.373700 0.646500
-3.343300 0.632900
-3.312900 0.726900
-3.282500 0.827800
-3.252100 0.767500
-3.221600 0.807200
-3.191200 0.852600
-3.160800 1.056800
-3.130400 1.011500
-3.100000 1.040400
-3.069600 1.090100
-3.039100 1.147300
-3.008700 1.154700
-2.978300 1.134200
-2.947900 1.119200
-2.917500 1.134900
-2.887100 1.199500
-2.856600 1.224200
-2.826200 1.240900
-2.795800 1.236300
-2.765400 1.205100
-2.735000 1.196200
-2.704600 1.182800
-2.674100 1.168700
-2.643700 1.165100
-2.613300 1.168400
-2.582900 1.176000
-2.552500 1.237100
-2.522100 1.334100
-2.491600 1.409800
-2.461200 1.430000
-2.430800 1.374400
-2.400400 1.321200
-2.370000 1.310000
-2.339600 1.301800
-2.309100 1.305800
-2.278700 1.377200
-2.248300 1.332400
-2.217900 1.318700
-2.187500 1.323000
-2.157100 1.319100
-2.126700 1.319100
-2.096200 1.331000
-2.065800 1.324700
-2.035400 1.290000
-2.005000 1.277000
-1.974600 1.264200
-1.944200 1.254700
-1.913700 1.271500
-1.883300 1.289400
-1.852900 1.274100
-1.822500 1.258400
-1.792100 1.250700
-1.761700 1.248300
-1.731200 1.242600
-1.700800 1.234000
-1.670400 1.226900
-1.640000 1.221600
-1.609600 1.219100
-1.579200 1.214700
-1.548700 1.201100
-1.518300 1.177200
-1.487900 1.162100
-1.457500 1.148300
-1.427100 1.131400
-1.396700 1.112600
-1.366200 1.081500
-1.335800 1.058600
-1.305400 1.039800
-1.275000 1.019000
-1.244600 0.998400
-1.214200 0.979500
-1.183800 0.959500
-1.153300 0.978700
-1.122900 0.980500
-1.092500 0.967400
-1.062100 0.959800
-1.031700 0.946400
-1.001300 0.929300
-0.970800 0.911200
-0.940400 0.896600
-0.910000 0.888500
-0.879600 0.883100
-0.849200 0.878000
-0.818800 0.879100
-0.788300 0.881700
-0.757900 0.878800
-0.727500 0.870400
-0.697100 0.864600
-0.666700 0.861600
-0.636300 0.854100
-0.605800 0.852800
-0.575400 0.972000
-0.545000 1.006600
-0.514600 1.056300
-0.484200 1.152800
-0.453800 1.242700
-0.423300 1.281500
-0.392900 1.304600
-0.362500 1.339800
-0.332100 1.371700
-0.301700 1.399500
-0.271300 1.412900
-0.240900 1.439500
-0.210400 1.474800
-0.180000 1.475700
-0.149600 1.503800
-0.119200 1.541600
-0.088800 1.543100
-0.058400 1.501900
-0.027900 1.454400
0.002500 1.417800
0.032900 1.391200
0.063300 1.362500
0.093700 1.337000
0.124100 1.316500
0.154600 1.301900
0.185000 1.285700
0.215400 1.277000
0.245800 1.274500
0.276200 1.278200
0.306600 1.287400
0.337100 1.302900
0.367500 1.321700
0.397900 1.343000
0.428300 1.363800
0.458700 1.371400
0.489100 1.383800
0.519600 1.354600
0.550000 1.350900
0.580400 1.355400
0.610800 1.361500
0.641200 1.376900
0.671600 1.397000
0.702100 1.403100
0.732500 1.416200
0.762900 1.433300
0.793300 1.451100
0.823700 1.469800
0.854100 1.490200
0.884500 1.512500
0.915000 1.540100
0.945400 1.574400
0.975800 1.613200
1.006200 1.614800
1.036600 1.612100
1.067000 1.622800
1.097500 1.657300
1.127900 1.708600
1.158300 1.772100
1.188700 1.849800
1.219100 1.931600
1.249500 2.043600
1.280000 2.083900
1.310400 2.110200
1.340800 2.142700
1.371200 2.181500
1.401600 2.202400
1.432000 2.180600
1.462500 2.177700
1.492900 2.186300
1.523300 2.196500
1.553700 2.206700
1.584100 2.234700
1.614500 2.273300
1.645000 2.257600
1.675400 2.226300
1.705800 2.199700
1.736200 2.180700
1.766600 2.130800
1.797000 2.056500
1.827400 1.983400
1.857900 1.922600
1.888300 1.851200
1.918700 1.791000
1.949100 1.731900
1.979500 1.667300
2.009900 1.611000
2.040400 1.567200
2.070800 1.531900
2.101200 1.507800
2.131600 1.495000
2.162000 1.485400
2.192400 1.486800
2.222900 1.520400
2.253300 1.585400
2.283700 1.621700
2.314100 1.640300
2.344500 1.643300
2.374900 1.621400
2.405400 1.587900
2.435800 1.521500
2.466200 1.435400
2.496600 1.332800
2.527000 1.248100
2.557400 1.161500
2.587900 1.100300
2.618300 1.040900
2.648700 0.993200
2.679100 0.931300
2.709500 0.874200
2.739900 0.791200
2.770300 0.733800
2.800800 0.711700
2.831200 0.681200
2.861600 0.636000
2.892000 0.604800
2.922400 0.572400
2.952800 0.542700
2.983300 0.497500
3.013700 0.440600
3.044100 0.408200
3.074500 0.396700
3.104900 0.405400
3.135300 0.431900
3.165800 0.476700
3.196200 0.537900
3.226600 0.608400
3.257000 0.691600
3.287400 0.738300
3.317800 0.786500
3.348300 0.873700
3.378700 1.011400
3.409100 1.193200
3.439500 1.397100
3.469900 1.591400
3.500300 1.716300
3.530800 1.778000
3.561200 1.780100
3.591600 1.753100
3.622000 1.744000
3.652400 1.767000
3.682800 1.820200
3.713300 1.904300
3.743700 1.991000
3.774100 2.098700
3.804500 2.223000
3.834900 2.290600
3.865300 2.307400
3.895700 2.320700
3.926200 2.347700
3.956600 2.382700
3.987000 2.398700
4.017400 2.391900
4.047800 2.371900
4.078200 2.385100
4.108700 2.322100
4.139100 2.263800
4.169500 2.211500
4.199900 2.100800
4.230300 2.013800
4.260700 1.966900
4.291200 1.919600
4.321600 1.880400
4.352000 1.856500
4.382400 1.816500
4.412800 1.768400
4.443200 1.860800
4.473700 1.692800
4.504100 1.696100
4.534500 1.656100
4.564900 1.626900
4.595300 1.599400
4.625700 1.585800
4.656200 1.577200
4.686600 1.567300
4.717000 1.553500
4.747400 1.536000
4.777800 1.524100
4.808200 1.505800
4.838600 1.482200
4.869100 1.504900
4.899500 1.478800
4.929900 1.455900
4.960300 1.459300
4.990700 1.476200
5.021100 1.525900
5.051600 1.543600
5.082000 1.576200
5.112400 1.669800
5.142800 1.757900
5.173200 1.841000
5.203600 1.897600
5.234100 1.690800
5.264500 1.661800
5.294900 1.702300
5.325300 1.745600
5.355700 1.802000
5.386100 1.803700
5.416600 1.774100
5.447000 1.720800
5.477400 1.732200
5.507800 1.759800
5.538200 1.791800
5.568600 1.825400
5.599100 1.888600
5.629500 1.975700
5.659900 2.085600
5.690300 2.128900
5.720700 2.188300
5.751100 2.252800
5.781500 2.248900
5.812000 2.232200
5.842400 2.186100
5.872800 2.171400
5.903200 2.084600
5.933600 2.045100
5.964000 2.015700
5.994500 1.972000
6.024900 1.933900
6.055300 1.890400
6.085700 1.840200
6.116100 1.774300
6.146500 1.713500
6.177000 1.659500
6.207400 1.625100
6.237800 1.603600
6.268200 1.597400
6.298600 1.610700
6.329000 1.651600
6.359500 1.711300
6.389900 1.749700
6.420300 1.813000
6.450700 1.877800
6.481100 1.962400
6.511500 2.081900
6.542000 2.220600
6.572400 2.280200
6.602800 2.264300
6.633200 2.320400
6.663600 2.343600
6.694000 2.247600
6.724500 2.146000
6.754900 1.992800
6.785300 1.913600
6.815700 1.846300
6.846100 1.802200
6.876500 1.802800
6.906900 1.772400
6.937400 1.762300
6.967800 1.747100
6.998200 1.719000
7.028600 1.721100
7.059000 1.727700
7.089400 1.752400
7.119900 1.799700
7.150300 1.862100
7.180700 1.950200
7.211100 2.048800
7.241500 2.135900
7.271900 2.191700
7.302400 2.226200
7.332800 2.237500
7.363200 2.238000
7.393600 2.245400
7.424000 2.254400
7.454400 2.271000
7.484900 2.284600
7.515300 2.293400
7.545700 2.294100
7.576100 2.287500
7.606500 2.287800
7.636900 2.322400
7.667400 2.299200
7.697800 2.293800
7.728200 2.288500
7.758600 2.291200
7.789000 2.319600
7.819400 2.349000
7.849800 2.357500
7.880300 2.343300
7.910700 2.341800
7.941100 2.358400
7.971500 2.309200
8.001900 2.255800
8.032300 2.190600
8.062800 2.176200
8.093200 2.040600
8.123600 1.975300
8.154000 1.889600
8.184400 1.845900
8.214800 1.803100
8.245300 1.768500
8.275700 1.750100
8.306100 1.762300
8.336500 1.769300
8.366900 1.776100
8.397300 1.761800
8.427800 1.756700
8.458200 1.757100
8.488600 1.762700
8.519000 1.773100
8.549400 1.801800
8.579800 1.811400
8.610300 1.814100
8.640700 1.819300
8.671100 1.832000
8.701500 1.848600
8.731900 1.872100
8.762300 1.919400
8.792700 1.987000
8.823200 2.044400
8.853600 2.092700
8.884000 2.141600
8.914400 2.425000
8.944800 2.360000
8.975200 2.384900
9.005700 2.391800
9.036100 2.400000
9.066500 2.391100
9.096900 2.379400
9.127300 2.416500
9.157700 2.465900
9.188200 2.420300
9.218600 2.361500
9.249000 2.303800
9.279400 2.265700
9.309800 2.258100
9.340200 2.173700
9.370700 2.094300
9.401100 2.015300
9.431500 1.943900
9.461900 1.889700
9.492300 1.829200
9.522700 1.813900
9.553200 1.772400
9.583600 1.763100
9.614000 1.738700
9.644400 1.749700
9.674800 1.768600
9.705200 1.798100
9.735600 1.843900
9.766100 1.892500
9.796500 1.917700
9.826900 1.955000
9.857300 1.951900
9.887700 1.937600
9.918100 1.931400
9.948600 1.949400
9.979000 1.962700
10.009400 1.958900
10.039800 2.006800
10.070200 2.068000
10.100600 2.110400
10.131100 2.170500
10.161500 2.206900
10.191900 2.221100
10.222300 2.225700
10.252700 2.207300
10.283100 2.229500
10.313600 2.200300
10.344000 2.154000
10.374400 2.052100
10.404800 1.999000
10.435200 1.965100
10.465600 1.941600
10.496100 1.931300
10.526500 1.940100
10.556900 1.966300
10.587300 2.035900
10.617700 2.082000
10.648100 2.134400
10.678600 2.168300
10.709000 2.195200
10.739400 2.218800
10.769800 2.173100
10.800200 2.172300
10.830600 2.226300
10.861000 2.386500
10.891500 2.359000
10.921900 2.314700
10.952300 2.302400
10.982700 2.319300
11.013100 2.392600
11.043500 2.415000
11.074000 2.379300
11.104400 2.367500
11.134800 2.405600
11.165200 2.449600
11.195600 2.486300
11.226000 2.531300
11.256500 2.594600
11.286900 2.667600
11.317300 2.789300
11.347700 2.705700
11.378100 2.630500
11.408500 2.569100
11.439000 2.515100
11.469400 2.458000
11.499800 2.401300
11.530200 2.328600
11.560600 2.284700
11.591000 2.309400
11.621500 2.621800
11.651900 2.348600
11.682300 2.146400
11.712700 1.987300
11.743100 1.931100
11.773500 1.921800
11.803900 1.893800
11.834400 1.877000
11.864800 1.857500
11.895200 1.877500
11.925600 1.946100
11.956000 2.041900
11.986400 2.018800
12.016900 2.058500
12.047300 2.100700
12.077700 2.150300
12.108100 2.220800
12.138500 2.294800
12.168900 2.440400
12.199400 2.468200
12.229800 2.439600
12.260200 2.452400
12.290600 2.435200
12.321000 2.474100
12.351400 2.497300
12.381900 2.626300
12.412300 2.740000
12.442700 2.819700
12.473100 2.972000
12.503500 3.000400
12.533900 2.997300
12.564400 2.852200
12.594800 2.761800
12.625200 2.698900
12.655600 2.676900
12.686000 2.640100
12.716400 2.544100
12.746800 2.495700
12.777300 2.462300
12.807700 2.287000
12.838100 2.178300
12.868500 2.124700
12.898900 2.096200
12.929300 2.104200
12.959800 2.092600
12.990200 2.167900
13.020600 2.237000
13.051000 2.228500
13.081400 2.181800
13.111800 2.270200
13.142300 2.422300
13.172700 2.632500
13.203100 2.477200
13.233500 2.433500
13.263900 2.421700
13.294300 2.397600
13.324800 2.343700
13.355200 2.322700
13.385600 2.292300
13.416000 2.276300
13.446400 2.261700
13.476800 2.370100
13.507300 2.293300
13.537700 2.233100
13.568100 2.169300
13.598500 2.141200
13.628900 2.075500
13.659300 2.008200
13.689800 1.980600
13.720200 1.931800
13.750600 1.924000
13.781000 1.937200
13.811400 1.946700
13.841800 1.973000
13.872200 1.988400
13.902700 2.005800
13.933100 2.056200
13.963500 2.136000
13.993900 2.239900
14.024300 2.300200
14.054700 2.238700
14.085200 2.212300
14.115600 2.209900
14.146000 2.226300
14.176400 2.250000
14.206800 2.139400
14.237200 2.233900
14.267700 2.323400
14.298100 2.481700
14.328500 2.588900
14.358900 2.598800
14.389300 2.496600
14.419700 2.441100
14.450200 2.419200
14.480600 2.410600
14.511000 2.411900
14.541400 2.421500
14.571800 2.472500
14.602200 2.514700
14.632700 2.454900
14.663100 2.343100
14.693500 2.242900
14.723900 2.195500
14.754300 2.228200
14.784700 2.284600
14.815100 2.259700
14.845600 2.162600
14.876000 2.145200
14.906400 2.134500
14.936800 2.206600
14.967200 2.342000
14.997600 2.522500
15.028100 2.617300
15.058500 2.607500
15.088900 2.700900
15.119300 2.743500
15.149700 2.666600
15.180100 2.554100
15.210600 2.445100
15.241000 2.510500
15.271400 2.518900
15.301800 2.533800
15.332200 2.531500
15.362600 2.549000
15.393100 2.538500
15.423500 2.481200
15.453900 2.432400
15.484300 2.410300
15.514700 2.323600
15.545100 2.291700
15.575600 2.287900
15.606000 2.275700
15.636400 2.273000
15.666800 2.343800
15.697200 2.346900
15.727600 2.321900
15.758000 2.287200
15.788500 2.243100
15.818900 2.235900
15.849300 2.274500
15.879700 2.339300
15.910100 2.354700
15.940500 2.369400
15.971000 2.407800
16.001400 2.463600
16.031800 2.521500
16.062200 2.577100
16.092600 2.631600
16.123000 2.729800
16.153500 2.809900
16.183900 2.838300
16.214300 2.684600
16.244700 2.585900
16.275100 2.528700
16.305500 2.477600
16.336000 2.430300
16.366400 2.396200
16.396800 2.403000
16.427200 2.432200
16.457600 2.468400
16.488000 2.451700
16.518500 2.465100
16.548900 2.489600
16.579300 2.513600
16.609700 2.549200
16.640100 2.559600
16.670500 2.563200
16.701000 2.532500
16.731400 2.577800
16.761800 2.714400
16.792200 2.699400
16.822600 2.663100
16.853000 2.654300
16.883400 2.627100
16.913900 2.632000
16.944300 2.692100
16.974700 2.761800
17.005100 2.776800
17.035500 2.799900
17.065900 2.812600
17.096400 2.823200
17.126800 2.843400
17.157200 2.866300
17.187600 2.895700
17.218000 2.867800
17.248400 2.864900
17.278900 2.839400
17.309300 2.780100
17.339700 2.711900
17.370100 2.689700
17.400500 2.647000
17.430900 2.638900
17.461400 2.616300
17.491800 2.606500
17.522200 2.622100
17.552600 2.612900
17.583000 2.843600
17.613400 2.733600
17.643900 2.737900
17.674300 2.723100
17.704700 2.709400
17.735100 2.721600
17.765500 2.689700
17.795900 2.674200
17.826300 2.691400
17.856800 2.668300
17.887200 2.681800
17.917600 2.667500
17.948000 2.668300
17.978400 2.645600
18.008800 2.584300
18.039300 2.519500
18.069700 2.485900
18.100100 2.429200
18.130500 2.332000
18.160900 2.207000
18.191300 2.175300
18.221800 2.141600
18.252200 2.123000
18.282600 2.189100
18.313000 2.286500
18.343400 2.319900
18.373800 2.211000
18.404300 2.234200
18.434700 2.289000
18.465100 2.372300
18.495500 2.390900
18.525900 2.410700
18.556300 2.367900
18.586800 2.295600
18.617200 2.206600
18.647600 2.150500
18.678000 2.070000
18.708400 2.097300
18.738800 2.112200
18.769200 2.347900
18.799700 2.228700
18.830100 2.300100
18.860500 2.399000
18.890900 2.461200
18.921300 2.448500
18.951700 2.450200
18.982200 2.484800
19.012600 2.500000
19.043000 2.515400
19.073400 2.376300
19.103800 2.301600
19.134200 2.233200
19.164700 2.266900
19.195100 2.193900
19.225500 2.152700
19.255900 2.088200
19.286300 2.042500
19.316700 2.026400
19.347200 2.031100
19.377600 2.027100
19.408000 2.090700
19.438400 2.248800
19.468800 2.314800
19.499200 2.375600
19.529700 2.399900
19.560100 2.407100
19.590500 2.423900
19.620900 2.428100
19.651300 2.451400
19.681700 2.488400
19.712100 2.545200
19.742600 2.646200
19.773000 2.766600
19.803400 2.896200
19.833800 2.870400
19.864200 2.877900
19.894600 2.817200
19.925100 2.728600
19.955500 2.649200
19.985900 2.609300
20.016300 2.576200
20.046700 2.548100
20.077100 2.560900
20.107600 2.600500
20.138000 2.643900
20.168400 2.739100
20.198800 2.967000
20.229200 3.015600
20.259600 3.062100
20.290100 3.051900
20.320500 3.023500
20.350900 2.979200
20.381300 2.932600
20.411700 2.880700
20.442100 2.858200
20.472600 2.809100
20.503000 2.822900
20.533400 2.910900
20.563800 2.800400
20.594200 2.823600
20.624600 2.831300
20.655100 2.784900
20.685500 2.760800
20.715900 2.782800
20.746300 2.753000
20.776700 2.725700
20.807100 2.699900
20.837500 2.763300
20.868000 2.721900
20.898400 2.744600
20.928800 2.729600
20.959200 2.730300
20.989600 2.749400
21.020000 2.820600
21.050500 2.917800
21.080900 3.126300
21.111300 3.217200
21.141700 3.251900
21.172100 3.258300
21.202500 3.279600
21.233000 3.370600
21.263400 3.424400
21.293800 3.167900
21.324200 3.095000
21.354600 3.089200
21.385000 3.144200
21.415500 3.133900
21.445900 3.137800
21.476300 3.119900
21.506700 3.144200
21.537100 3.179900
21.567500 3.205200
21.598000 3.161400
21.628400 3.100300
21.658800 3.050000
21.689200 3.010200
21.719600 3.030900
21.750000 3.077400
21.780400 3.117300
21.810900 3.144300
21.841300 3.138200
21.871700 3.098400
21.902100 3.023500
21.932500 3.077800
21.962900 2.928800
21.993400 2.859900
22.023800 2.807000
22.054200 2.765900
22.084600 2.745800
22.115000 2.759400
22.145400 2.759800
22.175900 2.782700
22.206300 2.825500
22.236700 2.849900
22.267100 2.873500
22.297500 2.897800
22.327900 2.926000
22.358400 2.966000
22.388800 3.015700
22.419200 3.042000
22.449600 3.033400
22.480000 3.020300
22.510400 3.031700
22.540900 3.028800
22.571300 3.011200
22.601700 3.003400
22.632100 3.006100
22.662500 2.993800
22.692900 2.993300
22.723300 2.973600
22.753800 2.968900
22.784200 2.957400
22.814600 2.933900
22.845000 2.928500
22.875400 2.936900
22.905800 2.951400
22.936300 2.973600
22.966700 3.091200
22.997100 3.050600
23.027500 3.079200
23.057900 3.102200
23.088300 3.152100
23.118800 3.192100
23.149200 3.245500
23.179600 3.222800
23.210000 3.184400
23.240400 3.139000
23.270800 3.012800
23.301300 2.940700
23.331700 2.886400
23.362100 2.818200
23.392500 2.782300
23.422900 2.788500
23.453300 2.777200
23.483800 2.786600
23.514200 2.828000
23.544600 2.920200
23.575000 3.037000
23.605400 3.063200
23.635800 3.140700
23.666300 3.257100
23.696700 3.316600
23.727100 3.379300
23.757500 3.376100
23.787900 3.354200
23.818300 3.294900
23.848700 3.233500
23.879200 3.015300
23.909600 2.909300
23.940000 2.865800
23.970400 2.822000
24.000800 2.789900
24.031200 2.783400
24.061700 2.787100
24.092100 2.786600
24.122500 2.798700
24.152900 2.805500
24.183300 2.823800
24.213700 2.858900
24.244200 2.898300
24.274600 2.952700
24.305000 3.033400
24.335400 3.068600
24.365800 3.087800
24.396200 3.107400
24.426700 3.088900
24.457100 3.100700
24.487500 3.099300
24.517900 3.055500
24.548300 3.008600
24.578700 2.944600
24.609200 2.958400
24.639600 2.937900
24.670000 2.922400
24.700400 2.927900
24.730800 2.921400
24.761200 2.907500
24.791600 2.874400
24.822100 2.801900
24.852500 2.809400
24.882900 2.855200
24.913300 2.894300
24.943700 2.969000
24.974100 3.016200
25.004600 3.059600
25.035000 3.104000
25.065400 3.162900
25.095800 3.250700
25.126200 3.170000
25.156600 3.103600
25.187100 3.050300
25.217500 3.036100
25.247900 3.017000
25.278300 2.997300
25.308700 2.992200
25.339100 2.985500
25.369600 2.968400
25.400000 2.962900
25.430400 2.960500
25.460800 2.975400
25.491200 2.963800
25.521600 2.950600
25.552100 2.920800
25.582500 2.903700
25.612900 2.883500
25.643300 2.932900
25.673700 2.875700
25.704100 2.866500
25.734500 2.901000
25.765000 2.948300
25.795400 2.988300
25.825800 2.941800
25.856200 2.940900
25.886600 2.936800
25.917000 2.917700
25.947500 2.868900
25.977900 2.884400
26.008300 2.916000
26.038700 2.980200
26.069100 3.053700
26.099500 3.148500
26.130000 3.224700
26.160400 3.291600
26.190800 3.212900
26.221200 3.136100
26.251600 3.088500
26.282000 3.066300
26.312500 3.117000
26.342900 3.107900
26.373300 3.106200
26.403700 3.156200
26.434100 3.188300
26.464500 3.165600
26.495000 3.191000
26.525400 3.194800
26.555800 3.214200
26.586200 3.215800
26.616600 3.210900
26.647000 3.213600
26.677500 3.230500
26.707900 3.230200
26.738300 3.242700
26.768700 3.335100
26.799100 3.389300
26.829500 3.456500
26.859900 3.536700
26.890400 3.600400
26.920800 3.618000
26.951200 3.534000
26.981600 3.554400
27.012000 3.516400
27.042400 3.484400
27.072900 3.447400
27.103300 3.402800
27.133700 3.340800
27.164100 3.316000
27.194500 3.137300
27.224900 3.100500
27.255400 3.027300
27.285800 2.961200
27.316200 2.937500
27.346600 2.935500
27.377000 2.923400
27.407400 2.930600
27.437900 2.966100
27.468300 3.020000
27.498700 3.071100
27.529100 3.156000
27.559500 3.283900
27.589900 3.248800
27.620400 3.260500
27.650800 3.237000
27.681200 3.172400
27.711600 3.142000
27.742000 3.044800
27.772400 2.956400
27.802800 2.955000
27.833300 2.947800
27.863700 2.983500
27.894100 3.009400
27.924500 3.058100
27.954900 3.108800
27.985300 3.224200
28.015800 3.317500
28.046200 3.383400
28.076600 3.456400
28.107000 3.495700
28.137400 3.530600
28.167800 3.417200
28.198300 3.318000
28.228700 3.215700
28.259100 3.134400
28.289500 3.138700
28.319900 3.161300
28.350300 3.157300
28.380800 3.157800
28.411200 3.165600
28.441600 3.108400
28.472000 3.111000
28.502400 3.130600
28.532800 3.117400
28.563300 3.141100
28.593700 3.180300
28.624100 3.230000
28.654500 3.229500
28.684900 3.203000
28.715300 3.166400
28.745700 3.142200
28.776200 3.118200
28.806600 3.118100
28.837000 3.121800
28.867400 3.113000
28.897800 3.076200
28.928200 3.071500
28.958700 3.114700
28.989100 3.196100
29.019500 3.304500
29.049900 3.400700
29.080300 3.425300
29.110700 3.459800
29.141200 3.529000
29.171600 3.667400
29.202000 3.880600
29.232400 3.583800
29.262800 3.570300
29.293200 3.545200
29.323700 3.518800
29.354100 3.447200
29.384500 3.381600
29.414900 3.331700
29.445300 3.294300
29.475700 3.296800
29.506200 3.307700
29.536600 3.388600
29.567000 3.388900
29.597400 3.428600
29.627800 3.476000
29.658200 3.460800
29.688700 3.505100
29.719100 3.620900
29.749500 3.768200
29.779900 3.797300
29.810300 3.786700
29.840700 3.729100
29.871100 3.538300
29.901600 3.426600
29.932000 3.366700
29.962400 3.330400
29.992800 3.333300
30.023200 3.364300
30.053600 3.436100
30.084100 3.503800
30.114500 3.664500
30.144900 3.727900
30.175300 3.733600
30.205700 3.699500
30.236100 3.673800
30.266600 3.561500
30.297000 3.522200
30.327400 3.508000
30.357800 3.462800
30.388200 3.452800
30.418600 3.452100
30.449100 3.276100
30.479500 3.229000
30.509900 3.148100
30.540300 3.130300
30.570700 3.083100
30.601100 2.986300
30.631600 2.966700
30.662000 2.959400
30.692400 3.022000
30.722800 3.103400
30.753200 3.268100
30.783600 3.330800
30.814000 3.308500
30.844500 3.390300
30.874900 3.442700
30.905300 3.418600
30.935700 3.391200
30.966100 3.335400
30.996500 3.287200
31.027000 3.268100
31.057400 3.169900
31.087800 3.117100
31.118200 3.102300
31.148600 3.067100
31.179000 3.051300
31.209500 3.071000
31.239900 3.115100
31.270300 3.161300
31.300700 3.228200
31.331100 3.293400
31.361500 3.379600
31.392000 3.486100
31.422400 3.557300
31.452800 3.564500
31.483200 3.546700
31.513600 3.415300
31.544000 3.343200
31.574500 3.326300
31.604900 3.295100
31.635300 3.323300
31.665700 3.408000
31.696100 3.515400
31.726500 3.600300
31.756900 3.610600
31.787400 3.695100
31.817800 3.820800
31.848200 4.015600
31.878600 3.953000
31.909000 3.908900
31.939400 3.875500
31.969900 3.919100
32.000300 3.802100
32.030700 3.608500
32.061100 3.482300
32.091500 3.697600
32.121900 3.419800
32.152400 3.397100
32.182800 3.359600
32.213200 3.328000
32.243600 3.291500
32.274000 3.271800
32.304400 3.278900
32.334900 3.319900
32.365300 3.338700
32.395700 3.336300
32.426100 3.321000
32.456500 3.310800
32.486900 3.257900
32.517400 3.245900
32.547800 3.292500
32.578200 3.342600
32.608600 3.392100
32.639000 3.450200
32.669400 3.520000
32.699800 3.603300
32.730300 3.660800
32.760700 3.696000
32.791100 3.757200
32.821500 3.817600
32.851900 3.805400
32.882300 3.682800
32.912800 3.656300
32.943200 3.706600
32.973600 3.647600
33.004000 3.586600
33.034400 3.561900
33.064800 3.584300
33.095300 3.662800
33.125700 3.766400
33.156100 3.851400
33.186500 3.952700
33.216900 3.888000
33.247300 3.894500
33.277800 3.796100
33.308200 3.983400
33.338600 3.793800
33.369000 3.656000
33.399400 3.454200
33.429800 3.357600
33.460300 3.236600
33.490700 3.193200
33.521100 3.154300
33.551500 3.153700
33.581900 3.173700
33.612300 3.220200
33.642800 3.271600
33.673200 3.242500
33.703600 3.265200
33.734000 3.288400
33.764400 3.288400
33.794800 3.270000
33.825200 3.268800
33.855700 3.303400
33.886100 3.314200
33.916500 3.330700
33.946900 3.337700
33.977300 3.371500
34.007700 3.451500
34.038200 3.546600
34.068600 3.567000
34.099000 3.563100
34.129400 3.493500
34.159800 3.473700
34.190200 3.555100
34.220700 3.503900
34.251100 3.504100
34.281500 3.522200
34.311900 3.496600
34.342300 3.475200
34.372700 3.408300
34.403200 3.407000
34.433600 3.420300
34.464000 3.461700
34.494400 3.562500
34.524800 3.638000
34.555200 3.638700
34.585700 3.659800
34.616100 3.618100
34.646500 3.646600
34.676900 3.499100
34.707300 3.548800
34.737700 3.528500
34.768100 3.428700
34.798600 3.416600
34.829000 3.379600
34.859400 3.394900
34.889800 3.474100
34.920200 3.486600
34.950600 3.530700
34.981100 3.508600
35.011500 3.484100
35.041900 3.526200
35.072300 3.518100
35.102700 3.515300
35.133100 3.490200
35.163600 3.493800
35.194000 3.480400
35.224400 3.505800
35.254800 3.511600
35.285200 3.498200
35.315600 3.522000
35.346100 3.528300
35.376500 3.539200
35.406900 3.543700
35.437300 3.583200
35.467700 3.649200
35.498100 3.673200
35.528600 3.654500
35.559000 3.684300
35.589400 3.663400
35.619800 3.635600
35.650200 3.588600
35.680600 3.544800
35.711000 3.516800
35.741500 3.491400
35.771900 3.481500
35.802300 3.525300
35.832700 3.443700
35.863100 3.421500
35.893500 3.423000
35.924000 3.455100
35.954400 3.460900
35.984800 3.466300
36.015200 3.445100
36.045600 3.431700
36.076000 3.469400
36.106500 3.523900
36.136900 3.483800
36.167300 3.465000
36.197700 3.465500
36.228100 3.480900
36.258500 3.531600
36.289000 3.665200
36.319400 3.599300
36.349800 3.641700
36.380200 3.708800
36.410600 3.819100
36.441000 3.821200
36.471500 3.798200
36.501900 3.745800
36.532300 3.691800
36.562700 3.661900
36.593100 3.682800
36.623500 3.632000
36.654000 3.630800
36.684400 3.647600
36.714800 3.661400
36.745200 3.707300
36.775600 3.752900
36.806000 3.788400
36.836400 3.799600
36.866900 3.751700
36.897300 3.675400
36.927700 3.687000
36.958100 3.657800
36.988500 3.752500
37.018900 4.017300
37.049400 3.915000
37.079800 3.863400
37.110200 3.848100
37.140600 3.880100
37.171000 3.853800
37.201400 3.777700
37.231900 3.751800
37.262300 3.760200
37.292700 3.799100
37.323100 3.832100
37.353500 3.889800
37.383900 3.918800
37.414400 3.935000
37.444800 4.018700
37.475200 4.007100
37.505600 3.839600
37.536000 3.737100
37.566400 3.724400
37.596900 3.702900
37.627300 3.703600
37.657700 3.716700
37.688100 3.783700
37.718500 3.836200
37.748900 3.821900
37.779300 3.896600
37.809800 3.782800
37.840200 3.787000
37.870600 3.751800
37.901000 3.722300
37.931400 3.677400
37.961800 3.662300
37.992300 3.676200
38.022700 3.687000
38.053100 3.659700
38.083500 3.701300
38.113900 3.751400
38.144300 3.771500
38.174800 3.784200
38.205200 3.739700
38.235600 3.786700
38.266000 3.846800
38.296400 3.861100
38.326800 3.889600
38.357300 3.935100
38.387700 3.973100
38.418100 3.995100
38.448500 3.997400
38.478900 4.006400
38.509300 4.014400
38.539800 3.982900
38.570200 3.920300
38.600600 3.854600
38.631000 3.825000
38.661400 3.819000
38.691800 3.866900
38.722200 3.850400
38.752700 3.923500
38.783100 4.023100
38.813500 4.088200
38.843900 4.055600
38.874300 3.995000
38.904700 3.887500
38.935200 3.818200
38.965600 3.787500
38.996000 3.733300
39.026400 3.730900
39.056800 3.755200
39.087200 3.799700
39.117700 3.733300
39.148100 3.726100
39.178500 3.766700
39.208900 3.783700
39.239300 3.707000
39.269700 3.701400
39.300200 3.670800
39.330600 3.692800
39.361000 3.724700
39.391400 3.472300
39.421800 3.443700
39.452200 3.455100
39.482700 3.422000
39.513100 3.414700
39.543500 3.401000
39.573900 3.394900
39.604300 3.389200
39.634700 3.382800
39.665200 3.369700
39.695600 3.365200
39.726000 3.360700
39.756400 3.372700
39.786800 3.352600
39.817200 3.318600
39.847600 3.289800
39.878100 3.290500
39.908500 3.288500
39.938900 3.272600
39.969300 3.251500
39.999700 3.227400
40.030100 3.196400
40.060600 3.152500
40.091000 3.130800
40.121400 3.086700
40.151800 3.047800
40.182200 3.064700
40.212600 3.140100
40.243100 2.962600
40.273500 2.867800
40.303900 2.830100
40.334300 2.769200
40.364700 2.787700
40.395100 2.777300
40.425600 2.754700
40.456000 2.733900
40.486400 2.736800
40.516800 2.767200
40.547200 2.764900
40.577600 2.757600
40.608100 2.741900
40.638500 2.738000
40.668900 2.718600
40.699300 2.673900
40.729700 2.610900
40.760100 2.517400
40.790500 2.430200
40.821000 2.344700
40.851400 2.360700
40.881800 2.370400
40.912200 2.376800
40.942600 2.395500
40.973000 2.548200
41.003500 2.437200
41.033900 2.483400
41.064300 2.550700
41.094700 2.589200
41.125100 2.617100
41.155500 2.657700
41.186000 2.631900
41.216400 2.585800
41.246800 2.467900
41.277200 2.378400
41.307600 2.257300
41.338000 2.144500
41.368500 2.050900
41.398900 1.960800
41.429300 1.875600
41.459700 1.729900
41.490100 1.607300
41.520500 1.412600
41.551000 1.319200
41.581400 1.255900
41.611800 1.145000
41.642200 1.049300
41.672600 0.967200
41.703000 0.924100
41.733400 0.941900
41.763900 0.792700
41.794300 0.641900
41.824700 0.542100
41.855100 0.434700
41.885500 0.330200
41.915900 0.246100
41.946400 0.180100
41.976800 0.128100
42.007200 0.104200
42.037600 0.088700
42.068000 0.078100
42.098400 0.071700
42.128900 0.066500
42.159300 0.061900
42.189700 0.057600
42.220100 0.053500
42.250500 0.049500
42.280900 0.045500
42.311400 0.041500
42.341800 0.037500
42.372200 0.033700
42.402600 0.029200
42.433000 0.024800
42.463400 0.020600
42.493900 0.016600
42.524300 0.012900
42.554700 0.009300
42.585100 0.006100
42.615500 0.004000
42.645900 0.003200
42.676300 0.002600
42.706800 0.002200
42.737200 0.001700
42.767600 0.001300
42.798000 0.001000
42.828400 0.000700
42.858800 0.000500
42.889300 0.000300
42.919700 0.000100
42.950100 0.000100
42.980500 0.000000
43.010900 0.000000
43.041300 0.000000
43.071800 0.000000
43.102200 0.000000
43.132600 0.000000
43.163000 0.000000
43.193400 0.000000
43.223800 0.000000
43.254300 0.000000
43.284700 0.000000
43.315100 0.000000
43.345500 0.000000
43.375900 0.000000
43.406300 0.000000
43.436800 0.000000
43.467200 0.000000
43.497600 0.000000
43.528000 0.000000
43.558400 0.000000
43.588800 0.000000
43.619300 0.000000
43.649700 0.000000
43.680100 0.000000
43.710500 0.000000
43.740900 0.000000
43.771300 0.000000
43.801700 0.000000
43.832200 0.000000
43.862600 0.000000
43.893000 0.000000
43.923400 0.000000
43.953800 0.000000
43.984200 0.000000
44.014700 0.000000
44.045100 0.000000
44.075500 0.000000
44.105900 0.000000
44.136300 0.000000
44.166700 0.000000
44.197200 0.000000
44.227600 0.000000
44.258000 0.000000
44.288400 0.000000
44.318800 0.000000
44.349200 0.000000
44.379700 0.000000
44.410100 0.000000
44.440500 0.000000
44.470900 0.000000
44.501300 0.000000
44.531700 0.000000
44.562200 0.000000
44.592600 0.000000
44.623000 0.000000
44.653400 0.000000
44.683800 0.000000
44.714200 0.000000
44.744600 0.000000
44.775100 0.000000
44.805500 0.000000
44.835900 0.000000
44.866300 0.000000
44.896700 0.000000
44.927100 0.000000
44.957600 0.000000
44.988000 0.000000
45.018400 0.000000
45.048800 0.000000
45.079200 0.000000
45.109600 0.000000
45.140100 0.000000
45.170500 0.000000
45.200900 0.000000
45.231300 0.000000
45.261700 0.000000
45.292100 0.000000
45.322600 0.000000
45.353000 0.000000
45.383400 0.000000
45.413800 0.000000
45.444200 0.000000
45.474600 0.000000
45.505100 0.000000
45.535500 0.000000
45.565900 0.000000
45.596300 0.000000
45.626700 0.000000
45.657100 0.000000
45.687500 0.000000
45.718000 0.000000
45.748400 0.000000
45.778800 0.000000
e
