set title 'mp-1226058 - Density of States'
set xlabel 'Energy (eV)'
set ylabel 'DOS (states/eV)'
set grid
set xrange [-10:10]
set yrange [0:19.352]
set xzeroaxis lt -1
set terminal png size 800,600
set output 'mp-1226058_dos_gnuplot.png'
plot '-' using 1:2 with lines title 'DOS'
-23.353000 0.000000
-23.312300 0.000000
-23.271500 0.000000
-23.230800 0.000000
-23.190000 0.000000
-23.149300 0.000000
-23.108500 0.000000
-23.067800 0.000000
-23.027000 0.000000
-22.986300 0.000000
-22.945500 0.000000
-22.904800 0.000000
-22.864000 0.000000
-22.823300 0.000000
-22.782500 0.000000
-22.741800 0.000000
-22.701000 0.000000
-22.660300 0.000000
-22.619500 0.000000
-22.578800 0.000000
-22.538000 0.000000
-22.497300 0.000000
-22.456500 0.000000
-22.415800 0.000000
-22.375000 0.000000
-22.334200 0.000000
-22.293500 0.000000
-22.252700 0.000000
-22.212000 0.000000
-22.171200 0.000000
-22.130500 0.000000
-22.089700 0.000000
-22.049000 0.000000
-22.008200 0.000000
-21.967500 0.000000
-21.926700 0.000000
-21.886000 0.000000
-21.845200 0.000000
-21.804500 0.000000
-21.763700 0.000000
-21.723000 0.000000
-21.682200 0.000000
-21.641500 0.000000
-21.600700 0.000000
-21.560000 0.000000
-21.519200 0.000000
-21.478500 0.000000
-21.437700 0.000000
-21.397000 0.000000
-21.356200 0.000000
-21.315500 0.000000
-21.274700 0.000000
-21.234000 0.000000
-21.193200 0.000000
-21.152500 0.000000
-21.111700 0.000000
-21.071000 0.000000
-21.030200 0.000000
-20.989500 0.000000
-20.948700 0.000000
-20.907900 0.000000
-20.867200 0.000000
-20.826400 0.000000
-20.785700 0.000000
-20.744900 0.000000
-20.704200 0.000000
-20.663400 0.000000
-20.622700 0.000000
-20.581900 0.000000
-20.541200 0.000000
-20.500400 0.000000
-20.459700 0.000000
-20.418900 0.000000
-20.378200 0.000000
-20.337400 0.000000
-20.296700 0.000000
-20.255900 0.000000
-20.215200 0.000000
-20.174400 0.000000
-20.133700 0.000000
-20.092900 0.000000
-20.052200 0.000000
-20.011400 0.000000
-19.970700 0.000000
-19.929900 0.000000
-19.889200 0.000000
-19.848400 0.000000
-19.807700 0.000000
-19.766900 0.000000
-19.726200 0.000000
-19.685400 0.000000
-19.644700 1.512200
-19.603900 2.286400
-19.563100 2.729500
-19.522400 3.727800
-19.481600 7.578500
-19.440900 7.529600
-19.400100 6.857100
-19.359400 10.048000
-19.318600 12.579700
-19.277900 24.804500
-19.237100 29.925700
-19.196400 26.132300
-19.155600 23.687300
-19.114900 27.730300
-19.074100 36.645000
-19.033400 9.126800
-18.992600 2.976900
-18.951900 2.013500
-18.911100 1.586300
-18.870400 0.000000
-18.829600 0.000000
-18.788900 0.000000
-18.748100 0.000000
-18.707400 0.000000
-18.666600 0.000000
-18.625900 0.000000
-18.585100 0.000000
-18.544400 0.000000
-18.503600 0.000000
-18.462900 0.000000
-18.422100 0.000000
-18.381400 0.000000
-18.340600 0.000000
-18.299900 0.000000
-18.259100 0.000000
-18.218400 0.000000
-18.177600 0.000000
-18.136800 0.000000
-18.096100 0.000000
-18.055300 0.000000
-18.014600 0.000000
-17.973800 0.000000
-17.933100 0.000000
-17.892300 0.000000
-17.851600 0.000000
-17.810800 0.000000
-17.770100 0.000000
-17.729300 0.000000
-17.688600 0.000000
-17.647800 0.000000
-17.607100 0.000000
-17.566300 0.000000
-17.525600 0.000000
-17.484800 0.000000
-17.444100 0.000000
-17.403300 0.000000
-17.362600 0.000000
-17.321800 0.000000
-17.281100 0.000000
-17.240300 0.000000
-17.199600 0.000000
-17.158800 0.000000
-17.118100 0.000000
-17.077300 0.000000
-17.036600 0.000000
-16.995800 0.000000
-16.955100 0.000000
-16.914300 0.000000
-16.873600 0.000000
-16.832800 0.000000
-16.792100 0.000000
-16.751300 0.000000
-16.710500 0.000000
-16.669800 0.000000
-16.629000 0.000000
-16.588300 0.000000
-16.547500 0.000000
-16.506800 0.000000
-16.466000 0.000000
-16.425300 0.000000
-16.384500 0.000000
-16.343800 0.000000
-16.303000 0.000000
-16.262300 0.000000
-16.221500 0.000000
-16.180800 0.000000
-16.140000 0.000000
-16.099300 0.000000
-16.058500 0.000000
-16.017800 0.000000
-15.977000 0.000000
-15.936300 0.000000
-15.895500 0.000000
-15.854800 0.000000
-15.814000 0.000000
-15.773300 0.000000
-15.732500 0.000000
-15.691800 0.000000
-15.651000 0.000000
-15.610300 0.000000
-15.569500 0.000000
-15.528800 0.000000
-15.488000 0.000000
-15.447300 0.000000
-15.406500 0.000000
-15.365700 0.000000
-15.325000 0.000000
-15.284200 0.000000
-15.243500 0.000000
-15.202700 0.000000
-15.162000 0.000000
-15.121200 0.000000
-15.080500 0.000000
-15.039700 0.000000
-14.999000 0.000000
-14.958200 0.000000
-14.917500 0.000000
-14.876700 0.000000
-14.836000 0.000000
-14.795200 0.000000
-14.754500 0.000000
-14.713700 0.000000
-14.673000 0.000000
-14.632200 0.000000
-14.591500 0.000000
-14.550700 0.000000
-14.510000 0.000000
-14.469200 0.000000
-14.428500 0.000000
-14.387700 0.000000
-14.347000 0.000000
-14.306200 0.000000
-14.265500 0.000000
-14.224700 0.000000
-14.184000 0.000000
-14.143200 0.000000
-14.102500 0.000000
-14.061700 0.000000
-14.021000 0.000000
-13.980200 0.000000
-13.939400 0.000000
-13.898700 0.000000
-13.857900 0.000000
-13.817200 0.000000
-13.776400 0.000000
-13.735700 0.000000
-13.694900 0.000000
-13.654200 0.000000
-13.613400 0.000000
-13.572700 0.000000
-13.531900 0.000000
-13.491200 0.000000
-13.450400 0.000000
-13.409700 0.000000
-13.368900 0.000000
-13.328200 0.000000
-13.287400 0.000000
-13.246700 0.000000
-13.205900 0.000000
-13.165200 0.000000
-13.124400 0.000000
-13.083700 0.000000
-13.042900 0.000000
-13.002200 0.000000
-12.961400 0.000000
-12.920700 0.000000
-12.879900 0.000000
-12.839200 0.000000
-12.798400 0.000000
-12.757700 0.000000
-12.716900 0.000000
-12.676200 0.000000
-12.635400 0.000000
-12.594700 0.000000
-12.553900 0.000000
-12.513100 0.000000
-12.472400 0.000000
-12.431600 0.000000
-12.390900 0.000000
-12.350100 0.000000
-12.309400 0.000000
-12.268600 0.000000
-12.227900 0.000000
-12.187100 0.000000
-12.146400 0.000000
-12.105600 0.000000
-12.064900 0.000000
-12.024100 0.000000
-11.983400 0.000000
-11.942600 0.000000
-11.901900 0.000000
-11.861100 0.000000
-11.820400 0.000000
-11.779600 0.000000
-11.738900 0.000000
-11.698100 0.000000
-11.657400 0.000000
-11.616600 0.000000
-11.575900 0.000000
-11.535100 0.000000
-11.494400 0.000000
-11.453600 0.000000
-11.412900 0.000000
-11.372100 0.000000
-11.331400 0.000000
-11.290600 0.000000
-11.249900 0.000000
-11.209100 0.000000
-11.168300 0.000000
-11.127600 0.000000
-11.086800 0.000000
-11.046100 0.000000
-11.005300 0.000000
-10.964600 0.000000
-10.923800 0.000000
-10.883100 0.000000
-10.842300 0.000000
-10.801600 0.000000
-10.760800 0.000000
-10.720100 0.000000
-10.679300 0.000000
-10.638600 0.000000
-10.597800 0.000000
-10.557100 0.000000
-10.516300 0.000000
-10.475600 0.000000
-10.434800 0.000000
-10.394100 0.000000
-10.353300 0.000000
-10.312600 0.000000
-10.271800 0.000000
-10.231100 0.000000
-10.190300 0.000000
-10.149600 0.000000
-10.108800 0.000000
-10.068100 0.000000
-10.027300 0.000000
-9.986600 0.000000
-9.945800 0.000000
-9.905100 0.000000
-9.864300 0.000000
-9.823600 0.000000
-9.782800 0.000000
-9.742000 0.000000
-9.701300 0.000000
-9.660500 0.000000
-9.619800 0.000000
-9.579000 0.000000
-9.538300 0.000000
-9.497500 0.000000
-9.456800 0.000000
-9.416000 0.000000
-9.375300 0.000000
-9.334500 0.000000
-9.293800 0.000000
-9.253000 0.000000
-9.212300 0.000000
-9.171500 0.000000
-9.130800 0.000000
-9.090000 0.000000
-9.049300 0.000000
-9.008500 0.000000
-8.967800 0.000000
-8.927000 0.000000
-8.886300 0.000000
-8.845500 0.000000
-8.804800 0.000000
-8.764000 0.000000
-8.723300 0.000000
-8.682500 0.000000
-8.641800 0.000000
-8.601000 0.207700
-8.560300 0.260800
-8.519500 0.313800
-8.478800 0.241700
-8.438000 0.241500
-8.397200 0.241400
-8.356500 0.251800
-8.315700 0.265000
-8.275000 0.278200
-8.234200 0.251300
-8.193500 0.246700
-8.152700 0.242100
-8.112000 0.243700
-8.071200 0.248000
-8.030500 0.252400
-7.989700 0.256700
-7.949000 0.261000
-7.908200 0.265400
-7.867500 0.252200
-7.826700 0.249100
-7.786000 0.246000
-7.745200 0.245200
-7.704500 0.246600
-7.663700 0.248000
-7.623000 0.249400
-7.582200 0.250800
-7.541500 0.252200
-7.500700 0.254200
-7.460000 0.257100
-7.419200 0.259900
-7.378500 0.253400
-7.337700 0.251000
-7.297000 0.248600
-7.256200 0.246700
-7.215500 0.246900
-7.174700 0.247100
-7.134000 0.247500
-7.093200 0.248100
-7.052500 0.248700
-7.011700 0.249400
-6.970900 0.250900
-6.930200 0.252400
-6.889400 0.253900
-6.848700 0.255400
-6.807900 0.256900
-6.767200 0.258400
-6.726400 0.251800
-6.685700 0.249800
-6.644900 0.247800
-6.604200 0.247700
-6.563400 0.247900
-6.522700 0.248100
-6.481900 0.248300
-6.441200 0.248500
-6.400400 0.248700
-6.359700 0.249400
-6.318900 0.250100
-6.278200 0.250900
-6.237400 0.251700
-6.196700 0.252500
-6.155900 0.253300
-6.115200 0.254200
-6.074400 0.255200
-6.033700 0.256200
-5.992900 0.252900
-5.952200 0.251800
-5.911400 0.250600
-5.870700 0.249800
-5.829900 0.249800
-5.789200 0.249900
-5.748400 0.249900
-5.707700 0.249900
-5.666900 0.250000
-5.626200 0.250100
-5.585400 0.250500
-5.544600 0.251000
-5.503900 0.251600
-5.463100 0.252200
-5.422400 0.252900
-5.381600 0.253500
-5.340900 0.254100
-5.300100 0.254800
-5.259400 0.255400
-5.218600 0.256300
-5.177900 0.257100
-5.137100 0.257900
-5.096400 0.255200
-5.055600 0.254500
-5.014900 0.253800
-4.974100 0.253800
-4.933400 0.253800
-4.892600 0.253900
-4.851900 0.254100
-4.811100 0.254300
-4.770400 0.254600
-4.729600 0.255100
-4.688900 0.255600
-4.648100 0.256100
-4.607400 0.256600
-4.566600 0.257200
-4.525900 0.257700
-4.485100 0.258200
-4.444400 0.258700
-4.403600 0.259200
-4.362900 0.259900
-4.322100 0.260500
-4.281400 0.261200
-4.240600 0.261800
-4.199800 0.262400
-4.159100 0.264100
-4.118300 0.265500
-4.077600 0.266800
-4.036800 0.268100
-3.996100 0.269200
-3.955300 0.270200
-3.914600 0.271300
-3.873800 0.272400
-3.833100 0.273600
-3.792300 0.274700
-3.751600 0.275700
-3.710800 0.276700
-3.670100 0.277800
-3.629300 0.278800
-3.588600 0.279800
-3.547800 0.280900
-3.507100 0.281900
-3.466300 0.283000
-3.425600 0.284000
-3.384800 0.285100
-3.344100 0.286300
-3.303300 0.287400
-3.262600 0.288500
-3.221800 0.436700
-3.181100 0.422700
-3.140300 0.408700
-3.099600 0.311500
-3.058800 0.305000
-3.018100 0.298500
-2.977300 0.292000
-2.936600 0.285500
-2.895800 0.279000
-2.855100 0.245500
-2.814300 0.241500
-2.773500 0.237400
-2.732800 0.291600
-2.692000 0.318100
-2.651300 0.349400
-2.610500 0.385300
-2.569800 0.387400
-2.529000 0.414900
-2.488300 0.427000
-2.447500 0.436700
-2.406800 0.424600
-2.366000 0.428000
-2.325300 0.423400
-2.284500 0.421400
-2.243800 0.421100
-2.203000 0.419900
-2.162300 0.466500
-2.121500 0.477400
-2.080800 0.496500
-2.040000 0.491200
-1.999300 0.501900
-1.958500 0.513400
-1.917800 0.519200
-1.877000 0.529800
-1.836300 0.540900
-1.795500 0.552500
-1.754800 0.552400
-1.714000 0.559900
-1.673300 0.567700
-1.632500 0.612600
-1.591800 0.628800
-1.551000 0.643600
-1.510300 0.637300
-1.469500 0.635400
-1.428700 0.636300
-1.388000 0.634700
-1.347200 0.637900
-1.306500 0.640600
-1.265700 0.641400
-1.225000 9.252900
-1.184200 0.832000
-1.143500 0.844900
-1.102700 0.777600
-1.062000 0.787000
-1.021200 0.796800
-0.980500 0.806900
-0.939700 0.876100
-0.899000 0.901900
-0.858200 0.904000
-0.817500 0.901100
-0.776700 0.911100
-0.736000 0.925800
-0.695200 0.942800
-0.654500 0.961700
-0.613700 0.981400
-0.573000 0.990600
-0.532200 1.006800
-0.491500 1.010000
-0.450700 1.027300
-0.410000 1.043400
-0.369200 1.060700
-0.328500 1.078300
-0.287700 1.096600
-0.247000 1.155600
-0.206200 1.185000
-0.165500 1.213000
-0.124700 1.225700
-0.084000 1.259800
-0.043200 1.289400
-0.002400 1.318600
0.038300 1.344600
0.079100 1.363300
0.119800 1.385000
0.160600 1.406300
0.201300 1.432700
0.242100 1.461600
0.282800 1.489500
0.323600 1.517900
0.364300 1.495500
0.405100 1.485000
0.445800 1.467800
0.486600 1.433300
0.527300 1.498700
0.568100 1.524400
0.608800 1.545400
0.649600 1.580300
0.690300 1.618100
0.731100 1.671800
0.771800 1.757100
0.812600 1.986800
0.853300 2.199000
0.894100 2.210600
0.934800 2.265600
0.975600 2.416800
1.016300 3.134900
1.057100 3.234200
1.097800 4.820000
1.138600 4.516500
1.179300 4.075100
1.220100 4.560500
1.260800 4.840300
1.301600 5.008400
1.342300 6.495500
1.383100 6.697400
1.423900 6.437300
1.464600 6.940600
1.505400 7.801200
1.546100 7.745600
1.586900 9.248100
1.627600 8.313600
1.668400 8.462100
1.709100 8.445400
1.749900 6.895400
1.790600 6.350600
1.831400 6.505200
1.872100 6.532000
1.912900 7.571000
1.953600 7.360200
1.994400 9.391500
2.035100 10.421000
2.075900 10.717300
2.116600 12.042900
2.157400 12.085700
2.198100 10.090200
2.238900 14.107200
2.279600 11.414000
2.320400 10.884600
2.361100 11.208000
2.401900 9.472100
2.442600 9.787800
2.483400 12.452900
2.524100 12.175900
2.564900 11.046100
2.605600 10.901200
2.646400 12.091600
2.687100 11.800900
2.727900 15.033700
2.768700 11.732500
2.809400 10.034000
2.850200 10.347100
2.890900 10.286400
2.931700 9.497200
2.972400 9.136300
3.013200 10.382000
3.053900 8.933000
3.094700 7.536500
3.135400 6.653700
3.176200 6.598000
3.216900 7.475200
3.257700 6.389600
3.298400 6.254000
3.339200 7.818100
3.379900 8.940100
3.420700 8.285000
3.461400 9.555000
3.502200 8.662300
3.542900 7.334700
3.583700 9.822100
3.624400 10.392700
3.665200 10.920400
3.705900 11.260300
3.746700 10.340400
3.787400 12.393400
3.828200 12.192000
3.868900 12.187900
3.909700 12.027700
3.950400 13.643600
3.991200 10.041700
4.031900 12.355900
4.072700 12.849900
4.113400 11.373500
4.154200 11.866300
4.195000 14.355900
4.235700 15.544100
4.276500 13.054000
4.317200 11.288800
4.358000 12.506400
4.398700 11.567800
4.439500 13.187300
4.480200 17.593000
4.521000 16.720400
4.561700 14.048200
4.602500 14.597800
4.643200 12.894000
4.684000 11.951900
4.724700 11.745800
4.765500 12.500200
4.806200 12.162200
4.847000 12.996800
4.887700 11.438100
4.928500 8.519700
4.969200 5.906000
5.010000 5.128100
5.050700 5.000200
5.091500 4.690900
5.132200 4.529900
5.173000 4.032800
5.213700 3.937700
5.254500 3.894300
5.295200 3.892500
5.336000 3.861700
5.376700 3.856000
5.417500 3.859200
5.458200 3.527300
5.499000 3.743500
5.539800 2.319300
5.580500 2.036000
5.621300 1.786000
5.662000 1.578400
5.702800 1.539000
5.743500 1.515100
5.784300 1.465400
5.825000 1.434400
5.865800 1.435300
5.906500 1.485300
5.947300 1.501400
5.988000 1.510300
6.028800 1.513500
6.069500 1.513200
6.110300 1.580400
6.151000 1.617100
6.191800 1.650100
6.232500 1.669000
6.273300 1.744800
6.314000 1.773200
6.354800 1.795700
6.395500 1.829400
6.436300 1.808900
6.477000 1.802800
6.517800 1.731500
6.558500 1.644500
6.599300 1.618700
6.640000 1.642300
6.680800 2.096500
6.721500 1.655800
6.762300 1.602900
6.803000 1.588000
6.843800 1.554900
6.884500 1.548600
6.925300 1.538100
6.966100 1.517700
7.006800 1.501000
7.047600 1.481400
7.088300 1.463600
7.129100 1.466600
7.169800 1.463600
7.210600 1.515700
7.251300 1.512700
7.292100 1.484800
7.332800 1.463100
7.373600 1.440100
7.414300 1.525200
7.455100 1.483700
7.495800 1.305800
7.536600 1.208000
7.577300 1.100200
7.618100 1.065000
7.658800 1.037200
7.699600 1.051200
7.740300 1.082100
7.781100 1.114800
7.821800 1.145400
7.862600 1.146800
7.903300 1.085200
7.944100 1.107000
7.984800 1.169500
8.025600 1.160900
8.066300 1.150000
8.107100 1.049600
8.147800 1.039200
8.188600 1.030400
8.229300 1.008400
8.270100 0.998000
8.310800 0.993900
8.351600 0.998000
8.392400 1.006000
8.433100 1.057500
8.473900 1.111800
8.514600 1.168000
8.555400 2.022000
8.596100 1.848300
8.636900 1.951800
8.677600 2.050600
8.718400 2.109200
8.759100 2.068400
8.799900 2.063200
8.840600 1.842800
8.881400 1.761100
8.922100 1.821800
8.962900 1.861300
9.003600 1.928700
9.044400 1.879100
9.085100 1.724200
9.125900 1.577000
9.166600 1.542200
9.207400 1.530600
9.248100 1.715100
9.288900 1.663800
9.329600 1.668800
9.370400 1.928400
9.411100 1.583200
9.451900 1.530100
9.492600 1.679600
9.533400 1.757900
9.574100 1.819800
9.614900 1.862100
9.655600 1.839000
9.696400 1.927100
9.737200 1.921200
9.777900 2.154200
9.818700 2.219900
9.859400 2.143800
9.900200 1.740100
9.940900 1.781200
9.981700 1.970000
10.022400 1.441100
10.063200 1.467100
10.103900 1.563400
10.144700 1.716900
10.185400 1.801200
10.226200 1.608400
10.266900 1.602200
10.307700 1.617600
10.348400 1.708400
10.389200 1.769200
10.429900 1.885600
10.470700 1.872900
10.511400 2.051000
10.552200 2.201100
10.592900 2.234800
10.633700 2.198900
10.674400 2.171000
10.715200 2.129300
10.755900 1.943200
10.796700 1.891700
10.837400 1.958400
10.878200 2.056700
10.918900 1.937700
10.959700 1.928500
11.000400 1.949200
11.041200 1.929200
11.081900 1.825500
11.122700 1.753200
11.163500 1.722900
11.204200 1.681200
11.245000 1.712900
11.285700 1.731000
11.326500 1.622500
11.367200 1.716500
11.408000 1.821400
11.448700 1.608800
11.489500 1.496600
11.530200 1.465000
11.571000 1.475500
11.611700 1.478700
11.652500 1.486500
11.693200 1.496100
11.734000 1.523700
11.774700 1.476700
11.815500 1.481300
11.856200 1.601800
11.897000 1.521300
11.937700 1.461400
11.978500 1.446400
12.019200 1.455700
12.060000 1.415500
12.100700 1.307500
12.141500 1.277500
12.182200 1.257500
12.223000 1.246800
12.263700 1.228400
12.304500 1.206300
12.345200 1.340700
12.386000 1.384000
12.426700 1.513100
12.467500 1.533900
12.508300 1.649900
12.549000 1.745300
12.589800 1.801200
12.630500 1.910500
12.671300 1.893100
12.712000 1.832800
12.752800 1.750900
12.793500 1.804500
12.834300 1.891400
12.875000 1.960500
12.915800 1.847000
12.956500 1.607600
12.997300 1.601500
13.038000 1.705800
13.078800 1.775800
13.119500 1.774100
13.160300 1.782900
13.201000 1.807200
13.241800 1.786400
13.282500 1.895400
13.323300 1.858300
13.364000 1.786400
13.404800 1.700700
13.445500 1.648100
13.486300 1.617800
13.527000 1.591200
13.567800 1.575900
13.608500 1.552700
13.649300 1.561400
13.690000 1.587100
13.730800 1.606000
13.771500 1.656800
13.812300 1.651000
13.853000 1.686900
13.893800 1.711800
13.934600 1.774200
13.975300 1.732100
14.016100 1.675700
14.056800 1.656400
14.097600 1.589500
14.138300 1.549200
14.179100 1.772100
14.219800 1.382400
14.260600 1.352400
14.301300 1.323900
14.342100 1.323800
14.382800 1.440700
14.423600 1.501900
14.464300 1.562200
14.505100 1.628500
14.545800 1.718100
14.586600 1.894400
14.627300 1.855300
14.668100 1.942300
14.708800 1.856700
14.749600 1.974400
14.790300 2.034800
14.831100 2.063200
14.871800 2.105700
14.912600 2.112600
14.953300 2.025700
14.994100 1.931900
15.034800 1.727000
15.075600 1.571800
15.116300 1.399000
15.157100 1.428000
15.197800 1.443500
15.238600 1.426600
15.279300 1.450000
15.320100 2.011900
15.360900 2.298100
15.401600 1.995200
15.442400 1.834300
15.483100 1.758500
15.523900 1.773200
15.564600 1.688300
15.605400 1.647100
15.646100 1.625300
15.686900 1.595100
15.727600 1.566300
15.768400 1.538900
15.809100 1.771700
15.849900 1.655500
15.890600 1.711000
15.931400 1.696600
15.972100 1.759000
16.012900 1.860500
16.053600 1.911100
16.094400 1.898100
16.135100 1.938400
16.175900 1.846700
16.216600 1.754400
16.257400 1.729800
16.298100 1.936200
16.338900 1.911500
16.379600 2.157600
16.420400 2.362300
16.461100 2.075600
16.501900 2.097100
16.542600 2.224400
16.583400 2.194900
16.624100 2.239800
16.664900 2.226000
16.705700 2.533000
16.746400 2.227700
16.787200 2.234200
16.827900 2.393300
16.868700 2.223200
16.909400 2.214200
16.950200 2.163900
16.990900 2.067700
17.031700 2.148900
17.072400 2.396100
17.113200 2.396000
17.153900 2.034700
17.194700 1.949100
17.235400 1.926700
17.276200 1.946100
17.316900 2.022000
17.357700 2.093200
17.398400 2.066300
17.439200 2.122000
17.479900 2.173200
17.520700 2.292700
17.561400 2.470600
17.602200 2.453300
17.642900 2.355100
17.683700 2.340500
17.724400 2.386100
17.765200 2.314000
17.805900 2.258600
17.846700 2.255600
17.887400 2.284400
17.928200 2.300200
17.968900 2.118700
18.009700 2.085300
18.050400 2.047600
18.091200 1.985700
18.132000 1.983600
18.172700 2.038900
18.213500 2.010900
18.254200 1.995600
18.295000 1.968500
18.335700 1.935900
18.376500 1.960300
18.417200 2.022100
18.458000 2.149900
18.498700 2.024100
18.539500 2.050000
18.580200 2.131900
18.621000 2.121600
18.661700 2.028300
18.702500 2.039400
18.743200 2.887900
18.784000 2.140400
18.824700 2.128800
18.865500 2.166900
18.906200 2.277400
18.947000 2.295600
18.987700 2.326600
19.028500 2.429700
19.069200 2.398400
19.110000 2.489900
19.150700 2.572700
19.191500 3.393200
19.232200 2.793800
19.273000 2.819800
19.313700 2.476700
19.354500 2.394000
19.395200 2.434700
19.436000 2.371300
19.476800 2.328100
19.517500 2.345500
19.558300 2.322000
19.599000 2.310100
19.639800 2.206100
19.680500 2.092300
19.721300 2.409400
19.762000 2.049100
19.802800 2.039100
19.843500 2.007400
19.884300 1.989500
19.925000 1.954900
19.965800 2.130600
20.006500 2.027900
20.047300 2.075500
20.088000 2.224000
20.128800 2.206300
20.169500 2.064700
20.210300 2.073800
20.251000 2.091600
20.291800 2.117700
20.332500 2.165100
20.373300 2.184500
20.414000 2.369800
20.454800 2.401400
20.495500 2.546700
20.536300 2.640300
20.577000 2.671800
20.617800 2.734900
20.658500 2.781800
20.699300 2.852100
20.740000 2.778800
20.780800 2.574400
20.821500 2.405600
20.862300 2.353200
20.903100 2.328900
20.943800 2.417700
20.984600 2.436500
21.025300 2.459600
21.066100 2.426600
21.106800 2.345600
21.147600 2.260200
21.188300 2.311400
21.229100 2.267100
21.269800 2.288500
21.310600 2.204600
21.351300 2.184700
21.392100 2.447300
21.432800 2.188600
21.473600 2.120600
21.514300 2.005100
21.555100 1.989500
21.595800 1.970600
21.636600 1.963800
21.677300 1.963400
21.718100 2.056200
21.758800 2.124900
21.799600 2.160500
21.840300 2.150000
21.881100 2.185200
21.921800 2.194300
21.962600 2.217600
22.003300 2.246800
22.044100 2.255000
22.084800 2.278700
22.125600 2.174800
22.166300 2.169700
22.207100 2.348600
22.247800 2.219000
22.288600 2.204300
22.329400 2.263000
22.370100 2.341900
22.410900 2.515400
22.451600 2.550400
22.492400 2.711400
22.533100 2.704200
22.573900 2.555500
22.614600 2.574100
22.655400 2.567600
22.696100 2.601700
22.736900 2.581500
22.777600 2.510200
22.818400 2.496000
22.859100 2.492300
22.899900 2.505800
22.940600 2.632200
22.981400 3.053900
23.022100 2.692100
23.062900 2.679300
23.103600 2.796000
23.144400 2.646900
23.185100 2.799700
23.225900 2.943400
23.266600 3.064300
23.307400 2.679000
23.348100 2.596600
23.388900 2.496400
23.429600 2.562200
23.470400 2.584400
23.511100 2.748800
23.551900 2.829700
23.592600 2.724300
23.633400 2.601100
23.674200 2.595600
23.714900 2.553700
23.755700 2.541600
23.796400 2.503500
23.837200 2.498000
23.877900 2.522600
23.918700 2.574400
23.959400 2.570700
24.000200 2.601100
24.040900 2.798500
24.081700 2.635500
24.122400 2.680700
24.163200 2.686800
24.203900 2.607100
24.244700 2.536300
24.285400 2.531100
24.326200 2.505500
24.366900 2.499800
24.407700 2.531900
24.448400 2.564400
24.489200 2.570400
24.529900 2.629800
24.570700 3.462000
24.611400 2.651600
24.652200 2.564900
24.692900 2.659400
24.733700 2.721900
24.774400 2.559500
24.815200 2.526800
24.855900 2.488000
24.896700 2.474100
24.937400 2.631900
24.978200 2.712600
25.018900 2.618200
25.059700 2.547200
25.100500 2.458600
25.141200 2.347700
25.182000 2.304200
25.222700 2.317700
25.263500 2.281400
25.304200 2.282100
25.345000 2.317500
25.385700 2.389800
25.426500 2.314200
25.467200 2.319200
25.508000 2.341000
25.548700 2.362800
25.589500 2.487600
25.630200 2.296700
25.671000 2.370700
25.711700 2.319100
25.752500 2.319300
25.793200 2.506500
25.834000 2.609800
25.874700 2.520200
25.915500 2.451900
25.956200 2.413200
25.997000 2.387300
26.037700 2.406900
26.078500 2.481600
26.119200 2.447200
26.160000 2.567200
26.200700 2.631700
26.241500 2.831400
26.282200 2.571300
26.323000 2.378400
26.363700 2.357300
26.404500 2.482100
26.445300 2.620200
26.486000 2.766300
26.526800 2.549400
26.567500 2.500500
26.608300 2.481200
26.649000 2.515100
26.689800 2.676800
26.730500 2.741200
26.771300 2.555200
26.812000 2.550700
26.852800 2.654300
26.893500 2.833600
26.934300 2.858100
26.975000 2.827300
27.015800 2.795200
27.056500 3.008000
27.097300 2.911600
27.138000 2.973700
27.178800 2.945100
27.219500 3.017600
27.260300 3.010300
27.301000 3.015500
27.341800 3.151800
27.382500 3.137200
27.423300 3.138200
27.464000 3.073000
27.504800 2.822500
27.545500 2.835300
27.586300 2.731800
27.627000 2.595400
27.667800 2.416900
27.708500 2.355400
27.749300 2.403700
27.790000 2.481700
27.830800 2.646800
27.871600 2.690300
27.912300 2.694800
27.953100 2.828600
27.993800 3.202400
28.034600 3.148800
28.075300 2.967900
28.116100 2.893800
28.156800 2.826500
28.197600 2.745800
28.238300 2.847200
28.279100 2.908900
28.319800 2.870500
28.360600 2.695800
28.401300 2.564600
28.442100 2.696400
28.482800 2.845600
28.523600 3.033500
28.564300 2.973700
28.605100 3.090600
28.645800 3.182400
28.686600 3.413100
28.727300 3.462000
28.768100 3.516300
28.808800 3.538200
28.849600 3.332800
28.890300 3.248200
28.931100 3.208600
28.971800 3.139400
29.012600 3.076100
29.053300 3.289400
29.094100 3.096900
29.134800 3.347900
29.175600 3.194100
29.216300 3.267000
29.257100 3.337000
29.297900 3.316800
29.338600 3.207700
29.379400 3.190500
29.420100 3.116500
29.460900 3.106000
29.501600 2.803100
29.542400 2.813800
29.583100 2.911200
29.623900 2.794500
29.664600 2.902300
29.705400 2.785900
29.746100 2.745000
29.786900 2.723900
29.827600 2.784100
29.868400 2.741700
29.909100 2.682900
29.949900 2.607400
29.990600 2.701000
30.031400 2.738500
30.072100 2.970000
30.112900 2.962800
30.153600 3.049400
30.194400 3.101000
30.235100 3.182800
30.275900 3.548900
30.316600 3.008400
30.357400 2.939200
30.398100 2.813200
30.438900 2.957400
30.479600 3.055200
30.520400 2.861100
30.561100 2.823800
30.601900 2.803600
30.642700 3.036200
30.683400 3.069100
30.724200 2.952900
30.764900 2.961300
30.805700 2.879900
30.846400 2.827700
30.887200 2.701900
30.927900 2.495800
30.968700 2.327900
31.009400 2.269100
31.050200 2.285600
31.090900 2.239600
31.131700 2.262300
31.172400 2.221200
31.213200 2.201700
31.253900 2.197800
31.294700 2.247700
31.335400 2.270300
31.376200 2.284800
31.416900 2.300000
31.457700 2.386200
31.498400 2.410700
31.539200 2.370100
31.579900 2.372500
31.620700 2.368800
31.661400 2.282000
31.702200 2.210600
31.742900 2.171300
31.783700 2.125600
31.824400 2.260400
31.865200 2.382400
31.905900 2.553200
31.946700 2.986300
31.987400 2.827700
32.028200 2.753400
32.069000 2.608800
32.109700 2.574300
32.150500 2.627500
32.191200 2.671400
32.232000 2.745200
32.272700 2.854800
32.313500 2.856300
32.354200 2.944200
32.395000 2.957700
32.435700 3.004800
32.476500 2.953400
32.517200 2.819200
32.558000 2.814200
32.598700 2.721000
32.639500 2.620200
32.680200 2.496700
32.721000 2.420900
32.761700 2.354100
32.802500 2.397600
32.843200 2.394200
32.884000 2.307100
32.924700 2.520900
32.965500 2.362600
33.006200 2.535800
33.047000 2.595200
33.087700 2.713400
33.128500 2.336000
33.169200 2.289500
33.210000 2.424100
33.250700 2.475600
33.291500 2.547200
33.332200 2.706700
33.373000 2.900400
33.413800 3.086200
33.454500 3.262500
33.495300 3.280300
33.536000 3.443700
33.576800 3.340500
33.617500 3.378500
33.658300 3.097300
33.699000 3.146200
33.739800 3.042900
33.780500 2.974400
33.821300 2.857500
33.862000 2.889300
33.902800 2.869500
33.943500 2.985000
33.984300 3.065000
34.025000 3.270600
34.065800 3.805700
34.106500 3.637800
34.147300 3.624800
34.188000 3.810300
34.228800 3.794500
34.269500 3.505900
34.310300 3.652800
34.351000 4.204200
34.391800 3.331000
34.432500 3.289400
34.473300 3.279400
34.514000 3.357900
34.554800 3.411700
34.595500 3.156800
34.636300 2.862700
34.677000 2.646900
34.717800 2.826200
34.758500 2.863400
34.799300 2.785000
34.840100 2.781600
34.880800 2.958000
34.921600 3.259900
34.962300 3.729200
35.003100 3.784300
35.043800 3.501800
35.084600 3.504400
35.125300 3.312800
35.166100 3.277500
35.206800 2.972100
35.247600 2.916800
35.288300 3.049700
35.329100 3.184500
35.369800 3.204300
35.410600 2.909700
35.451300 2.872600
35.492100 2.976500
35.532800 3.101500
35.573600 3.094000
35.614300 3.212500
35.655100 3.193400
35.695800 3.340500
35.736600 3.304000
35.777300 3.331900
35.818100 3.337900
35.858800 3.090800
35.899600 3.003200
35.940300 2.908400
35.981100 2.907800
36.021800 2.873500
36.062600 2.876000
36.103300 2.852200
36.144100 2.886000
36.184800 3.003900
36.225600 3.278000
36.266400 3.554300
36.307100 3.594200
36.347900 3.515400
36.388600 3.087600
36.429400 2.996800
36.470100 2.935300
36.510900 3.012000
36.551600 2.988000
36.592400 3.000800
36.633100 3.280800
36.673900 3.087500
36.714600 3.117300
36.755400 3.235200
36.796100 3.092500
36.836900 2.975900
36.877600 3.019300
36.918400 2.977900
36.959100 2.995900
36.999900 2.887600
37.040600 2.773700
37.081400 2.803500
37.122100 2.826000
37.162900 2.872900
37.203600 2.993800
37.244400 3.014100
37.285100 3.069900
37.325900 3.238600
37.366600 3.164800
37.407400 3.416600
37.448100 3.411600
37.488900 3.296300
37.529600 3.004200
37.570400 2.860700
37.611200 2.864400
37.651900 3.161900
37.692700 3.268300
37.733400 3.409000
37.774200 4.021300
37.814900 4.250100
37.855700 3.595100
37.896400 3.357300
37.937200 3.194700
37.977900 2.992500
38.018700 3.201700
38.059400 2.645700
38.100200 2.580000
38.140900 2.724600
38.181700 2.696700
38.222400 2.697400
38.263200 2.702300
38.303900 2.739500
38.344700 2.838500
38.385400 2.867800
38.426200 2.825900
38.466900 2.893800
38.507700 2.926000
38.548400 3.027300
38.589200 3.138000
38.629900 3.284800
38.670700 3.313400
38.711400 3.206600
38.752200 3.230900
38.792900 3.178600
38.833700 3.053700
38.874400 3.141300
38.915200 2.938000
38.955900 2.836800
38.996700 2.860400
39.037500 2.817500
39.078200 2.915800
39.119000 2.909100
39.159700 2.788400
39.200500 3.158100
39.241200 3.116800
39.282000 3.407600
39.322700 3.639700
39.363500 3.279000
39.404200 3.135700
39.445000 3.051400
39.485700 3.022000
39.526500 3.187500
39.567200 3.078300
39.608000 3.169800
39.648700 2.950400
39.689500 3.054900
39.730200 3.271900
39.771000 3.326400
39.811700 3.285300
39.852500 3.213300
39.893200 3.114300
39.934000 2.974700
39.974700 3.005800
40.015500 3.085200
40.056200 3.598900
40.097000 3.496700
40.137700 3.465800
40.178500 3.396300
40.219200 3.539700
40.260000 3.182300
40.300700 3.068300
40.341500 3.078000
40.382300 3.085500
40.423000 3.392600
40.463800 3.582900
40.504500 3.531200
40.545300 3.583000
40.586000 3.636400
40.626800 3.681200
40.667500 3.621000
40.708300 3.628400
40.749000 3.673200
40.789800 4.465200
40.830500 3.502000
40.871300 3.395500
40.912000 3.312000
40.952800 3.218400
40.993500 3.225700
41.034300 3.174900
41.075000 3.528500
41.115800 3.312400
41.156500 3.355000
41.197300 3.412900
41.238000 3.355400
41.278800 3.311300
41.319500 3.375000
41.360300 3.377600
41.401000 3.358400
41.441800 3.295300
41.482500 3.402700
41.523300 3.228300
41.564000 3.272500
41.604800 3.218400
41.645500 3.202100
41.686300 3.229700
41.727000 3.206600
41.767800 3.120800
41.808600 3.277400
41.849300 3.173100
41.890100 3.093300
41.930800 3.083700
41.971600 3.141700
42.012300 3.216300
42.053100 3.089400
42.093800 3.133000
42.134600 3.185000
42.175300 3.177000
42.216100 3.160200
42.256800 3.419100
42.297600 3.276900
42.338300 3.442800
42.379100 3.410300
42.419800 3.549600
42.460600 3.437000
42.501300 3.269900
42.542100 3.247100
42.582800 3.209800
42.623600 3.107100
42.664300 3.023200
42.705100 3.005200
42.745800 3.064000
42.786600 3.351200
42.827300 3.160400
42.868100 3.227300
42.908800 3.336700
42.949600 3.426000
42.990300 3.444000
43.031100 3.528000
43.071800 3.592200
43.112600 3.558300
43.153300 3.472000
43.194100 3.325300
43.234900 3.114500
43.275600 2.998500
43.316400 2.891700
43.357100 2.788000
43.397900 2.801500
43.438600 2.835900
43.479400 2.808800
43.520100 2.821500
43.560900 2.816900
43.601600 2.861600
43.642400 3.024500
43.683100 3.090000
43.723900 3.281200
43.764600 3.251100
43.805400 3.500000
43.846100 3.610800
43.886900 3.584800
43.927600 3.347000
43.968400 3.287500
44.009100 3.206400
44.049900 3.088800
44.090600 3.049700
44.131400 3.068200
44.172100 3.425100
44.212900 3.055300
44.253600 2.933300
44.294400 2.868500
44.335100 2.847000
44.375900 2.851400
44.416600 2.588400
44.457400 2.425300
44.498100 2.426500
44.538900 2.416300
44.579700 2.352600
44.620400 2.349900
44.661200 2.325700
44.701900 2.335600
44.742700 2.251800
44.783400 2.097000
44.824200 2.065400
44.864900 2.062100
44.905700 2.031500
44.946400 2.017800
44.987200 1.987600
45.027900 1.990700
45.068700 1.877200
45.109400 1.799900
45.150200 1.630500
45.190900 1.537000
45.231700 1.509000
45.272400 1.485500
45.313200 1.460400
45.353900 1.449600
45.394700 1.447600
45.435400 1.455800
45.476200 1.432200
45.516900 1.383400
45.557700 1.369400
45.598400 1.368000
45.639200 1.398800
45.679900 1.406400
45.720700 1.455700
45.761400 1.461500
45.802200 1.358000
45.842900 1.359200
45.883700 1.309800
45.924400 1.300800
45.965200 1.287000
46.006000 1.271700
46.046700 1.258200
46.087500 1.240200
46.128200 1.218700
46.169000 1.212400
46.209700 1.300300
46.250500 1.164600
46.291200 1.135300
46.332000 1.104000
46.372700 1.078700
46.413500 1.052800
46.454200 1.025400
46.495000 0.983900
46.535700 0.956400
46.576500 0.927700
46.617200 0.947400
46.658000 0.935200
46.698700 0.897900
46.739500 0.873400
46.780200 1.188000
46.821000 0.812400
46.861700 0.787800
46.902500 0.783300
46.943200 0.790500
46.984000 0.771100
47.024700 0.761100
47.065500 0.747800
47.106200 0.755800
47.147000 0.750300
47.187700 0.747100
47.228500 0.744900
47.269200 0.734500
47.310000 0.732900
47.350800 0.731300
47.391500 0.735200
47.432300 0.735100
47.473000 0.682600
47.513800 0.680300
47.554500 0.678000
47.595300 0.675500
47.636000 0.673100
47.676800 0.670800
47.717500 0.668600
47.758300 0.665400
47.799000 0.663600
47.839800 0.649000
47.880500 0.642100
47.921300 0.636200
47.962000 0.616700
48.002800 0.620100
48.043500 0.644600
48.084300 0.638800
48.125000 0.622900
48.165800 0.608100
48.206500 0.607400
48.247300 0.579100
48.288000 0.560200
48.328800 0.547800
48.369500 0.528100
48.410300 0.509100
48.451000 0.502200
48.491800 0.492500
48.532500 0.484900
48.573300 0.477400
48.614000 0.470500
48.654800 0.460900
48.695500 0.454100
48.736300 0.447500
48.777100 0.441100
48.817800 0.436600
48.858600 0.431500
48.899300 0.426300
48.940100 0.420600
48.980800 0.415300
49.021600 0.410200
49.062300 0.405500
49.103100 0.400700
49.143800 0.393400
49.184600 0.387900
49.225300 0.382300
49.266100 0.368600
49.306800 0.359000
49.347600 0.345900
49.388300 0.341700
49.429100 0.337800
49.469800 0.334200
49.510600 0.361300
49.551300 0.358200
49.592100 0.356600
49.632800 0.355700
49.673600 0.358000
49.714300 0.348300
49.755100 0.410000
49.795800 0.352200
49.836600 0.337700
49.877300 0.316300
49.918100 0.314800
49.958800 0.305000
49.999600 0.302700
50.040300 0.301500
50.081100 0.300500
50.121800 0.299500
50.162600 0.299300
50.203400 0.298800
50.244100 0.328600
50.284900 0.334500
50.325600 0.319800
50.366400 0.310100
50.407100 0.289300
50.447900 0.278900
50.488600 0.268700
50.529400 0.258700
50.570100 0.246000
50.610900 0.235200
50.651600 0.215200
50.692400 0.206900
50.733100 0.199800
50.773900 0.195600
50.814600 0.192700
50.855400 0.189600
50.896100 0.186600
50.936900 0.183700
50.977600 0.182300
51.018400 0.178800
51.059100 0.175400
51.099900 0.171900
51.140600 0.168400
51.181400 0.164900
51.222100 0.195100
51.262900 0.138700
51.303600 0.145000
51.344400 0.151100
51.385100 0.181300
51.425900 0.184800
51.466600 0.189000
51.507400 0.194000
51.548200 0.199800
51.588900 0.131600
51.629700 0.115600
51.670400 0.110300
51.711200 0.107600
51.751900 0.105000
51.792700 0.102600
51.833400 0.100500
51.874200 0.098400
51.914900 0.096400
51.955700 0.094400
51.996400 0.092600
52.037200 0.090800
52.077900 0.089200
52.118700 0.087600
52.159400 0.086100
52.200200 0.084700
52.240900 0.088900
52.281700 0.087600
52.322400 0.086400
52.363200 0.085200
52.403900 0.084000
52.444700 0.082800
52.485400 0.081500
52.526200 0.080300
52.566900 0.071900
52.607700 0.071500
52.648400 0.071100
52.689200 0.070600
52.729900 0.070100
52.770700 0.069500
52.811400 0.068900
52.852200 0.062400
52.892900 0.061400
52.933700 0.060300
52.974500 0.188800
53.015200 0.095700
53.056000 0.074100
53.096700 0.057300
53.137500 0.052900
53.178200 0.050600
53.219000 0.048300
53.259700 0.046100
53.300500 0.043900
53.341200 0.041800
53.382000 0.039700
53.422700 0.037600
53.463500 0.035600
53.504200 0.033700
53.545000 0.031800
53.585700 0.030000
53.626500 0.028200
53.667200 0.026400
53.708000 0.014900
53.748700 0.014300
53.789500 0.013700
53.830200 0.013100
53.871000 0.012500
53.911700 0.011900
53.952500 0.011300
53.993200 0.010800
54.034000 0.010200
54.074700 0.009700
54.115500 0.009200
54.156200 0.008700
54.197000 0.008200
54.237700 0.007700
54.278500 0.007200
54.319300 0.006700
54.360000 0.006300
54.400800 0.005900
54.441500 0.005400
54.482300 0.000000
54.523000 0.000000
54.563800 0.000000
54.604500 0.000000
54.645300 0.000000
54.686000 0.000000
54.726800 0.000000
54.767500 0.000000
54.808300 0.000000
54.849000 0.000000
54.889800 0.000000
54.930500 0.000000
54.971300 0.000000
55.012000 0.000000
55.052800 0.000000
55.093500 0.000000
55.134300 0.000000
55.175000 0.000000
55.215800 0.000000
55.256500 0.000000
55.297300 0.000000
55.338000 0.000000
55.378800 0.000000
55.419500 0.000000
55.460300 0.000000
55.501000 0.000000
55.541800 0.000000
55.582500 0.000000
55.623300 0.000000
55.664000 0.000000
55.704800 0.000000
55.745600 0.000000
55.786300 0.000000
55.827100 0.000000
55.867800 0.000000
55.908600 0.000000
55.949300 0.000000
55.990100 0.000000
56.030800 0.000000
56.071600 0.000000
56.112300 0.000000
56.153100 0.000000
56.193800 0.000000
56.234600 0.000000
56.275300 0.000000
56.316100 0.000000
56.356800 0.000000
56.397600 0.000000
56.438300 0.000000
56.479100 0.000000
56.519800 0.000000
56.560600 0.000000
56.601300 0.000000
56.642100 0.000000
56.682800 0.000000
56.723600 0.000000
56.764300 0.000000
56.805100 0.000000
56.845800 0.000000
56.886600 0.000000
56.927300 0.000000
56.968100 0.000000
57.008800 0.000000
57.049600 0.000000
57.090300 0.000000
57.131100 0.000000
57.171900 0.000000
57.212600 0.000000
57.253400 0.000000
57.294100 0.000000
57.334900 0.000000
57.375600 0.000000
57.416400 0.000000
57.457100 0.000000
57.497900 0.000000
57.538600 0.000000
57.579400 0.000000
57.620100 0.000000
57.660900 0.000000
57.701600 0.000000
57.742400 0.000000
57.783100 0.000000
57.823900 0.000000
57.864600 0.000000
57.905400 0.000000
57.946100 0.000000
57.986900 0.000000
58.027600 0.000000
58.068400 0.000000
58.109100 0.000000
58.149900 0.000000
e
