set title 'mp-20132 - Density of States'
set xlabel 'Energy (eV)'
set ylabel 'DOS (states/eV)'
set grid
set xrange [-10:10]
set yrange [0:30.378]
set xzeroaxis lt -1
set terminal png size 800,600
set output 'mp-20132_dos_gnuplot.png'
plot '-' using 1:2 with lines title 'DOS'
-11.728800 0.000000
-11.712300 0.000000
-11.695800 0.000000
-11.679300 0.000000
-11.662900 0.000000
-11.646400 0.000000
-11.629900 0.000000
-11.613400 0.000000
-11.596900 0.000000
-11.580500 0.000000
-11.564000 0.000000
-11.547500 0.000000
-11.531000 0.000000
-11.514500 0.000000
-11.498000 0.000000
-11.481600 0.000000
-11.465100 0.000000
-11.448600 0.000000
-11.432100 0.000000
-11.415600 0.000000
-11.399200 0.000000
-11.382700 0.000000
-11.366200 0.000000
-11.349700 0.000000
-11.333200 0.000000
-11.316700 0.000000
-11.300300 0.000000
-11.283800 0.000000
-11.267300 0.000000
-11.250800 0.000000
-11.234300 0.000000
-11.217800 0.000000
-11.201400 0.000000
-11.184900 0.000000
-11.168400 0.000000
-11.151900 0.000000
-11.135400 0.000000
-11.119000 0.000000
-11.102500 0.000000
-11.086000 0.000000
-11.069500 0.000000
-11.053000 0.000000
-11.036500 0.000000
-11.020100 0.000000
-11.003600 0.000000
-10.987100 0.000000
-10.970600 0.000000
-10.954100 0.000000
-10.937700 0.000000
-10.921200 0.000000
-10.904700 0.000000
-10.888200 0.000000
-10.871700 0.000000
-10.855200 0.000000
-10.838800 0.000000
-10.822300 0.000000
-10.805800 0.000000
-10.789300 0.000000
-10.772800 0.000000
-10.756400 0.000000
-10.739900 0.000000
-10.723400 0.000000
-10.706900 0.000000
-10.690400 0.000000
-10.673900 0.000000
-10.657500 0.000000
-10.641000 0.000000
-10.624500 0.000000
-10.608000 0.000000
-10.591500 0.000000
-10.575100 0.000000
-10.558600 0.000000
-10.542100 0.000000
-10.525600 0.000000
-10.509100 0.000000
-10.492600 0.000000
-10.476200 0.000000
-10.459700 0.000000
-10.443200 0.000000
-10.426700 0.000000
-10.410200 0.000000
-10.393800 0.000000
-10.377300 0.000000
-10.360800 0.000000
-10.344300 0.000000
-10.327800 0.000000
-10.311300 0.000000
-10.294900 0.000000
-10.278400 0.000000
-10.261900 0.000000
-10.245400 0.000000
-10.228900 1.819800
-10.212500 22.729100
-10.196000 49.699400
-10.179500 74.872900
-10.163000 69.944900
-10.146500 75.857000
-10.130000 78.992200
-10.113600 58.661700
-10.097100 50.766100
-10.080600 30.529400
-10.064100 33.794000
-10.047600 0.000000
-10.031100 0.000000
-10.014700 0.000000
-9.998200 0.000000
-9.981700 0.000000
-9.965200 0.000000
-9.948700 0.000000
-9.932300 0.000000
-9.915800 0.000000
-9.899300 0.000000
-9.882800 0.000000
-9.866300 0.000000
-9.849800 0.000000
-9.833400 0.000000
-9.816900 0.000000
-9.800400 0.000000
-9.783900 0.000000
-9.767400 0.000000
-9.751000 0.000000
-9.734500 0.000000
-9.718000 0.000000
-9.701500 0.000000
-9.685000 0.000000
-9.668500 0.000000
-9.652100 0.000000
-9.635600 0.000000
-9.619100 0.000000
-9.602600 0.000000
-9.586100 0.000000
-9.569700 0.000000
-9.553200 0.000000
-9.536700 0.000000
-9.520200 0.000000
-9.503700 0.000000
-9.487200 0.000000
-9.470800 0.000000
-9.454300 0.000000
-9.437800 0.000000
-9.421300 0.000000
-9.404800 0.000000
-9.388400 0.000000
-9.371900 0.000000
-9.355400 0.000000
-9.338900 0.000000
-9.322400 0.000000
-9.305900 0.000000
-9.289500 0.000000
-9.273000 0.000000
-9.256500 0.000000
-9.240000 0.000000
-9.223500 0.000000
-9.207100 0.000000
-9.190600 0.000000
-9.174100 0.000000
-9.157600 0.000000
-9.141100 0.000000
-9.124600 0.000000
-9.108200 0.000000
-9.091700 0.000000
-9.075200 0.000000
-9.058700 0.000000
-9.042200 0.000000
-9.025800 0.000000
-9.009300 0.000000
-8.992800 0.000000
-8.976300 0.000000
-8.959800 0.000000
-8.943300 0.000000
-8.926900 0.000000
-8.910400 0.000000
-8.893900 0.000000
-8.877400 0.000000
-8.860900 0.000000
-8.844400 0.000000
-8.828000 0.000000
-8.811500 0.000000
-8.795000 0.000000
-8.778500 0.000000
-8.762000 0.000000
-8.745600 0.000000
-8.729100 0.000000
-8.712600 0.000000
-8.696100 0.000000
-8.679600 0.000000
-8.663100 0.000000
-8.646700 0.000000
-8.630200 0.000000
-8.613700 0.000000
-8.597200 0.000000
-8.580700 0.000000
-8.564300 0.000000
-8.547800 0.000000
-8.531300 0.000000
-8.514800 0.000000
-8.498300 0.000000
-8.481800 0.000000
-8.465400 0.000000
-8.448900 0.000000
-8.432400 0.000000
-8.415900 0.000000
-8.399400 0.000000
-8.383000 0.000000
-8.366500 0.000000
-8.350000 0.000000
-8.333500 0.000000
-8.317000 0.000000
-8.300500 0.000000
-8.284100 0.000000
-8.267600 0.000000
-8.251100 0.000000
-8.234600 0.000000
-8.218100 0.000000
-8.201700 0.000000
-8.185200 0.000000
-8.168700 0.000000
-8.152200 0.000000
-8.135700 0.000000
-8.119200 0.000000
-8.102800 0.000000
-8.086300 0.000000
-8.069800 0.000000
-8.053300 0.000000
-8.036800 0.000000
-8.020400 0.000000
-8.003900 0.000000
-7.987400 0.000000
-7.970900 0.000000
-7.954400 0.000000
-7.937900 0.000000
-7.921500 0.000000
-7.905000 0.000000
-7.888500 0.000000
-7.872000 0.000000
-7.855500 0.000000
-7.839100 0.000000
-7.822600 0.000000
-7.806100 0.000000
-7.789600 0.000000
-7.773100 0.000000
-7.756600 0.000000
-7.740200 0.000000
-7.723700 0.000000
-7.707200 0.000000
-7.690700 0.000000
-7.674200 0.000000
-7.657700 0.000000
-7.641300 0.000000
-7.624800 0.000000
-7.608300 0.000000
-7.591800 0.000000
-7.575300 0.000000
-7.558900 0.000000
-7.542400 0.000000
-7.525900 0.000000
-7.509400 0.000000
-7.492900 0.000000
-7.476400 0.000000
-7.460000 0.000000
-7.443500 0.000000
-7.427000 0.000000
-7.410500 0.000000
-7.394000 0.000000
-7.377600 0.000000
-7.361100 0.000000
-7.344600 0.000000
-7.328100 0.000000
-7.311600 0.000000
-7.295100 0.000000
-7.278700 0.000000
-7.262200 0.000000
-7.245700 0.000000
-7.229200 0.000000
-7.212700 0.000000
-7.196300 0.000000
-7.179800 0.000000
-7.163300 0.000000
-7.146800 0.000000
-7.130300 0.000000
-7.113800 0.000000
-7.097400 0.000000
-7.080900 0.000000
-7.064400 0.000000
-7.047900 0.000000
-7.031400 0.000000
-7.015000 0.000000
-6.998500 0.000000
-6.982000 0.000000
-6.965500 0.000000
-6.949000 0.000000
-6.932500 0.000000
-6.916100 0.000000
-6.899600 0.000000
-6.883100 0.000000
-6.866600 0.000000
-6.850100 0.000000
-6.833700 0.000000
-6.817200 0.000000
-6.800700 0.000000
-6.784200 0.000000
-6.767700 0.000000
-6.751200 0.000000
-6.734800 0.000000
-6.718300 0.000000
-6.701800 0.000000
-6.685300 0.000000
-6.668800 0.000000
-6.652400 0.000000
-6.635900 0.000000
-6.619400 0.000000
-6.602900 0.000000
-6.586400 0.000000
-6.569900 0.000000
-6.553500 0.000000
-6.537000 0.000000
-6.520500 0.000000
-6.504000 0.000000
-6.487500 0.000000
-6.471000 0.000000
-6.454600 0.000000
-6.438100 0.000000
-6.421600 0.000000
-6.405100 0.000000
-6.388600 0.000000
-6.372200 0.000000
-6.355700 0.000000
-6.339200 0.000000
-6.322700 0.000000
-6.306200 0.000000
-6.289700 0.000000
-6.273300 0.000000
-6.256800 0.000000
-6.240300 0.000000
-6.223800 0.000000
-6.207300 0.000000
-6.190900 0.000000
-6.174400 0.000000
-6.157900 0.000000
-6.141400 0.000000
-6.124900 0.000000
-6.108400 0.000000
-6.092000 0.000000
-6.075500 0.000000
-6.059000 0.000000
-6.042500 0.000000
-6.026000 0.000000
-6.009600 0.000000
-5.993100 0.000000
-5.976600 0.000000
-5.960100 0.000000
-5.943600 0.000000
-5.927100 0.000000
-5.910700 0.000000
-5.894200 0.000000
-5.877700 0.000000
-5.861200 0.000000
-5.844700 0.000000
-5.828300 0.000000
-5.811800 0.000000
-5.795300 0.000000
-5.778800 0.000000
-5.762300 0.000000
-5.745800 0.000000
-5.729400 0.000000
-5.712900 0.000000
-5.696400 0.000000
-5.679900 0.000000
-5.663400 0.000000
-5.647000 0.000000
-5.630500 0.000000
-5.614000 0.000000
-5.597500 0.000000
-5.581000 0.000000
-5.564500 0.000000
-5.548100 0.000000
-5.531600 0.000000
-5.515100 0.000000
-5.498600 0.000000
-5.482100 0.000000
-5.465700 0.000000
-5.449200 0.000000
-5.432700 0.000000
-5.416200 0.000000
-5.399700 0.000000
-5.383200 0.000000
-5.366800 0.000000
-5.350300 0.000000
-5.333800 0.000000
-5.317300 0.000000
-5.300800 0.000000
-5.284300 0.000000
-5.267900 0.000000
-5.251400 0.000000
-5.234900 0.000000
-5.218400 0.000000
-5.201900 0.000000
-5.185500 0.000000
-5.169000 0.000000
-5.152500 0.000000
-5.136000 0.000000
-5.119500 0.000000
-5.103000 0.000000
-5.086600 0.000000
-5.070100 0.000000
-5.053600 0.000000
-5.037100 0.000000
-5.020600 0.000000
-5.004200 0.000000
-4.987700 0.000000
-4.971200 0.000000
-4.954700 0.000000
-4.938200 0.000000
-4.921700 0.000000
-4.905300 0.000000
-4.888800 0.000000
-4.872300 0.000000
-4.855800 0.000000
-4.839300 0.000000
-4.822900 0.000000
-4.806400 0.000000
-4.789900 0.000000
-4.773400 0.000000
-4.756900 0.000000
-4.740400 0.000000
-4.724000 0.000000
-4.707500 0.000000
-4.691000 0.000000
-4.674500 0.000000
-4.658000 0.000000
-4.641600 0.000000
-4.625100 0.000000
-4.608600 0.000000
-4.592100 0.000000
-4.575600 0.000000
-4.559100 0.000000
-4.542700 0.000000
-4.526200 0.000000
-4.509700 0.000000
-4.493200 0.000000
-4.476700 0.000000
-4.460300 0.000000
-4.443800 0.000000
-4.427300 0.000000
-4.410800 0.000000
-4.394300 0.000000
-4.377800 0.000000
-4.361400 0.000200
-4.344900 0.011800
-4.328400 0.040600
-4.311900 0.077300
-4.295400 0.074400
-4.278900 0.084000
-4.262500 0.095000
-4.246000 0.106700
-4.229500 0.118700
-4.213000 0.128900
-4.196500 0.135800
-4.180100 0.141000
-4.163600 0.145800
-4.147100 0.151900
-4.130600 0.158700
-4.114100 0.166000
-4.097600 0.173400
-4.081200 0.180900
-4.064700 0.187500
-4.048200 0.194100
-4.031700 0.199200
-4.015200 0.204600
-3.998800 0.210200
-3.982300 0.215800
-3.965800 0.220800
-3.949300 0.226300
-3.932800 0.232000
-3.916300 0.237800
-3.899900 0.243800
-3.883400 0.249900
-3.866900 0.256000
-3.850400 0.261900
-3.833900 0.268100
-3.817500 0.274000
-3.801000 0.279700
-3.784500 0.285400
-3.768000 0.291700
-3.751500 0.298100
-3.735000 0.304600
-3.718600 0.311400
-3.702100 0.318100
-3.685600 0.324900
-3.669100 0.331900
-3.652600 0.339200
-3.636200 0.346800
-3.619700 0.354600
-3.603200 0.362900
-3.586700 0.371500
-3.570200 0.380400
-3.553700 0.389800
-3.537300 0.400200
-3.520800 0.411200
-3.504300 0.422800
-3.487800 0.435300
-3.471300 0.448600
-3.454900 0.462900
-3.438400 0.478100
-3.421900 0.494400
-3.405400 0.511800
-3.388900 0.530500
-3.372400 0.551900
-3.356000 0.576200
-3.339500 0.605800
-3.323000 0.643300
-3.306500 0.686600
-3.290000 0.738500
-3.273600 0.809400
-3.257100 1.912200
-3.240600 2.848300
-3.224100 3.156400
-3.207600 3.307900
-3.191100 3.459600
-3.174700 3.493600
-3.158200 3.674500
-3.141700 3.886200
-3.125200 4.128500
-3.108700 4.467300
-3.092200 5.292100
-3.075800 5.648000
-3.059300 5.431800
-3.042800 5.340600
-3.026300 5.044600
-3.009800 4.892400
-2.993400 4.398400
-2.976900 3.988700
-2.960400 3.794800
-2.943900 3.786400
-2.927400 4.030900
-2.910900 3.711200
-2.894500 3.310800
-2.878000 2.470700
-2.861500 2.133300
-2.845000 1.865200
-2.828500 1.897900
-2.812100 1.719800
-2.795600 2.614900
-2.779100 3.369000
-2.762600 5.991100
-2.746100 12.005800
-2.729600 13.296700
-2.713200 15.806200
-2.696700 16.639700
-2.680200 17.831800
-2.663700 13.649600
-2.647200 11.590800
-2.630800 12.001900
-2.614300 12.673800
-2.597800 15.330500
-2.581300 25.392600
-2.564800 27.616600
-2.548300 23.165000
-2.531900 21.866700
-2.515400 23.678400
-2.498900 22.179600
-2.482400 20.287800
-2.465900 13.730600
-2.449500 18.397900
-2.433000 17.664800
-2.416500 14.468000
-2.400000 16.129700
-2.383500 14.240800
-2.367000 7.868500
-2.350600 7.696800
-2.334100 7.725900
-2.317600 8.029700
-2.301100 8.520100
-2.284600 8.784900
-2.268200 7.780100
-2.251700 6.489100
-2.235200 6.193900
-2.218700 5.677300
-2.202200 5.346400
-2.185700 5.287100
-2.169300 5.004800
-2.152800 5.104400
-2.136300 1.445200
-2.119800 0.745700
-2.103300 0.712400
-2.086900 0.678600
-2.070400 0.661100
-2.053900 0.647700
-2.037400 0.638100
-2.020900 0.631200
-2.004400 0.624900
-1.988000 0.619900
-1.971500 0.616000
-1.955000 0.613300
-1.938500 0.611300
-1.922000 0.609200
-1.905500 0.606300
-1.889100 0.602800
-1.872600 0.599200
-1.856100 0.594600
-1.839600 0.582100
-1.823100 0.573900
-1.806700 0.569700
-1.790200 0.568700
-1.773700 0.571400
-1.757200 0.573100
-1.740700 0.573500
-1.724200 0.570900
-1.707800 0.568900
-1.691300 0.568800
-1.674800 0.568900
-1.658300 0.569200
-1.641800 0.569800
-1.625400 0.570500
-1.608900 0.571300
-1.592400 0.572200
-1.575900 0.573200
-1.559400 0.574400
-1.542900 0.576000
-1.526500 0.577900
-1.510000 0.584000
-1.493500 0.598200
-1.477000 0.588500
-1.460500 0.576200
-1.444100 0.574300
-1.427600 0.574600
-1.411100 0.575400
-1.394600 0.576200
-1.378100 0.577200
-1.361600 0.578800
-1.345200 0.580200
-1.328700 0.580500
-1.312200 0.579800
-1.295700 0.579100
-1.279200 0.578400
-1.262800 0.577900
-1.246300 0.577300
-1.229800 0.576900
-1.213300 0.576600
-1.196800 0.576400
-1.180300 0.576400
-1.163900 0.576700
-1.147400 0.577500
-1.130900 0.578600
-1.114400 0.579900
-1.097900 0.581300
-1.081500 0.583000
-1.065000 0.584900
-1.048500 0.587000
-1.032000 0.589100
-1.015500 0.591000
-0.999000 0.593200
-0.982600 0.595000
-0.966100 0.596700
-0.949600 0.598300
-0.933100 0.600000
-0.916600 0.601600
-0.900200 0.603400
-0.883700 0.604500
-0.867200 0.605000
-0.850700 0.605700
-0.834200 0.606700
-0.817700 0.608000
-0.801300 0.609400
-0.784800 0.610900
-0.768300 0.612400
-0.751800 0.613900
-0.735300 0.615200
-0.718800 0.617000
-0.702400 0.619300
-0.685900 0.621800
-0.669400 0.624100
-0.652900 0.626400
-0.636400 0.628700
-0.620000 0.631200
-0.603500 0.633800
-0.587000 0.636600
-0.570500 0.639300
-0.554000 0.642100
-0.537500 0.644900
-0.521100 0.648100
-0.504600 0.651800
-0.488100 0.656300
-0.471600 0.663000
-0.455100 0.670100
-0.438700 0.677500
-0.422200 0.685100
-0.405700 0.692700
-0.389200 0.698600
-0.372700 0.702000
-0.356200 0.703100
-0.339800 0.702400
-0.323300 0.700000
-0.306800 0.695500
-0.290300 0.691200
-0.273800 0.690100
-0.257400 0.690400
-0.240900 0.690800
-0.224400 0.691000
-0.207900 0.690400
-0.191400 0.689800
-0.174900 0.690000
-0.158500 0.691100
-0.142000 0.694000
-0.125500 0.701600
-0.109000 0.714400
-0.092500 0.698600
-0.076100 0.692600
-0.059600 0.695500
-0.043100 0.693900
-0.026600 0.686400
-0.010100 0.678100
0.006400 0.675500
0.022800 0.673900
0.039300 0.672800
0.055800 0.672200
0.072300 0.672100
0.088800 0.672800
0.105200 0.673700
0.121700 0.675000
0.138200 0.676900
0.154700 0.679100
0.171200 0.681000
0.187700 0.682800
0.204100 0.684600
0.220600 0.686300
0.237100 0.688000
0.253600 0.690300
0.270100 0.692900
0.286500 0.696300
0.303000 0.700900
0.319500 0.706700
0.336000 0.714600
0.352500 0.736600
0.369000 0.761700
0.385400 0.789900
0.401900 0.819000
0.418400 0.900600
0.434900 0.874200
0.451400 0.885500
0.467900 0.897000
0.484300 0.908700
0.500800 0.916700
0.517300 0.906600
0.533800 0.908400
0.550300 0.911200
0.566700 0.907100
0.583200 0.892500
0.599700 0.881000
0.616200 0.875900
0.632700 0.862600
0.649200 0.856600
0.665600 0.854600
0.682100 0.866700
0.698600 0.873800
0.715100 0.868200
0.731600 0.859500
0.748000 0.857400
0.764500 0.857300
0.781000 0.858500
0.797500 0.856800
0.814000 0.852200
0.830500 0.844200
0.846900 0.832000
0.863400 0.822900
0.879900 0.818600
0.896400 0.819200
0.912900 0.821500
0.929300 0.857100
0.945800 0.867500
0.962300 0.831900
0.978800 0.824600
0.995300 0.819700
1.011800 0.815600
1.028200 0.811500
1.044700 0.814200
1.061200 0.809200
1.077700 0.795400
1.094200 0.756000
1.110600 0.697400
1.127100 0.674400
1.143600 0.669000
1.160100 0.667900
1.176600 0.670900
1.193100 0.675800
1.209500 0.680600
1.226000 0.682700
1.242500 0.677500
1.259000 0.675900
1.275500 0.675700
1.291900 0.678100
1.308400 0.680900
1.324900 0.684200
1.341400 0.687700
1.357900 0.691900
1.374400 0.696800
1.390800 0.701100
1.407300 0.705900
1.423800 0.710700
1.440300 0.713700
1.456800 0.714900
1.473200 0.722100
1.489700 0.725800
1.506200 0.725500
1.522700 0.723700
1.539200 0.722500
1.555700 0.719900
1.572100 0.715900
1.588600 0.708800
1.605100 0.698100
1.621600 0.686300
1.638100 0.673600
1.654600 0.661600
1.671000 0.650400
1.687500 0.644500
1.704000 0.640700
1.720500 0.637600
1.737000 0.634200
1.753400 0.629700
1.769900 0.623700
1.786400 0.617400
1.802900 0.614100
1.819400 0.612400
1.835900 0.611800
1.852300 0.611600
1.868800 0.615600
1.885300 0.622800
1.901800 0.632800
1.918300 0.674800
1.934700 0.663000
1.951200 0.652100
1.967700 0.656400
1.984200 0.662000
2.000700 0.662000
2.017200 0.657100
2.033600 0.651600
2.050100 0.645300
2.066600 0.636000
2.083100 0.628800
2.099600 0.621200
2.116000 0.613900
2.132500 0.608100
2.149000 0.604500
2.165500 0.604800
2.182000 0.607000
2.198500 0.609700
2.214900 0.614200
2.231400 0.620000
2.247900 0.624700
2.264400 0.629000
2.280900 0.636800
2.297300 0.648200
2.313800 0.657500
2.330300 0.656500
2.346800 0.648700
2.363300 0.638500
2.379800 0.629200
2.396200 0.622800
2.412700 0.621000
2.429200 0.617000
2.445700 0.608400
2.462200 0.605900
2.478600 0.606100
2.495100 0.608000
2.511600 0.610800
2.528100 0.616300
2.544600 0.622700
2.561100 0.629000
2.577500 0.635700
2.594000 0.643200
2.610500 0.650900
2.627000 0.658000
2.643500 0.664300
2.660000 0.669700
2.676400 0.673600
2.692900 0.677700
2.709400 0.681600
2.725900 0.683500
2.742400 0.685500
2.758800 0.688600
2.775300 0.691600
2.791800 0.694300
2.808300 0.696800
2.824800 0.702000
2.841300 0.704300
2.857700 0.702100
2.874200 0.699900
2.890700 0.698100
2.907200 0.697400
2.923700 0.698500
2.940100 0.701700
2.956600 0.706200
2.973100 0.711100
2.989600 0.716300
3.006100 0.721600
3.022600 0.727400
3.039000 0.733800
3.055500 0.740300
3.072000 0.747300
3.088500 0.741400
3.105000 0.738400
3.121400 0.739300
3.137900 0.738100
3.154400 0.734500
3.170900 0.732500
3.187400 0.730900
3.203900 0.728000
3.220300 0.723800
3.236800 0.718200
3.253300 0.711000
3.269800 0.702900
3.286300 0.694400
3.302700 0.686000
3.319200 0.680100
3.335700 0.675500
3.352200 0.671300
3.368700 0.666800
3.385200 0.662700
3.401600 0.661900
3.418100 0.660900
3.434600 0.659100
3.451100 0.657800
3.467600 0.656800
3.484000 0.655900
3.500500 0.655100
3.517000 0.655200
3.533500 0.655500
3.550000 0.655900
3.566500 0.656300
3.582900 0.657000
3.599400 0.658200
3.615900 0.659400
3.632400 0.661200
3.648900 0.663300
3.665300 0.665200
3.681800 0.662300
3.698300 0.662500
3.714800 0.668200
3.731300 0.664000
3.747800 0.669700
3.764200 0.676200
3.780700 0.681600
3.797200 0.687200
3.813700 0.692100
3.830200 0.695500
3.846700 0.702800
3.863100 0.712600
3.879600 0.725100
3.896100 0.741100
3.912600 0.755500
3.929100 0.770000
3.945500 0.779500
3.962000 0.787500
3.978500 0.795300
3.995000 0.802700
4.011500 0.810300
4.028000 0.818700
4.044400 0.828600
4.060900 0.841100
4.077400 0.856300
4.093900 0.873600
4.110400 0.892900
4.126800 0.915800
4.143300 0.937800
4.159800 0.957500
4.176300 0.981300
4.192800 0.987400
4.209300 0.960200
4.225700 0.953400
4.242200 0.944800
4.258700 0.935600
4.275200 0.925700
4.291700 0.914900
4.308100 0.904000
4.324600 0.895300
4.341100 0.888400
4.357600 0.879700
4.374100 0.870600
4.390600 0.863500
4.407000 0.860800
4.423500 0.858900
4.440000 0.856500
4.456500 0.851300
4.473000 0.848800
4.489400 0.849100
4.505900 0.850800
4.522400 0.854600
4.538900 0.857000
4.555400 0.855500
4.571900 0.852600
4.588300 0.851000
4.604800 0.850300
4.621300 0.850700
4.637800 0.851700
4.654300 0.853300
4.670700 0.856500
4.687200 0.857800
4.703700 0.855700
4.720200 0.852200
4.736700 0.851100
4.753200 0.852500
4.769600 0.855700
4.786100 0.859800
4.802600 0.864900
4.819100 0.870800
4.835600 0.877600
4.852000 0.883900
4.868500 0.890600
4.885000 0.899000
4.901500 0.909600
4.918000 0.926500
4.934500 0.942500
4.950900 0.953500
4.967400 0.961500
4.983900 0.964900
5.000400 0.974000
5.016900 0.984000
5.033400 0.996000
5.049800 1.007200
5.066300 1.015700
5.082800 1.021800
5.099300 1.025600
5.115800 1.026500
5.132200 1.025000
5.148700 1.020600
5.165200 1.030900
5.181700 1.021600
5.198200 1.024900
5.214700 1.016900
5.231100 1.003400
5.247600 0.995400
5.264100 0.988500
5.280600 0.979000
5.297100 0.969300
5.313500 0.959800
5.330000 0.950400
5.346500 0.942400
5.363000 0.935900
5.379500 0.931400
5.396000 0.930100
5.412400 0.922400
5.428900 0.919500
5.445400 0.905100
5.461900 0.897100
5.478400 0.886900
5.494800 0.880200
5.511300 0.874600
5.527800 0.870000
5.544300 0.866300
5.560800 0.863500
5.577300 0.861400
5.593700 0.859800
5.610200 0.858700
5.626700 0.859000
5.643200 0.860300
5.659700 0.863800
5.676100 0.868700
5.692600 0.867800
5.709100 0.859400
5.725600 0.844900
5.742100 0.831400
5.758600 0.820700
5.775000 0.813300
5.791500 0.809400
5.808000 0.808200
5.824500 0.808100
5.841000 0.807600
5.857400 0.808300
5.873900 0.810500
5.890400 0.813600
5.906900 0.817600
5.923400 0.822400
5.939900 0.828300
5.956300 0.834500
5.972800 0.841200
5.989300 0.848400
6.005800 0.856500
6.022300 0.865600
6.038700 0.875200
6.055200 0.883000
6.071700 0.890200
6.088200 0.899500
6.104700 0.909400
6.121200 0.910100
6.137600 0.908400
6.154100 0.904700
6.170600 0.901900
6.187100 0.900600
6.203600 0.897700
6.220100 0.894000
6.236500 0.891900
6.253000 0.887300
6.269500 0.881200
6.286000 0.874100
6.302500 0.868300
6.318900 0.863700
6.335400 0.860300
6.351900 0.858600
6.368400 0.858000
6.384900 0.858700
6.401400 0.860000
6.417800 0.861700
6.434300 0.864300
6.450800 0.868200
6.467300 0.872700
6.483800 0.877500
6.500200 0.882500
6.516700 0.887400
6.533200 0.893100
6.549700 0.900100
6.566200 0.909100
6.582700 0.915500
6.599100 0.920900
6.615600 0.928100
6.632100 0.936900
6.648600 0.946700
6.665100 0.957200
6.681500 0.968000
6.698000 0.979400
6.714500 0.994600
6.731000 1.018100
6.747500 1.042900
6.764000 1.069200
6.780400 1.095400
6.796900 1.121900
6.813400 1.148300
6.829900 1.173900
6.846400 1.202100
6.862800 1.235300
6.879300 1.265400
6.895800 1.275600
6.912300 1.295100
6.928800 1.304400
6.945300 1.301400
6.961700 1.288400
6.978200 1.276100
6.994700 1.279000
7.011200 1.270900
7.027700 1.262600
7.044100 1.252900
7.060600 1.253900
7.077100 1.226100
7.093600 1.207600
7.110100 1.199100
7.126600 1.191300
7.143000 1.181500
7.159500 1.172000
7.176000 1.169000
7.192500 1.166500
7.209000 1.164300
7.225400 1.161300
7.241900 1.158300
7.258400 1.155100
7.274900 1.152000
7.291400 1.149200
7.307900 1.147200
7.324300 1.145500
7.340800 1.144800
7.357300 1.146400
7.373800 1.151000
7.390300 1.156500
7.406800 1.161700
7.423200 1.167700
7.439700 1.174800
7.456200 1.182800
7.472700 1.189500
7.489200 1.196300
7.505600 1.203100
7.522100 1.207100
7.538600 1.205700
7.555100 1.204400
7.571600 1.206600
7.588100 1.208300
7.604500 1.198100
7.621000 1.191200
7.637500 1.183700
7.654000 1.178400
7.670500 1.173000
7.686900 1.166000
7.703400 1.158300
7.719900 1.150400
7.736400 1.150800
7.752900 1.143900
7.769400 1.129600
7.785800 1.120600
7.802300 1.109000
7.818800 1.095800
7.835300 1.084800
7.851800 1.078500
7.868200 1.074800
7.884700 1.073400
7.901200 1.074300
7.917700 1.074400
7.934200 1.076900
7.950700 1.080700
7.967100 1.083900
7.983600 1.086100
8.000100 1.086900
8.016600 1.087400
8.033100 1.087800
8.049500 1.088100
8.066000 1.089000
8.082500 1.090400
8.099000 1.092300
8.115500 1.095400
8.132000 1.100000
8.148400 1.106200
8.164900 1.111300
8.181400 1.115500
8.197900 1.118900
8.214400 1.123400
8.230800 1.131000
8.247300 1.133200
8.263800 1.135300
8.280300 1.140300
8.296800 1.141300
8.313300 1.134000
8.329700 1.129000
8.346200 1.125800
8.362700 1.124400
8.379200 1.123400
8.395700 1.122300
8.412100 1.122400
8.428600 1.121300
8.445100 1.120100
8.461600 1.120900
8.478100 1.121800
8.494600 1.122000
8.511000 1.121200
8.527500 1.119900
8.544000 1.118900
8.560500 1.117400
8.577000 1.115300
8.593500 1.112400
8.609900 1.109000
8.626400 1.105700
8.642900 1.102500
8.659400 1.099100
8.675900 1.095700
8.692300 1.093800
8.708800 1.092600
8.725300 1.090700
8.741800 1.088300
8.758300 1.086000
8.774800 1.083800
8.791200 1.081600
8.807700 1.079400
8.824200 1.077700
8.840700 1.075900
8.857200 1.074000
8.873600 1.073900
8.890100 1.077900
8.906600 1.078300
8.923100 1.076800
8.939600 1.076100
8.956100 1.076000
8.972500 1.076300
8.989000 1.077200
9.005500 1.078700
9.022000 1.080200
9.038500 1.080900
9.054900 1.080700
9.071400 1.081000
9.087900 1.079100
9.104400 1.076300
9.120900 1.079600
9.137400 1.082200
9.153800 1.081200
9.170300 1.072700
9.186800 1.067400
9.203300 1.059300
9.219800 1.055400
9.236200 1.051600
9.252700 1.047000
9.269200 1.041200
9.285700 1.033200
9.302200 1.025000
9.318700 1.018900
9.335100 1.014400
9.351600 1.011400
9.368100 1.009900
9.384600 1.009400
9.401100 1.009000
9.417500 1.008500
9.434000 1.008300
9.450500 1.008500
9.467000 1.009100
9.483500 1.011000
9.500000 1.014300
9.516400 1.017600
9.532900 1.019000
9.549400 1.018400
9.565900 1.016200
9.582400 1.012200
9.598900 1.007700
9.615300 1.003000
9.631800 0.998100
9.648300 0.993700
9.664800 0.990000
9.681300 0.987100
9.697700 0.984600
9.714200 0.982500
9.730700 0.981400
9.747200 0.981100
9.763700 0.980700
9.780200 0.980000
9.796600 0.979000
9.813100 0.978200
9.829600 0.977400
9.846100 0.977500
9.862600 0.978100
9.879000 0.978900
9.895500 0.980000
9.912000 0.981500
9.928500 0.983100
9.945000 0.984300
9.961500 0.984200
9.977900 0.984500
9.994400 0.985700
10.010900 0.988400
10.027400 0.991800
10.043900 0.995200
10.060300 0.998600
10.076800 1.002100
10.093300 1.006100
10.109800 1.005800
10.126300 1.002600
10.142800 0.997000
10.159200 0.992700
10.175700 0.991700
10.192200 0.991600
10.208700 0.990900
10.225200 0.987900
10.241600 0.985200
10.258100 0.983700
10.274600 0.983400
10.291100 0.984600
10.307600 0.988100
10.324100 0.990900
10.340500 0.993900
10.357000 0.991400
10.373500 0.985600
10.390000 0.988900
10.406500 0.991700
10.422900 0.994000
10.439400 0.996300
10.455900 1.000200
10.472400 1.006600
10.488900 1.011100
10.505400 1.012300
10.521800 1.008600
10.538300 1.000100
10.554800 0.991200
10.571300 0.984400
10.587800 0.979800
10.604200 0.976200
10.620700 0.973200
10.637200 0.970800
10.653700 0.968500
10.670200 0.966200
10.686700 0.964200
10.703100 0.962800
10.719600 0.961500
10.736100 0.959900
10.752600 0.958400
10.769100 0.957200
10.785600 0.956100
10.802000 0.955300
10.818500 0.954300
10.835000 0.953000
10.851500 0.951500
10.868000 0.951500
10.884400 0.951800
10.900900 0.952600
10.917400 0.953400
10.933900 0.955200
10.950400 0.956300
10.966900 0.959000
10.983300 0.963200
10.999800 0.971500
11.016300 0.992300
11.032800 1.020100
11.049300 1.036800
11.065700 1.050800
11.082200 1.063200
11.098700 1.074000
11.115200 1.084000
11.131700 1.095100
11.148200 1.106000
11.164600 1.117100
11.181100 1.129200
11.197600 1.143600
11.214100 1.163400
11.230600 1.186900
11.247000 1.214100
11.263500 1.247900
11.280000 1.275700
11.296500 1.287300
11.313000 1.291100
11.329500 1.283900
11.345900 1.273500
11.362400 1.265400
11.378900 1.262000
11.395400 1.259200
11.411900 1.252000
11.428300 1.248600
11.444800 1.246800
11.461300 1.245700
11.477800 1.243800
11.494300 1.241800
11.510800 1.243200
11.527200 1.246600
11.543700 1.245700
11.560200 1.251100
11.576700 1.256300
11.593200 1.252100
11.609600 1.248600
11.626100 1.248400
11.642600 1.248900
11.659100 1.248800
11.675600 1.246800
11.692100 1.242100
11.708500 1.245000
11.725000 1.221200
11.741500 1.216900
11.758000 1.214800
11.774500 1.213600
11.790900 1.213100
11.807400 1.213700
11.823900 1.228600
11.840400 1.241900
11.856900 1.239900
11.873400 1.240900
11.889800 1.243900
11.906300 1.250300
11.922800 1.259900
11.939300 1.265800
11.955800 1.271400
11.972300 1.274800
11.988700 1.278000
12.005200 1.282800
12.021700 1.290900
12.038200 1.299700
12.054700 1.305700
12.071100 1.310700
12.087600 1.315400
12.104100 1.319000
12.120600 1.322400
12.137100 1.333100
12.153600 1.375900
12.170000 1.381800
12.186500 1.357100
12.203000 1.350200
12.219500 1.345900
12.236000 1.339300
12.252400 1.336000
12.268900 1.336700
12.285400 1.344000
12.301900 1.354300
12.318400 1.365600
12.334900 1.380200
12.351300 1.397100
12.367800 1.419500
12.384300 1.446200
12.400800 1.461300
12.417300 1.472800
12.433700 1.483600
12.450200 1.496800
12.466700 1.513800
12.483200 1.544700
12.499700 1.562400
12.516200 1.576300
12.532600 1.581500
12.549100 1.582100
12.565600 1.584400
12.582100 1.584900
12.598600 1.585400
12.615000 1.586000
12.631500 1.587600
12.648000 1.589800
12.664500 1.592500
12.681000 1.595300
12.697500 1.597100
12.713900 1.598800
12.730400 1.602700
12.746900 1.608800
12.763400 1.616900
12.779900 1.624800
12.796300 1.631700
12.812800 1.638100
12.829300 1.645200
12.845800 1.653600
12.862300 1.656600
12.878800 1.665900
12.895200 1.678100
12.911700 1.689900
12.928200 1.695500
12.944700 1.699400
12.961200 1.702000
12.977600 1.704300
12.994100 1.707400
13.010600 1.713600
13.027100 1.722100
13.043600 1.729800
13.060100 1.747200
13.076500 1.773600
13.093000 1.782800
13.109500 1.771200
13.126000 1.745600
13.142500 1.714300
13.159000 1.685300
13.175400 1.658300
13.191900 1.633100
13.208400 1.610500
13.224900 1.595200
13.241400 1.587200
13.257800 1.586800
13.274300 1.591000
13.290800 1.599700
13.307300 1.612400
13.323800 1.628900
13.340300 1.643400
13.356700 1.653900
13.373200 1.660100
13.389700 1.665600
13.406200 1.661400
13.422700 1.653800
13.439100 1.642700
13.455600 1.623000
13.472100 1.600500
13.488600 1.595700
13.505100 1.599500
13.521600 1.604600
13.538000 1.601600
13.554500 1.603100
13.571000 1.606900
13.587500 1.613900
13.604000 1.636600
13.620400 1.662400
13.636900 1.669900
13.653400 1.665700
13.669900 1.671400
13.686400 1.682400
13.702900 1.691400
13.719300 1.693100
13.735800 1.692600
13.752300 1.689600
13.768800 1.686000
13.785300 1.679500
13.801700 1.657400
13.818200 1.652600
13.834700 1.641800
13.851200 1.623400
13.867700 1.608700
13.884200 1.593100
13.900600 1.576500
13.917100 1.558500
13.933600 1.542500
13.950100 1.532300
13.966600 1.526800
13.983000 1.523000
13.999500 1.520500
14.016000 1.515400
14.032500 1.512500
14.049000 1.510900
14.065500 1.511300
14.081900 1.516100
14.098400 1.524200
14.114900 1.536900
14.131400 1.553600
14.147900 1.577900
14.164300 1.597800
14.180800 1.613100
14.197300 1.626700
14.213800 1.637900
14.230300 1.646500
14.246800 1.650400
14.263200 1.632200
14.279700 1.626400
14.296200 1.639200
14.312700 1.652200
14.329200 1.664300
14.345700 1.671000
14.362100 1.674300
14.378600 1.673100
14.395100 1.659100
14.411600 1.638300
14.428100 1.643200
14.444500 1.575900
14.461000 1.562800
14.477500 1.513400
14.494000 1.490500
14.510500 1.477500
14.527000 1.463500
14.543400 1.451400
14.559900 1.444000
14.576400 1.449600
14.592900 1.461600
14.609400 1.477700
14.625800 1.501300
14.642300 1.529300
14.658800 1.556800
14.675300 1.585200
14.691800 1.593600
14.708300 1.589500
14.724700 1.588700
14.741200 1.597600
14.757700 1.607500
14.774200 1.618300
14.790700 1.624100
14.807100 1.634900
14.823600 1.647200
14.840100 1.670100
14.856600 1.697500
14.873100 1.724700
14.889600 1.754400
14.906000 1.775200
14.922500 1.787200
14.939000 1.681900
14.955500 1.633700
14.972000 1.590900
14.988400 1.550600
15.004900 1.513800
15.021400 1.481000
15.037900 1.463400
15.054400 1.450900
15.070900 1.442300
15.087300 1.432600
15.103800 1.423800
15.120300 1.415900
15.136800 1.385900
15.153300 1.381700
15.169700 1.361500
15.186200 1.301500
15.202700 1.257000
15.219200 1.229700
15.235700 1.209500
15.252200 1.200000
15.268600 1.203800
15.285100 1.203200
15.301600 1.200500
15.318100 1.196000
15.334600 1.184400
15.351000 1.170300
15.367500 1.158900
15.384000 1.162300
15.400500 1.166600
15.417000 1.185700
15.433500 1.153200
15.449900 1.141500
15.466400 1.133200
15.482900 1.127400
15.499400 1.135100
15.515900 1.181900
15.532400 1.119100
15.548800 1.092000
15.565300 1.079900
15.581800 1.077200
15.598300 1.072600
15.614800 1.066200
15.631200 1.040900
15.647700 1.033900
15.664200 1.032900
15.680700 1.025800
15.697200 0.994800
15.713700 0.964200
15.730100 0.936500
15.746600 0.913400
15.763100 0.890900
15.779600 0.870700
15.796100 0.852600
15.812500 0.837500
15.829000 0.822900
15.845500 0.806700
15.862000 0.793600
15.878500 0.781400
15.895000 0.770300
15.911400 0.762100
15.927900 0.764900
15.944400 0.765300
15.960900 0.761200
15.977400 0.754200
15.993800 0.750100
16.010300 0.746500
16.026800 0.743100
16.043300 0.740900
16.059800 0.731400
16.076300 0.718800
16.092700 0.707900
16.109200 0.697600
16.125700 0.687500
16.142200 0.679700
16.158700 0.673300
16.175100 0.667000
16.191600 0.661300
16.208100 0.657900
16.224600 0.656300
16.241100 0.657700
16.257600 0.660200
16.274000 0.663200
16.290500 0.659100
16.307000 0.663100
16.323500 0.673600
16.340000 0.679200
16.356400 0.648700
16.372900 0.624500
16.389400 0.607900
16.405900 0.596800
16.422400 0.588300
16.438900 0.581000
16.455300 0.574500
16.471800 0.568900
16.488300 0.563900
16.504800 0.559500
16.521300 0.555700
16.537800 0.552200
16.554200 0.549100
16.570700 0.546300
16.587200 0.543900
16.603700 0.541900
16.620200 0.540200
16.636600 0.538800
16.653100 0.538000
16.669600 0.536700
16.686100 0.535000
16.702600 0.533200
16.719100 0.531300
16.735500 0.529700
16.752000 0.528500
16.768500 0.527300
16.785000 0.526300
16.801500 0.525300
16.817900 0.524400
16.834400 0.523500
16.850900 0.522800
16.867400 0.522300
16.883900 0.523300
16.900400 0.526200
16.916800 0.533400
16.933300 0.547400
16.949800 0.558500
16.966300 0.548400
16.982800 0.537300
16.999200 0.530600
17.015700 0.524400
17.032200 0.518200
17.048700 0.512200
17.065200 0.507000
17.081700 0.502600
17.098100 0.498900
17.114600 0.496200
17.131100 0.495000
17.147600 0.494800
17.164100 0.495400
17.180500 0.495600
17.197000 0.495400
17.213500 0.499100
17.230000 0.513500
17.246500 0.547500
17.263000 0.599900
17.279400 0.643900
17.295900 0.685200
17.312400 0.722700
17.328900 0.753500
17.345400 0.775000
17.361800 0.782800
17.378300 0.745300
17.394800 0.723400
17.411300 0.709800
17.427800 0.690500
17.444300 0.683100
17.460700 0.678900
17.477200 0.676600
17.493700 0.673600
17.510200 0.672300
17.526700 0.672600
17.543100 0.673400
17.559600 0.687100
17.576100 0.696300
17.592600 0.672000
17.609100 0.644200
17.625600 0.631700
17.642000 0.609800
17.658500 0.580500
17.675000 0.549200
17.691500 0.520200
17.708000 0.497100
17.724500 0.475600
17.740900 0.454900
17.757400 0.435900
17.773900 0.419300
17.790400 0.404700
17.806900 0.391800
17.823300 0.380500
17.839800 0.370800
17.856300 0.362200
17.872800 0.354600
17.889300 0.347500
17.905800 0.340800
17.922200 0.334300
17.938700 0.328000
17.955200 0.321800
17.971700 0.315800
17.988200 0.309900
18.004600 0.304200
18.021100 0.298600
18.037600 0.294400
18.054100 0.290200
18.070600 0.285000
18.087100 0.280200
18.103500 0.275800
18.120000 0.271300
18.136500 0.266900
18.153000 0.262900
18.169500 0.259000
18.185900 0.254900
18.202400 0.251300
18.218900 0.249000
18.235400 0.247600
18.251900 0.246300
18.268400 0.244900
18.284800 0.243000
18.301300 0.240700
18.317800 0.238200
18.334300 0.235900
18.350800 0.234700
18.367200 0.233300
18.383700 0.231500
18.400200 0.229200
18.416700 0.226600
18.433200 0.223800
18.449700 0.220400
18.466100 0.216500
18.482600 0.212100
18.499100 0.207500
18.515600 0.202700
18.532100 0.197700
18.548500 0.192600
18.565000 0.187300
18.581500 0.181900
18.598000 0.177400
18.614500 0.173900
18.631000 0.172000
18.647400 0.169900
18.663900 0.167000
18.680400 0.161300
18.696900 0.152900
18.713400 0.144000
18.729800 0.135000
18.746300 0.125500
18.762800 0.113900
18.779300 0.100100
18.795800 0.090000
18.812300 0.083300
18.828700 0.077800
18.845200 0.073700
18.861700 0.070300
18.878200 0.067200
18.894700 0.061500
18.911200 0.056700
18.927600 0.052800
18.944100 0.049600
18.960600 0.047000
18.977100 0.044300
18.993600 0.041600
19.010000 0.039100
19.026500 0.037100
19.043000 0.035500
19.059500 0.034100
19.076000 0.032800
19.092500 0.031500
19.108900 0.030300
19.125400 0.029000
19.141900 0.027800
19.158400 0.026700
19.174900 0.025500
19.191300 0.024400
19.207800 0.023300
19.224300 0.022300
19.240800 0.021200
19.257300 0.020200
19.273800 0.019200
19.290200 0.018300
19.306700 0.017300
19.323200 0.016400
19.339700 0.015500
19.356200 0.014700
19.372600 0.013800
19.389100 0.013000
19.405600 0.012200
19.422100 0.011500
19.438600 0.010700
19.455100 0.010000
19.471500 0.009200
19.488000 0.008500
19.504500 0.007800
19.521000 0.007100
19.537500 0.006500
19.553900 0.005800
19.570400 0.005200
19.586900 0.004500
19.603400 0.003900
19.619900 0.003300
19.636400 0.002700
19.652800 0.002200
19.669300 0.001600
19.685800 0.001100
19.702300 0.000700
19.718800 0.000300
19.735200 0.000000
19.751700 0.000000
19.768200 0.000000
19.784700 0.000000
19.801200 0.000000
19.817700 0.000000
19.834100 0.000000
19.850600 0.000000
19.867100 0.000000
19.883600 0.000000
19.900100 0.000000
19.916500 0.000000
19.933000 0.000000
19.949500 0.000000
19.966000 0.000000
19.982500 0.000000
19.999000 0.000000
20.015400 0.000000
20.031900 0.000000
20.048400 0.000000
20.064900 0.000000
20.081400 0.000000
20.097900 0.000000
20.114300 0.000000
20.130800 0.000000
20.147300 0.000000
20.163800 0.000000
20.180300 0.000000
20.196700 0.000000
20.213200 0.000000
20.229700 0.000000
20.246200 0.000000
20.262700 0.000000
20.279200 0.000000
20.295600 0.000000
20.312100 0.000000
20.328600 0.000000
20.345100 0.000000
20.361600 0.000000
20.378000 0.000000
20.394500 0.000000
20.411000 0.000000
20.427500 0.000000
20.444000 0.000000
20.460500 0.000000
20.476900 0.000000
20.493400 0.000000
20.509900 0.000000
20.526400 0.000000
20.542900 0.000000
20.559300 0.000000
20.575800 0.000000
20.592300 0.000000
20.608800 0.000000
20.625300 0.000000
20.641800 0.000000
20.658200 0.000000
20.674700 0.000000
20.691200 0.000000
20.707700 0.000000
20.724200 0.000000
20.740600 0.000000
20.757100 0.000000
20.773600 0.000000
20.790100 0.000000
20.806600 0.000000
20.823100 0.000000
20.839500 0.000000
20.856000 0.000000
20.872500 0.000000
20.889000 0.000000
20.905500 0.000000
20.921900 0.000000
20.938400 0.000000
20.954900 0.000000
20.971400 0.000000
20.987900 0.000000
21.004400 0.000000
21.020800 0.000000
21.037300 0.000000
21.053800 0.000000
21.070300 0.000000
21.086800 0.000000
21.103200 0.000000
21.119700 0.000000
21.136200 0.000000
21.152700 0.000000
21.169200 0.000000
21.185700 0.000000
21.202100 0.000000
21.218600 0.000000
21.235100 0.000000
e
