set title 'mp-168 - Density of States'
set xlabel 'Energy (eV)'
set ylabel 'DOS (states/eV)'
set grid
set xrange [-10:10]
set yrange [0:8.340]
set xzeroaxis lt -1
set terminal png size 800,600
set output 'mp-168_dos_gnuplot.png'
plot '-' using 1:2 with lines title 'DOS'
-6.643500 0.000000
-6.632100 0.000000
-6.620800 0.000000
-6.609400 0.000000
-6.598000 0.000000
-6.586600 0.000000
-6.575300 0.000000
-6.563900 0.000000
-6.552500 0.000000
-6.541100 0.000000
-6.529800 0.000000
-6.518400 0.000000
-6.507000 0.000000
-6.495600 0.000000
-6.484300 0.000000
-6.472900 0.000000
-6.461500 0.000000
-6.450100 0.000000
-6.438800 0.000000
-6.427400 0.000000
-6.416000 0.000000
-6.404600 0.000000
-6.393200 0.000000
-6.381900 0.000000
-6.370500 0.000000
-6.359100 0.000000
-6.347700 0.000000
-6.336400 0.000000
-6.325000 0.000000
-6.313600 0.000000
-6.302200 0.000000
-6.290900 0.000000
-6.279500 0.000000
-6.268100 0.000000
-6.256700 0.000000
-6.245400 0.000000
-6.234000 0.000000
-6.222600 0.000000
-6.211200 0.000000
-6.199900 0.000000
-6.188500 0.000000
-6.177100 0.000000
-6.165700 0.000000
-6.154400 0.000000
-6.143000 0.000000
-6.131600 0.000000
-6.120200 0.000000
-6.108900 0.000000
-6.097500 0.000000
-6.086100 0.000000
-6.074700 0.000000
-6.063400 0.000000
-6.052000 0.000000
-6.040600 0.000000
-6.029200 0.000000
-6.017900 0.000000
-6.006500 0.000000
-5.995100 0.000000
-5.983700 0.000000
-5.972400 0.000000
-5.961000 0.000000
-5.949600 0.000000
-5.938200 0.000000
-5.926900 0.000000
-5.915500 0.000000
-5.904100 0.000000
-5.892700 0.000000
-5.881400 0.000000
-5.870000 0.000000
-5.858600 0.000000
-5.847200 0.000000
-5.835900 0.000000
-5.824500 0.000000
-5.813100 0.000000
-5.801700 0.000000
-5.790400 0.000000
-5.779000 0.000000
-5.767600 0.000000
-5.756200 0.000000
-5.744900 0.000000
-5.733500 0.000000
-5.722100 0.000000
-5.710700 0.000000
-5.699300 0.000000
-5.688000 0.000000
-5.676600 0.000000
-5.665200 0.000000
-5.653800 0.000000
-5.642500 0.000000
-5.631100 0.000000
-5.619700 0.000000
-5.608300 0.000100
-5.597000 0.012700
-5.585600 0.046700
-5.574200 0.102000
-5.562800 0.178600
-5.551500 0.221400
-5.540100 0.243000
-5.528700 0.268600
-5.517300 0.298100
-5.506000 0.331300
-5.494600 0.363200
-5.483200 0.391500
-5.471800 0.416400
-5.460500 0.437700
-5.449100 0.458900
-5.437700 0.465000
-5.426300 0.473900
-5.415000 0.485800
-5.403600 0.500500
-5.392200 0.517100
-5.380800 0.535600
-5.369500 0.555800
-5.358100 0.562800
-5.346700 0.580900
-5.335300 0.599100
-5.324000 0.617400
-5.312600 0.635800
-5.301200 0.653400
-5.289800 0.666000
-5.278500 0.673300
-5.267100 0.675400
-5.255700 0.686300
-5.244300 0.698600
-5.233000 0.711100
-5.221600 0.723900
-5.210200 0.736900
-5.198800 0.749400
-5.187500 0.760700
-5.176100 0.770700
-5.164700 0.779400
-5.153300 0.786600
-5.142000 0.794700
-5.130600 0.804500
-5.119200 0.816200
-5.107800 0.829700
-5.096500 0.844000
-5.085100 0.858400
-5.073700 0.873100
-5.062300 0.888100
-5.051000 0.894400
-5.039600 0.903300
-5.028200 0.911500
-5.016800 0.919000
-5.005400 0.925800
-4.994100 0.932800
-4.982700 0.940400
-4.971300 0.948500
-4.959900 0.957100
-4.948600 0.966300
-4.937200 0.975400
-4.925800 0.984300
-4.914400 0.993200
-4.903100 1.001900
-4.891700 1.010400
-4.880300 1.018800
-4.868900 1.027100
-4.857600 1.035700
-4.846200 1.045000
-4.834800 1.054400
-4.823400 1.063900
-4.812100 1.073600
-4.800700 1.083600
-4.789300 1.094300
-4.777900 1.105600
-4.766600 1.117400
-4.755200 1.124800
-4.743800 1.133000
-4.732400 1.141400
-4.721100 1.149800
-4.709700 1.158100
-4.698300 1.165600
-4.686900 1.172200
-4.675600 1.178000
-4.664200 1.182900
-4.652800 1.188800
-4.641400 1.195000
-4.630100 1.201700
-4.618700 1.208600
-4.607300 1.215700
-4.595900 1.222800
-4.584600 1.229800
-4.573200 1.236800
-4.561800 1.247500
-4.550400 1.256100
-4.539100 1.265000
-4.527700 1.274200
-4.516300 1.283800
-4.504900 1.294000
-4.493600 1.304800
-4.482200 1.316200
-4.470800 1.328200
-4.459400 1.340600
-4.448100 1.353900
-4.436700 1.367900
-4.425300 1.382700
-4.413900 1.398200
-4.402600 1.413400
-4.391200 1.428200
-4.379800 1.440300
-4.368400 1.457000
-4.357100 1.481400
-4.345700 1.505800
-4.334300 1.530000
-4.322900 1.552700
-4.311500 1.571200
-4.300200 1.590000
-4.288800 1.608900
-4.277400 1.628700
-4.266000 1.656500
-4.254700 1.685400
-4.243300 1.713000
-4.231900 1.739300
-4.220500 1.738400
-4.209200 1.725200
-4.197800 1.711400
-4.186400 1.696800
-4.175000 1.679200
-4.163700 1.660100
-4.152300 1.639500
-4.140900 1.617300
-4.129500 1.593600
-4.118200 1.568400
-4.106800 1.541600
-4.095400 1.513300
-4.084000 1.485900
-4.072700 1.469500
-4.061300 1.445300
-4.049900 1.425500
-4.038500 1.409900
-4.027200 1.398500
-4.015800 1.391400
-4.004400 1.389900
-3.993000 1.397200
-3.981700 1.493900
-3.970300 1.558700
-3.958900 1.613100
-3.947500 1.656800
-3.936200 1.639400
-3.924800 1.609700
-3.913400 1.580200
-3.902000 1.550700
-3.890700 1.525900
-3.879300 1.532200
-3.867900 1.537800
-3.856500 1.534000
-3.845200 1.536500
-3.833800 1.529200
-3.822400 1.528400
-3.811000 1.537400
-3.799700 1.526400
-3.788300 1.591600
-3.776900 1.641100
-3.765500 1.693700
-3.754200 1.749400
-3.742800 1.780600
-3.731400 1.793700
-3.720000 1.801100
-3.708700 1.802600
-3.697300 1.817700
-3.685900 1.835000
-3.674500 1.895300
-3.663200 1.910000
-3.651800 1.923600
-3.640400 1.935900
-3.629000 1.945400
-3.617600 1.948700
-3.606300 1.945900
-3.594900 1.937500
-3.583500 1.881400
-3.572100 1.923600
-3.560800 1.951900
-3.549400 1.978600
-3.538000 2.003600
-3.526600 2.026900
-3.515300 2.050600
-3.503900 2.274900
-3.492500 2.382700
-3.481100 2.479800
-3.469800 2.562500
-3.458400 2.494800
-3.447000 2.379100
-3.435600 2.275000
-3.424300 2.137000
-3.412900 2.150600
-3.401500 2.099400
-3.390100 2.094500
-3.378800 2.090700
-3.367400 2.177100
-3.356000 2.174300
-3.344600 2.156800
-3.333300 2.124600
-3.321900 2.092000
-3.310500 2.171800
-3.299100 2.259100
-3.287800 2.325300
-3.276400 2.399000
-3.265000 2.452600
-3.253600 2.454400
-3.242300 2.460100
-3.230900 2.469600
-3.219500 2.482900
-3.208100 2.499800
-3.196800 2.520300
-3.185400 2.489300
-3.174000 2.554800
-3.162600 2.591200
-3.151300 2.619500
-3.139900 2.641200
-3.128500 2.655400
-3.117100 2.673300
-3.105800 2.711600
-3.094400 2.708700
-3.083000 2.494800
-3.071600 2.483100
-3.060300 2.471800
-3.048900 2.460900
-3.037500 2.450500
-3.026100 2.439900
-3.014800 2.429000
-3.003400 2.618800
-2.992000 2.623800
-2.980600 2.602700
-2.969200 2.610300
-2.957900 2.500200
-2.946500 2.520900
-2.935100 2.589000
-2.923700 2.627200
-2.912400 2.634400
-2.901000 2.624300
-2.889600 2.639200
-2.878200 2.630100
-2.866900 2.615800
-2.855500 2.594200
-2.844100 2.509500
-2.832700 2.473900
-2.821400 2.464800
-2.810000 2.461000
-2.798600 2.456800
-2.787200 2.441300
-2.775900 2.426500
-2.764500 2.411600
-2.753100 2.396600
-2.741700 2.389500
-2.730400 2.376000
-2.719000 2.363200
-2.707600 2.349400
-2.696200 2.334700
-2.684900 2.319100
-2.673500 2.282000
-2.662100 2.258100
-2.650700 2.243300
-2.639400 2.240500
-2.628000 2.300700
-2.616600 2.275600
-2.605200 2.258000
-2.593900 2.237700
-2.582500 2.221800
-2.571100 2.208900
-2.559700 2.197000
-2.548400 2.184900
-2.537000 2.174400
-2.525600 2.165500
-2.514200 2.158400
-2.502900 2.151100
-2.491500 2.146200
-2.480100 2.141000
-2.468700 2.135200
-2.457400 2.129800
-2.446000 2.125900
-2.434600 2.123300
-2.423200 2.122400
-2.411900 2.133500
-2.400500 2.155100
-2.389100 2.174200
-2.377700 2.187900
-2.366400 2.207000
-2.355000 2.202600
-2.343600 2.191900
-2.332200 2.183000
-2.320900 2.176200
-2.309500 2.174300
-2.298100 2.180500
-2.286700 2.199700
-2.275300 2.234800
-2.264000 2.283700
-2.252600 2.345800
-2.241200 2.343700
-2.229800 2.286600
-2.218500 2.229400
-2.207100 2.201000
-2.195700 2.182200
-2.184300 2.166600
-2.173000 2.145800
-2.161600 2.123500
-2.150200 2.100200
-2.138800 2.076100
-2.127500 2.051200
-2.116100 2.025300
-2.104700 2.013700
-2.093300 1.995600
-2.082000 1.980600
-2.070600 1.967500
-2.059200 1.953000
-2.047800 1.936500
-2.036500 1.914600
-2.025100 1.892700
-2.013700 1.864300
-2.002300 1.843400
-1.991000 1.822400
-1.979600 1.801600
-1.968200 1.781500
-1.956800 1.762500
-1.945500 1.745500
-1.934100 1.728900
-1.922700 1.712600
-1.911300 1.700100
-1.900000 1.691200
-1.888600 1.695800
-1.877200 1.753200
-1.865800 1.837700
-1.854500 1.949600
-1.843100 2.118900
-1.831700 2.149900
-1.820300 2.107200
-1.809000 2.101800
-1.797600 2.107100
-1.786200 2.208400
-1.774800 2.206300
-1.763500 2.239500
-1.752100 2.280200
-1.740700 2.332000
-1.729300 2.389400
-1.718000 2.451100
-1.706600 2.494000
-1.695200 2.526100
-1.683800 2.558700
-1.672500 2.591900
-1.661100 2.625500
-1.649700 2.659500
-1.638300 2.689800
-1.627000 2.717800
-1.615600 2.754100
-1.604200 2.880400
-1.592800 2.957100
-1.581400 3.053500
-1.570100 3.170400
-1.558700 3.307500
-1.547300 3.639400
-1.535900 3.733000
-1.524600 3.915700
-1.513200 4.200100
-1.501800 4.310300
-1.490400 4.404500
-1.479100 4.531800
-1.467700 4.679300
-1.456300 4.786300
-1.444900 5.161300
-1.433600 4.985800
-1.422200 4.647200
-1.410800 4.272700
-1.399400 3.915700
-1.388100 3.531000
-1.376700 3.208400
-1.365300 2.931100
-1.353900 2.448700
-1.342600 2.181000
-1.331200 2.031500
-1.319800 1.888700
-1.308400 1.754800
-1.297100 1.633500
-1.285700 1.523000
-1.274300 1.476900
-1.262900 1.443000
-1.251600 1.365000
-1.240200 1.316500
-1.228800 1.273900
-1.217400 1.230100
-1.206100 1.198200
-1.194700 1.167900
-1.183300 1.139300
-1.171900 1.112200
-1.160600 1.101900
-1.149200 1.077800
-1.137800 1.055200
-1.126400 1.040100
-1.115100 1.024000
-1.103700 1.009100
-1.092300 0.995400
-1.080900 0.981900
-1.069600 0.966000
-1.058200 1.043200
-1.046800 1.003300
-1.035400 0.986300
-1.024100 0.971000
-1.012700 0.957900
-1.001300 0.947100
-0.989900 0.938400
-0.978600 0.931900
-0.967200 0.932800
-0.955800 0.938600
-0.944400 0.947300
-0.933100 0.963100
-0.921700 0.988800
-0.910300 1.020400
-0.898900 1.052100
-0.887500 1.087800
-0.876200 1.128700
-0.864800 1.174800
-0.853400 1.226000
-0.842000 1.279000
-0.830700 1.339900
-0.819300 1.398200
-0.807900 1.418500
-0.796500 1.459700
-0.785200 1.502500
-0.773800 1.546900
-0.762400 1.592900
-0.751000 1.640500
-0.739700 1.655900
-0.728300 1.678600
-0.716900 1.711800
-0.705500 1.743000
-0.694200 1.772000
-0.682800 1.800700
-0.671400 1.828900
-0.660000 1.855900
-0.648700 1.929000
-0.637300 1.903600
-0.625900 1.940100
-0.614500 1.985300
-0.603200 2.030500
-0.591800 2.075500
-0.580400 2.120400
-0.569000 2.165200
-0.557700 2.210800
-0.546300 2.251000
-0.534900 2.268900
-0.523500 2.287300
-0.512200 2.310300
-0.500800 2.345700
-0.489400 2.519700
-0.478000 2.387300
-0.466700 2.420200
-0.455300 2.441800
-0.443900 2.431400
-0.432500 2.413400
-0.421200 2.395600
-0.409800 2.378600
-0.398400 2.381900
-0.387000 2.400900
-0.375700 2.410200
-0.364300 2.406200
-0.352900 2.394500
-0.341500 2.375000
-0.330200 2.347800
-0.318800 2.333600
-0.307400 2.316900
-0.296000 2.298300
-0.284700 2.277200
-0.273300 2.252600
-0.261900 2.227800
-0.250500 2.218600
-0.239100 2.223600
-0.227800 2.276700
-0.216400 2.328500
-0.205000 2.374500
-0.193600 2.430800
-0.182300 2.468400
-0.170900 2.499500
-0.159500 2.535500
-0.148100 2.562700
-0.136800 2.583500
-0.125400 2.602600
-0.114000 2.618300
-0.102600 2.627600
-0.091300 2.633500
-0.079900 2.639300
-0.068500 2.645800
-0.057100 2.675600
-0.045800 2.694100
-0.034400 2.679000
-0.023000 2.608600
-0.011600 2.601300
-0.000300 2.592100
0.011100 2.583500
0.022500 2.579300
0.033900 2.576900
0.045200 2.577500
0.056600 2.578700
0.068000 2.580600
0.079400 2.583300
0.090700 2.596900
0.102100 2.612600
0.113500 2.630500
0.124900 2.654900
0.136200 2.692300
0.147600 2.735700
0.159000 2.783900
0.170400 2.803600
0.181700 2.852300
0.193100 2.887900
0.204500 2.884600
0.215900 2.860300
0.227200 2.830600
0.238600 2.815700
0.250000 2.802300
0.261400 2.784900
0.272700 2.763400
0.284100 2.737600
0.295500 2.707800
0.306900 2.674300
0.318200 2.637300
0.329600 2.596200
0.341000 2.551200
0.352400 2.503100
0.363700 2.451800
0.375100 2.397400
0.386500 2.348600
0.397900 2.319000
0.409200 2.241600
0.420600 2.133400
0.432000 2.064400
0.443400 1.993500
0.454800 1.919300
0.466100 1.821800
0.477500 1.724900
0.488900 1.628800
0.500300 1.543500
0.511600 1.480700
0.523000 1.382000
0.534400 1.344600
0.545800 1.300800
0.557100 1.260600
0.568500 1.262800
0.579900 1.295700
0.591300 1.337400
0.602600 1.387800
0.614000 1.448300
0.625400 1.519400
0.636800 1.600900
0.648100 1.740100
0.659500 1.963800
0.670900 2.223500
0.682300 3.068300
0.693600 3.082700
0.705000 3.293800
0.716400 3.397500
0.727800 3.456900
0.739100 3.480600
0.750500 3.478500
0.761900 3.449600
0.773300 3.409000
0.784600 3.360700
0.796000 3.313200
0.807400 3.275300
0.818800 3.216500
0.830100 3.167300
0.841500 3.088300
0.852900 2.978800
0.864300 2.836100
0.875600 2.736800
0.887000 2.642600
0.898400 2.551700
0.909800 2.464100
0.921100 2.397500
0.932500 2.344200
0.943900 2.295100
0.955300 2.248700
0.966600 2.204100
0.978000 2.163300
0.989400 2.125700
1.000800 2.090000
1.012100 2.071500
1.023500 2.053700
1.034900 2.036800
1.046300 2.021200
1.057600 2.006800
1.069000 1.993700
1.080400 1.978200
1.091800 1.966400
1.103100 1.955300
1.114500 1.943900
1.125900 1.932000
1.137300 1.919500
1.148700 1.906200
1.160000 1.958300
1.171400 1.944900
1.182800 1.931900
1.194200 1.936200
1.205500 1.929700
1.216900 1.919100
1.228300 1.912200
1.239700 1.901200
1.251000 1.886000
1.262400 1.860900
1.273800 1.833600
1.285200 1.807600
1.296500 1.782900
1.307900 1.745400
1.319300 1.732200
1.330700 1.720000
1.342000 1.711900
1.353400 1.702700
1.364800 1.694500
1.376200 1.640100
1.387500 1.640700
1.398900 1.641400
1.410300 1.642100
1.421700 1.642800
1.433000 1.643700
1.444400 1.644500
1.455800 1.647200
1.467200 1.652500
1.478500 1.660700
1.489900 1.672700
1.501300 1.741300
1.512700 1.790900
1.524000 1.808400
1.535400 1.803300
1.546800 1.799000
1.558200 1.795500
1.569500 1.792300
1.580900 1.788700
1.592300 1.782400
1.603700 1.773200
1.615000 1.761200
1.626400 1.738700
1.637800 1.746700
1.649200 1.784600
1.660500 1.795800
1.671900 1.840800
1.683300 1.869300
1.694700 1.931600
1.706000 1.979000
1.717400 2.010400
1.728800 2.033700
1.740200 2.053600
1.751500 2.070000
1.762900 2.066100
1.774300 2.071600
1.785700 2.065100
1.797000 2.056400
1.808400 2.045000
1.819800 2.070400
1.831200 2.063200
1.842600 2.095100
1.853900 1.952800
1.865300 1.958200
1.876700 1.976700
1.888100 1.993000
1.899400 2.074600
1.910800 2.244100
1.922200 2.423600
1.933600 2.612800
1.944900 2.837700
1.956300 3.173800
1.967700 3.494800
1.979100 3.698500
1.990400 3.663100
2.001800 3.319800
2.013200 3.246900
2.024600 3.139300
2.035900 3.126400
2.047300 3.126100
2.058700 3.145100
2.070100 3.177100
2.081400 3.216600
2.092800 3.261700
2.104200 3.310600
2.115600 3.367100
2.126900 3.435000
2.138300 3.515200
2.149700 3.612900
2.161100 3.749200
2.172400 3.953400
2.183800 4.216800
2.195200 4.119700
2.206600 4.015100
2.217900 3.981500
2.229300 4.037600
2.240700 4.037200
2.252100 4.053900
2.263400 4.042900
2.274800 3.967400
2.286200 3.858700
2.297600 3.747200
2.308900 3.632300
2.320300 3.515400
2.331700 3.399700
2.343100 3.284000
2.354400 3.168900
2.365800 3.023900
2.377200 2.880100
2.388600 2.735800
2.399900 2.606500
2.411300 2.501800
2.422700 2.417100
2.434100 2.341600
2.445400 2.271100
2.456800 2.209000
2.468200 2.157100
2.479600 2.116800
2.490900 2.088200
2.502300 2.068800
2.513700 2.054800
2.525100 2.024500
2.536500 2.037900
2.547800 2.049900
2.559200 2.105300
2.570600 2.290200
2.582000 2.405400
2.593300 2.443100
2.604700 2.502200
2.616100 2.573900
2.627500 2.649500
2.638800 2.711000
2.650200 2.756700
2.661600 2.977400
2.673000 2.789300
2.684300 2.776900
2.695700 2.768300
2.707100 2.758300
2.718500 2.752100
2.729800 2.750200
2.741200 2.754100
2.752600 2.767000
2.764000 2.777700
2.775300 2.774200
2.786700 2.950600
2.798100 2.826700
2.809500 2.642800
2.820800 2.611600
2.832200 2.590000
2.843600 2.578000
2.855000 2.538700
2.866300 2.523200
2.877700 2.514800
2.889100 2.516600
2.900500 2.524000
2.911800 2.551600
2.923200 2.583600
2.934600 2.616700
2.946000 2.694900
2.957300 2.735800
2.968700 2.789100
2.980100 2.837700
2.991500 2.882600
3.002800 2.925800
3.014200 2.968100
3.025600 3.026200
3.037000 3.104900
3.048300 3.193600
3.059700 3.345300
3.071100 3.414300
3.082500 3.465100
3.093800 3.535900
3.105200 3.675400
3.116600 3.837100
3.128000 3.940600
3.139300 4.099100
3.150700 4.145900
3.162100 4.224100
3.173500 4.245100
3.184900 3.968700
3.196200 4.044100
3.207600 4.061600
3.219000 4.087300
3.230400 4.024700
3.241700 4.005700
3.253100 3.980100
3.264500 4.001600
3.275900 3.964900
3.287200 4.008800
3.298600 3.832400
3.310000 3.562100
3.321400 3.519900
3.332700 3.506700
3.344100 3.499300
3.355500 3.497000
3.366900 3.498800
3.378200 3.500900
3.389600 4.208700
3.401000 4.065400
3.412400 3.407200
3.423700 3.236200
3.435100 3.152600
3.446500 3.137100
3.457900 3.188200
3.469200 3.305700
3.480600 3.428100
3.492000 3.451300
3.503400 3.520800
3.514700 3.605600
3.526100 3.672000
3.537500 3.722700
3.548900 3.809500
3.560200 3.888100
3.571600 3.953400
3.583000 4.007000
3.594400 4.092400
3.605700 4.182700
3.617100 4.314200
3.628500 4.450000
3.639900 4.658800
3.651200 4.908600
3.662600 5.102400
3.674000 5.175600
3.685400 5.209000
3.696700 5.196400
3.708100 5.121800
3.719500 5.021500
3.730900 4.785400
3.742200 4.675500
3.753600 4.535000
3.765000 4.386200
3.776400 4.239800
3.787700 4.113500
3.799100 3.997600
3.810500 3.887800
3.821900 3.778100
3.833200 3.654500
3.844600 4.050300
3.856000 4.176400
3.867400 3.895100
3.878800 4.031700
3.890100 3.722400
3.901500 3.661500
3.912900 3.604700
3.924300 3.559000
3.935600 3.523000
3.947000 3.491400
3.958400 3.468100
3.969800 3.451100
3.981100 3.444000
3.992500 3.440500
4.003900 3.457600
4.015300 3.496000
4.026600 3.551100
4.038000 3.617000
4.049400 3.658700
4.060800 3.691000
4.072100 3.737000
4.083500 3.803800
4.094900 3.876000
4.106300 3.950300
4.117600 4.073200
4.129000 4.141600
4.140400 5.351900
4.151800 4.389200
4.163100 4.415200
4.174500 4.477600
4.185900 4.591700
4.197300 4.688600
4.208600 4.772000
4.220000 4.911600
4.231400 4.798000
4.242800 4.892900
4.254100 4.937300
4.265500 4.968400
4.276900 4.985500
4.288300 5.043800
4.299600 5.058900
4.311000 5.022400
4.322400 4.996600
4.333800 5.018900
4.345100 5.027700
4.356500 4.982300
4.367900 4.964000
4.379300 4.935700
4.390600 4.885200
4.402000 4.838100
4.413400 4.798600
4.424800 4.814600
4.436100 4.840600
4.447500 4.876800
4.458900 4.862200
4.470300 4.793000
4.481600 4.750500
4.493000 4.730300
4.504400 4.626300
4.515800 4.624900
4.527100 4.640900
4.538500 4.673800
4.549900 4.742900
4.561300 4.914300
4.572700 5.229900
4.584000 5.511200
4.595400 5.674700
4.606800 5.878300
4.618200 6.002800
4.629500 6.097400
4.640900 6.279500
4.652300 6.561400
4.663700 6.708200
4.675000 6.835300
4.686400 6.873900
4.697800 6.879500
4.709200 6.906400
4.720500 6.912200
4.731900 6.894900
4.743300 6.804000
4.754700 6.722000
4.766000 6.672900
4.777400 6.684000
4.788800 6.852000
4.800200 7.270000
4.811500 7.581500
4.822900 7.281700
4.834300 6.889100
4.845700 6.604400
4.857000 6.212800
4.868400 6.447500
4.879800 6.308200
4.891200 6.220800
4.902500 6.306200
4.913900 6.453500
4.925300 6.627700
4.936700 6.769000
4.948000 6.990000
4.959400 7.184800
4.970800 7.292100
4.982200 7.289200
4.993500 7.320600
5.004900 7.351200
5.016300 7.048000
5.027700 6.823800
5.039000 6.621400
5.050400 6.433800
5.061800 6.243800
5.073200 5.690400
5.084500 5.345900
5.095900 5.229600
5.107300 5.162200
5.118700 4.789200
5.130000 4.426200
5.141400 4.081000
5.152800 3.784900
5.164200 3.741200
5.175500 3.712700
5.186900 3.684400
5.198300 3.656900
5.209700 3.631600
5.221000 3.609100
5.232400 3.590600
5.243800 3.574800
5.255200 3.558000
5.266600 3.546400
5.277900 3.542600
5.289300 3.507200
5.300700 3.495000
5.312100 3.640800
5.323400 3.711900
5.334800 3.569800
5.346200 3.447300
5.357600 3.409000
5.368900 3.553500
5.380300 3.641800
5.391700 3.725800
5.403100 3.821900
5.414400 4.014400
5.425800 3.920900
5.437200 3.885900
5.448600 3.853000
5.459900 3.821600
5.471300 3.826100
5.482700 3.859600
5.494100 3.931700
5.505400 3.976600
5.516800 3.840500
5.528200 3.763300
5.539600 3.680200
5.550900 3.593300
5.562300 3.502500
5.573700 3.407800
5.585100 3.313200
5.596400 3.218000
5.607800 3.082300
5.619200 3.013900
5.630600 2.989100
5.641900 2.968700
5.653300 2.952100
5.664700 2.937600
5.676100 2.924800
5.687400 2.913800
5.698800 2.904700
5.710200 2.907100
5.721600 2.924400
5.732900 2.901900
5.744300 2.864100
5.755700 2.954300
5.767100 3.087100
5.778400 3.218900
5.789800 3.336500
5.801200 3.444800
5.812600 3.580400
5.823900 3.640000
5.835300 3.674000
5.846700 3.697500
5.858100 3.668100
5.869400 3.579500
5.880800 3.470900
5.892200 3.419600
5.903600 3.372600
5.915000 3.329100
5.926300 3.288200
5.937700 3.249600
5.949100 3.207500
5.960500 3.155800
5.971800 3.079900
5.983200 2.986200
5.994600 2.915500
6.006000 2.835100
6.017300 2.773600
6.028700 2.715900
6.040100 2.697700
6.051500 2.589100
6.062800 2.468600
6.074200 2.388300
6.085600 2.223000
6.097000 2.118300
6.108300 2.044300
6.119700 1.978200
6.131100 1.918700
6.142500 1.864600
6.153800 1.818400
6.165200 1.779000
6.176600 1.742500
6.188000 1.708800
6.199300 1.677000
6.210700 1.644100
6.222100 1.609600
6.233500 1.584300
6.244800 1.560800
6.256200 1.533700
6.267600 1.504200
6.279000 1.474900
6.290300 1.445700
6.301700 1.411800
6.313100 1.376900
6.324500 1.367600
6.335800 1.375000
6.347200 1.345800
6.358600 1.242200
6.370000 1.215300
6.381300 1.192100
6.392700 1.168900
6.404100 1.145800
6.415500 1.122700
6.426800 1.099600
6.438200 1.076600
6.449600 1.053700
6.461000 1.030700
6.472300 1.007900
6.483700 0.985800
6.495100 0.964400
6.506500 0.943500
6.517800 1.058000
6.529200 0.820300
6.540600 0.807700
6.552000 0.805800
6.563300 0.796800
6.574700 0.784400
6.586100 0.770800
6.597500 0.756000
6.608900 0.740000
6.620200 0.723700
6.631600 0.707800
6.643000 0.692300
6.654400 0.698000
6.665700 0.688100
6.677100 0.663300
6.688500 0.641800
6.699900 0.617400
6.711200 0.601900
6.722600 0.586900
6.734000 0.572100
6.745400 0.557600
6.756700 0.543300
6.768100 0.529200
6.779500 0.515400
6.790900 0.501800
6.802200 0.488400
6.813600 0.475200
6.825000 0.462300
6.836400 0.449600
6.847700 0.437200
6.859100 0.425000
6.870500 0.413000
6.881900 0.417800
6.893200 0.427000
6.904600 0.425700
6.916000 0.424500
6.927400 0.417700
6.938700 0.409800
6.950100 0.400800
6.961500 0.390700
6.972900 0.379500
6.984200 0.363100
6.995600 0.346600
7.007000 0.320400
7.018400 0.355600
7.029700 0.389300
7.041100 0.353800
7.052500 0.432100
7.063900 0.527900
7.075200 0.627700
7.086600 0.631500
7.098000 0.627000
7.109400 0.616800
7.120700 0.600700
7.132100 0.544800
7.143500 1.021500
7.154900 0.816600
7.166200 0.890100
7.177600 0.967300
7.189000 1.068400
7.200400 1.226600
7.211700 1.488000
7.223100 1.690900
7.234500 1.867200
7.245900 2.019700
7.257200 2.157000
7.268600 2.259900
7.280000 2.303100
7.291400 2.329000
7.302800 2.347000
7.314100 2.359600
7.325500 2.369000
7.336900 2.387800
7.348300 2.390800
7.359600 2.361400
7.371000 2.307600
7.382400 2.278000
7.393800 2.201800
7.405100 2.196400
7.416500 2.204300
7.427900 2.218100
7.439300 2.238300
7.450600 2.269800
7.462000 2.310800
7.473400 2.352600
7.484800 2.395100
7.496100 2.435400
7.507500 2.475300
7.518900 2.522100
7.530300 2.577400
7.541600 2.667000
7.553000 2.802900
7.564400 2.949500
7.575800 3.092100
7.587100 3.166700
7.598500 3.172300
7.609900 3.129500
7.621300 3.031600
7.632600 2.798300
7.644000 2.725400
7.655400 2.596300
7.666800 2.479600
7.678100 2.358400
7.689500 2.240700
7.700900 2.118000
7.712300 2.034300
7.723600 1.933100
7.735000 1.928500
7.746400 1.936000
7.757800 1.950900
7.769100 1.974400
7.780500 2.001500
7.791900 2.030700
7.803300 2.064000
7.814600 2.099800
7.826000 2.139900
7.837400 2.156000
7.848800 2.198200
7.860100 2.249400
7.871500 2.303100
7.882900 2.359800
7.894300 2.419200
7.905600 2.481400
7.917000 2.546000
7.928400 2.612800
7.939800 2.682000
7.951100 2.753400
7.962500 2.963200
7.973900 3.221300
7.985300 3.567600
7.996700 3.977300
8.008000 4.211400
8.019400 4.250700
8.030800 4.208100
8.042200 4.085300
8.053500 3.899600
8.064900 3.690100
8.076300 3.585700
8.087700 3.556700
8.099000 3.518500
8.110400 3.474000
8.121800 3.418100
8.133200 3.359100
8.144500 3.317900
8.155900 3.281700
8.167300 3.250500
8.178700 3.226100
8.190000 3.205500
8.201400 3.186200
8.212800 3.165500
8.224200 3.144800
8.235500 3.126300
8.246900 3.110800
8.258300 3.098700
8.269700 3.089900
8.281000 3.084600
8.292400 3.082500
8.303800 3.082900
8.315200 3.123300
8.326500 3.173300
8.337900 3.244800
8.349300 3.330400
8.360700 3.430700
8.372000 3.655700
8.383400 3.772600
8.394800 3.883400
8.406200 3.993600
8.417500 4.110300
8.428900 4.233200
8.440300 4.429800
8.451700 4.064000
8.463000 3.991200
8.474400 3.878500
8.485800 4.019100
8.497200 4.193100
8.508500 4.366100
8.519900 4.565200
8.531300 4.773300
8.542700 4.990300
8.554000 5.218000
8.565400 5.456400
8.576800 5.807900
8.588200 6.511800
8.599500 6.242600
8.610900 6.131400
8.622300 5.978400
8.633700 5.745300
8.645000 5.524500
8.656400 5.301400
8.667800 5.069300
8.679200 4.816100
8.690600 4.567800
8.701900 4.324200
8.713300 4.113500
8.724700 3.933400
8.736100 3.775600
8.747400 3.657400
8.758800 3.476300
8.770200 3.364800
8.781600 3.137800
8.792900 2.953000
8.804300 2.915400
8.815700 2.682400
8.827100 2.526900
8.838400 2.457000
8.849800 2.446800
8.861200 2.417900
8.872600 2.447300
8.883900 2.547800
8.895300 2.658100
8.906700 2.889000
8.918100 3.157000
8.929400 3.540000
8.940800 3.752700
8.952200 3.831400
8.963600 3.955600
8.974900 4.095400
8.986300 4.208700
8.997700 4.314000
9.009100 4.451600
9.020400 4.486300
9.031800 4.581200
9.043200 4.700500
9.054600 4.796800
9.065900 4.850400
9.077300 5.019600
9.088700 4.754600
9.100100 4.612600
9.111400 4.408400
9.122800 4.087900
9.134200 3.896700
9.145600 3.739500
9.156900 3.596700
9.168300 3.456500
9.179700 3.418400
9.191100 3.383800
9.202400 3.327200
9.213800 3.329300
9.225200 3.302800
9.236600 3.310900
9.247900 3.378700
9.259300 3.533400
9.270700 3.798600
9.282100 4.423000
9.293400 5.296000
9.304800 5.575100
9.316200 5.806000
9.327600 5.525300
9.339000 4.967100
9.350300 4.809100
9.361700 4.730200
9.373100 4.740400
9.384500 4.784900
9.395800 4.833200
9.407200 4.956500
9.418600 5.001000
9.430000 5.252000
9.441300 5.192200
9.452700 5.112100
9.464100 5.611900
9.475500 4.999800
9.486800 5.359200
9.498200 4.744900
9.509600 4.743500
9.521000 4.754500
9.532300 4.775000
9.543700 4.804300
9.555100 4.844000
9.566500 4.901600
9.577800 4.959700
9.589200 5.230600
9.600600 5.442400
9.612000 5.563200
9.623300 5.199900
9.634700 5.005600
9.646100 4.879500
9.657500 4.808700
9.668800 4.828300
9.680200 4.951300
9.691600 5.150000
9.703000 5.366700
9.714300 6.027000
9.725700 6.371600
9.737100 6.532900
9.748500 6.232600
9.759800 6.227600
9.771200 6.291400
9.782600 6.210100
9.794000 5.995900
9.805300 5.685000
9.816700 5.706700
9.828100 5.688500
9.839500 5.598100
9.850800 5.571600
9.862200 5.438100
9.873600 5.364900
9.885000 5.284600
9.896300 5.205900
9.907700 5.156800
9.919100 5.114600
9.930500 5.097400
9.941800 5.081000
9.953200 5.061300
9.964600 5.074500
9.976000 4.807200
9.987300 4.912500
9.998700 4.723400
10.010100 4.779500
10.021500 4.897000
10.032900 4.973600
10.044200 4.987300
10.055600 4.994300
10.067000 5.022600
10.078400 5.067200
10.089700 5.142800
10.101100 5.246500
10.112500 5.240900
10.123900 5.439300
10.135200 5.712500
10.146600 5.616300
10.158000 5.592100
10.169400 5.498800
10.180700 5.432000
10.192100 5.365400
10.203500 5.323300
10.214900 5.302500
10.226200 5.301600
10.237600 5.326700
10.249000 5.457500
10.260400 5.557200
10.271700 5.659900
10.283100 5.780200
10.294500 5.899600
10.305900 5.988500
10.317200 6.141300
10.328600 6.415000
10.340000 6.371400
10.351400 6.061700
10.362700 5.864300
10.374100 5.679900
10.385500 5.496000
10.396900 5.350600
10.408200 5.315200
10.419600 5.413100
10.431000 5.362800
10.442400 5.248600
10.453700 5.126900
10.465100 4.871300
10.476500 4.680300
10.487900 4.501300
10.499200 4.350500
10.510600 4.334400
10.522000 4.282900
10.533400 4.451000
10.544700 4.413300
10.556100 4.345600
10.567500 4.198200
10.578900 3.899700
10.590200 3.774900
10.601600 3.697700
10.613000 3.718400
10.624400 3.745300
10.635700 3.779700
10.647100 3.831700
10.658500 3.902300
10.669900 3.984700
10.681200 4.075500
10.692600 4.225000
10.704000 4.435400
10.715400 4.559200
10.726800 5.070700
10.738100 4.837300
10.749500 4.836800
10.760900 4.876500
10.772300 5.306200
10.783600 5.913500
10.795000 5.316400
10.806400 4.862600
10.817800 4.671500
10.829100 4.472900
10.840500 4.284900
10.851900 4.107700
10.863300 3.942200
10.874600 3.764200
10.886000 3.721800
10.897400 3.764200
10.908800 3.828000
10.920100 3.854400
10.931500 3.874800
10.942900 3.887100
10.954300 3.850600
10.965600 3.981200
10.977000 4.251900
10.988400 4.555500
10.999800 4.707700
11.011100 4.782900
11.022500 4.781600
11.033900 4.679900
11.045300 4.602200
11.056600 4.528500
11.068000 4.457800
11.079400 4.405700
11.090800 4.399200
11.102100 4.410900
11.113500 4.435800
11.124900 4.442100
11.136300 4.458800
11.147600 4.539900
11.159000 4.577900
11.170400 4.591900
11.181800 4.584800
11.193100 4.530600
11.204500 4.343100
11.215900 4.207800
11.227300 4.204000
11.238600 4.235400
11.250000 4.232900
11.261400 4.167800
11.272800 4.119500
11.284100 4.131400
11.295500 4.147600
11.306900 4.169800
11.318300 4.336300
11.329600 4.602500
11.341000 4.542400
11.352400 4.537400
11.363800 4.668700
11.375100 4.677100
11.386500 4.742500
11.397900 4.771100
11.409300 4.820500
11.420700 4.899500
11.432000 4.931700
11.443400 5.018800
11.454800 5.114000
11.466200 5.254500
11.477500 5.288800
11.488900 5.236800
11.500300 5.174300
11.511700 5.108800
11.523000 5.078100
11.534400 5.038900
11.545800 4.965200
11.557200 4.920100
11.568500 4.869700
11.579900 4.818000
11.591300 4.774800
11.602700 4.742600
11.614000 4.715300
11.625400 4.704800
11.636800 4.680300
11.648200 4.628000
11.659500 4.685900
11.670900 4.750500
11.682300 4.836300
11.693700 4.851000
11.705000 4.880200
11.716400 5.036300
11.727800 5.348300
11.739200 5.588500
11.750500 5.609700
11.761900 5.337100
11.773300 5.257100
11.784700 5.143400
11.796000 5.059300
11.807400 5.022400
11.818800 4.996700
11.830200 4.946200
11.841500 4.839400
11.852900 4.719700
11.864300 4.557700
11.875700 4.557400
11.887000 4.550200
11.898400 4.560800
11.909800 4.574300
11.921200 4.619500
11.932500 4.718100
11.943900 5.297600
11.955300 5.626200
11.966700 5.225000
11.978000 5.137600
11.989400 5.148300
12.000800 5.117000
12.012200 5.083600
12.023500 5.052100
12.034900 5.050300
12.046300 5.028500
12.057700 4.978700
12.069000 4.915700
12.080400 4.889500
12.091800 4.875800
12.103200 4.862600
12.114600 4.877700
12.125900 5.008400
12.137300 4.930800
12.148700 5.055000
12.160100 5.284300
12.171400 5.524800
12.182800 5.664000
12.194200 5.856400
12.205600 6.006700
12.216900 6.186200
12.228300 6.276100
12.239700 6.193800
12.251100 6.046200
12.262400 5.937400
12.273800 5.825100
12.285200 5.713300
12.296600 5.630100
12.307900 5.549900
12.319300 5.302300
12.330700 5.259900
12.342100 5.273400
12.353400 5.161500
12.364800 5.119900
12.376200 5.099600
12.387600 5.094700
12.398900 4.690500
12.410300 4.720600
12.421700 4.803600
12.433100 4.924200
12.444400 4.990000
12.455800 5.021000
12.467200 5.138000
12.478600 5.134600
12.489900 5.074800
12.501300 5.101100
12.512700 5.099000
12.524100 5.066500
12.535400 4.987000
12.546800 4.708600
12.558200 4.296700
12.569600 4.059100
12.580900 4.077900
12.592300 4.124100
12.603700 4.211300
12.615100 4.346700
12.626400 4.522500
12.637800 4.714900
12.649200 4.905300
12.660600 5.107400
12.671900 5.371800
12.683300 5.667600
12.694700 6.035500
12.706100 6.615300
12.717400 7.267800
12.728800 6.754500
12.740200 6.376100
12.751600 6.072300
12.763000 5.749500
12.774300 5.364500
12.785700 5.029100
12.797100 4.924400
12.808500 4.645500
12.819800 4.398200
12.831200 4.148200
12.842600 3.889800
12.854000 3.593300
12.865300 3.351200
12.876700 3.160100
12.888100 3.008000
12.899500 2.888300
12.910800 2.786400
12.922200 2.772200
12.933600 3.062100
12.945000 3.502700
12.956300 3.961000
12.967700 3.802800
12.979100 3.835400
12.990500 3.859000
13.001800 3.800100
13.013200 3.806200
13.024600 3.840800
13.036000 3.886000
13.047300 3.961000
13.058700 4.037300
13.070100 4.158500
13.081500 4.284000
13.092800 4.396100
13.104200 4.529200
13.115600 4.657200
13.127000 4.778100
13.138300 4.901500
13.149700 5.017800
13.161100 5.114100
13.172500 5.153100
13.183800 5.185300
13.195200 5.225400
13.206600 5.268400
13.218000 5.339900
13.229300 5.272200
13.240700 5.159800
13.252100 5.049500
13.263500 4.975000
13.274800 4.909200
13.286200 4.830900
13.297600 4.744600
13.309000 4.677300
13.320300 4.619400
13.331700 4.571900
13.343100 4.539200
13.354500 4.514900
13.365800 4.514500
13.377200 4.532500
13.388600 4.532700
13.400000 4.593500
13.411300 4.663700
13.422700 4.746400
13.434100 4.843800
13.445500 4.964000
13.456900 5.117700
13.468200 5.224300
13.479600 5.273700
13.491000 5.449200
13.502400 5.221800
13.513700 4.782000
13.525100 4.636300
13.536500 4.584600
13.547900 4.533000
13.559200 4.504800
13.570600 4.733300
13.582000 4.740300
13.593400 4.630900
13.604700 4.430900
13.616100 4.250400
13.627500 4.143000
13.638900 4.080900
13.650200 4.044300
13.661600 4.016700
13.673000 4.045200
13.684400 4.052600
13.695700 4.056400
13.707100 4.040500
13.718500 3.986000
13.729900 3.944300
13.741200 3.908600
13.752600 3.860200
13.764000 3.815300
13.775400 3.817100
13.786700 3.814800
13.798100 3.811100
13.809500 3.865300
13.820900 3.834700
13.832200 3.851500
13.843600 3.894400
13.855000 3.955000
13.866400 4.035900
13.877700 4.096900
13.889100 4.113200
13.900500 4.148600
13.911900 4.209400
13.923200 4.527000
13.934600 4.816800
13.946000 5.001700
13.957400 5.122100
13.968700 5.267100
13.980100 5.348900
13.991500 5.312300
14.002900 5.229500
14.014200 5.159800
14.025600 5.025300
14.037000 4.980600
14.048400 4.951600
14.059700 5.025700
14.071100 4.682100
14.082500 4.291200
14.093900 4.234300
14.105200 4.173100
14.116600 4.119300
14.128000 4.072000
14.139400 4.033000
14.150800 4.000400
14.162100 3.975900
14.173500 3.965000
14.184900 3.972600
14.196300 3.980800
14.207600 4.032200
14.219000 4.079300
14.230400 4.120100
14.241800 4.153100
14.253100 4.178600
14.264500 4.196100
14.275900 4.195700
14.287300 4.169900
14.298600 4.099400
14.310000 4.059000
14.321400 4.045600
14.332800 3.970400
14.344100 3.881300
14.355500 3.808600
14.366900 3.638800
14.378300 3.446000
14.389600 3.224300
14.401000 2.954000
14.412400 2.684400
14.423800 2.475600
14.435100 2.313000
14.446500 2.179500
14.457900 2.055300
14.469300 2.011000
14.480600 1.727100
14.492000 1.631900
14.503400 1.541200
14.514800 1.455200
14.526100 1.377700
14.537500 1.308500
14.548900 1.242500
14.560300 1.179600
14.571600 1.120000
14.583000 1.063400
14.594400 1.028800
14.605800 0.890200
14.617100 0.840000
14.628500 0.783000
14.639900 0.727600
14.651300 0.665400
14.662600 0.612700
14.674000 0.563500
14.685400 0.517900
14.696800 0.475800
14.708100 0.437400
14.719500 0.402500
14.730900 0.371100
14.742300 0.343400
14.753600 0.318500
14.765000 0.294800
14.776400 0.271700
14.787800 0.249300
14.799100 0.195400
14.810500 0.180900
14.821900 0.166900
14.833300 0.153500
14.844700 0.140700
14.856000 0.128400
14.867400 0.116700
14.878800 0.105600
14.890200 0.095100
14.901500 0.085200
14.912900 0.075800
14.924300 0.067000
14.935700 0.058700
14.947000 0.051100
14.958400 0.044000
14.969800 0.037300
14.981200 0.031000
14.992500 0.025100
15.003900 0.019700
15.015300 0.014700
15.026700 0.010100
15.038000 0.005900
15.049400 0.002700
15.060800 0.000700
15.072200 0.000000
15.083500 0.000000
15.094900 0.000000
15.106300 0.000000
15.117700 0.000000
15.129000 0.000000
15.140400 0.000000
15.151800 0.000000
15.163200 0.000000
15.174500 0.000000
15.185900 0.000000
15.197300 0.000000
15.208700 0.000000
15.220000 0.000000
15.231400 0.000000
15.242800 0.000000
15.254200 0.000000
15.265500 0.000000
15.276900 0.000000
15.288300 0.000000
15.299700 0.000000
15.311000 0.000000
15.322400 0.000000
15.333800 0.000000
15.345200 0.000000
15.356500 0.000000
15.367900 0.000000
15.379300 0.000000
15.390700 0.000000
15.402000 0.000000
15.413400 0.000000
15.424800 0.000000
15.436200 0.000000
15.447500 0.000000
15.458900 0.000000
15.470300 0.000000
15.481700 0.000000
15.493100 0.000000
15.504400 0.000000
15.515800 0.000000
15.527200 0.000000
15.538600 0.000000
15.549900 0.000000
15.561300 0.000000
15.572700 0.000000
15.584100 0.000000
15.595400 0.000000
15.606800 0.000000
15.618200 0.000000
15.629600 0.000000
15.640900 0.000000
15.652300 0.000000
15.663700 0.000000
15.675100 0.000000
15.686400 0.000000
15.697800 0.000000
15.709200 0.000000
15.720600 0.000000
15.731900 0.000000
15.743300 0.000000
15.754700 0.000000
15.766100 0.000000
15.777400 0.000000
15.788800 0.000000
15.800200 0.000000
15.811600 0.000000
15.822900 0.000000
15.834300 0.000000
15.845700 0.000000
15.857100 0.000000
15.868400 0.000000
15.879800 0.000000
15.891200 0.000000
15.902600 0.000000
15.913900 0.000000
15.925300 0.000000
15.936700 0.000000
15.948100 0.000000
15.959400 0.000000
15.970800 0.000000
15.982200 0.000000
15.993600 0.000000
16.004900 0.000000
16.016300 0.000000
16.027700 0.000000
16.039100 0.000000
16.050400 0.000000
16.061800 0.000000
16.073200 0.000000
16.084600 0.000000
16.095900 0.000000
16.107300 0.000000
e
