set title 'mp-1193675 - Density of States'
set xlabel 'Energy (eV)'
set ylabel 'DOS (states/eV)'
set grid
set xrange [-10:10]
set yrange [0:17.908]
set xzeroaxis lt -1
set terminal png size 800,600
set output 'mp-1193675_dos_gnuplot.png'
plot '-' using 1:2 with lines title 'DOS'
-11.644300 0.000000
-11.623200 0.000000
-11.602100 0.000000
-11.581000 0.000000
-11.559900 0.000000
-11.538800 0.000000
-11.517700 0.000000
-11.496600 0.000000
-11.475600 0.000000
-11.454500 0.000000
-11.433400 0.000000
-11.412300 0.000000
-11.391200 0.000000
-11.370100 0.000000
-11.349000 0.000000
-11.327900 0.000000
-11.306800 0.000000
-11.285700 0.000000
-11.264600 0.000000
-11.243500 0.000000
-11.222400 0.000000
-11.201300 0.000000
-11.180200 0.000000
-11.159100 0.000000
-11.138000 0.000000
-11.117000 0.000000
-11.095900 0.000000
-11.074800 0.000000
-11.053700 0.000000
-11.032600 0.000000
-11.011500 0.000000
-10.990400 0.000000
-10.969300 0.000000
-10.948200 0.000000
-10.927100 0.000000
-10.906000 0.000000
-10.884900 0.000000
-10.863800 0.000000
-10.842700 0.000000
-10.821600 0.000000
-10.800500 0.000000
-10.779400 0.000000
-10.758400 0.000000
-10.737300 0.000000
-10.716200 0.000000
-10.695100 0.000000
-10.674000 0.000000
-10.652900 0.000000
-10.631800 0.000000
-10.610700 0.000000
-10.589600 0.000000
-10.568500 0.000000
-10.547400 0.000000
-10.526300 0.000000
-10.505200 0.000000
-10.484100 0.000000
-10.463000 0.000000
-10.441900 0.000000
-10.420800 0.000000
-10.399800 0.000000
-10.378700 0.000000
-10.357600 0.000000
-10.336500 0.000000
-10.315400 0.000000
-10.294300 0.000000
-10.273200 0.000000
-10.252100 0.000000
-10.231000 0.000000
-10.209900 0.000000
-10.188800 0.000000
-10.167700 0.000000
-10.146600 0.000000
-10.125500 0.000000
-10.104400 0.000000
-10.083300 0.000000
-10.062200 0.000000
-10.041200 0.000000
-10.020100 0.000000
-9.999000 0.000000
-9.977900 0.000000
-9.956800 0.000000
-9.935700 0.000000
-9.914600 0.000000
-9.893500 0.000000
-9.872400 0.000000
-9.851300 0.000000
-9.830200 0.000000
-9.809100 0.000000
-9.788000 0.000000
-9.766900 0.000000
-9.745800 0.000000
-9.724700 0.000200
-9.703600 0.023200
-9.682600 0.085200
-9.661500 0.186200
-9.640400 0.326200
-9.619300 0.505200
-9.598200 0.719400
-9.577100 0.932900
-9.556000 1.112100
-9.534900 1.252900
-9.513800 1.355200
-9.492700 1.419600
-9.471600 1.455500
-9.450500 1.494500
-9.429400 1.553200
-9.408300 1.631500
-9.387200 1.729500
-9.366100 1.846700
-9.345000 1.972900
-9.324000 2.103900
-9.302900 2.239500
-9.281800 2.475700
-9.260700 2.763400
-9.239600 3.023500
-9.218500 3.255300
-9.197400 3.572800
-9.176300 3.897600
-9.155200 4.091300
-9.134100 4.298900
-9.113000 4.409200
-9.091900 4.405700
-9.070800 4.438200
-9.049700 4.457800
-9.028600 4.541800
-9.007500 4.660800
-8.986400 4.807300
-8.965400 4.954700
-8.944300 5.102900
-8.923200 5.295300
-8.902100 6.307800
-8.881000 7.428500
-8.859900 7.661000
-8.838800 7.531100
-8.817700 7.594400
-8.796600 8.229200
-8.775500 10.996100
-8.754400 12.032200
-8.733300 11.836600
-8.712200 3.184300
-8.691100 2.556100
-8.670000 2.005500
-8.648900 1.532300
-8.627800 1.136100
-8.606800 0.588200
-8.585700 0.057600
-8.564600 0.000000
-8.543500 0.000000
-8.522400 0.000000
-8.501300 0.000000
-8.480200 0.000000
-8.459100 0.000000
-8.438000 0.000000
-8.416900 0.000000
-8.395800 0.000000
-8.374700 0.000000
-8.353600 0.000000
-8.332500 0.000000
-8.311400 0.000000
-8.290300 0.000000
-8.269200 0.000000
-8.248200 0.000000
-8.227100 0.000000
-8.206000 0.000000
-8.184900 0.000000
-8.163800 0.000000
-8.142700 0.000000
-8.121600 0.000000
-8.100500 0.000000
-8.079400 0.000000
-8.058300 0.000000
-8.037200 0.000000
-8.016100 0.000000
-7.995000 0.000000
-7.973900 0.000000
-7.952800 0.000000
-7.931700 0.000000
-7.910600 0.000000
-7.889600 0.000000
-7.868500 0.000000
-7.847400 0.000000
-7.826300 0.000000
-7.805200 0.000000
-7.784100 0.000000
-7.763000 0.000000
-7.741900 0.000000
-7.720800 0.000000
-7.699700 0.000000
-7.678600 0.000000
-7.657500 0.000000
-7.636400 0.000000
-7.615300 0.000000
-7.594200 0.000000
-7.573100 0.000000
-7.552000 0.000000
-7.531000 0.000000
-7.509900 0.000000
-7.488800 0.000000
-7.467700 0.000000
-7.446600 0.000000
-7.425500 0.000000
-7.404400 0.000000
-7.383300 0.000000
-7.362200 0.000000
-7.341100 0.000000
-7.320000 0.000000
-7.298900 0.000000
-7.277800 0.000000
-7.256700 0.000000
-7.235600 0.000000
-7.214500 0.000000
-7.193400 0.004700
-7.172400 0.180900
-7.151300 0.373100
-7.130200 0.581200
-7.109100 0.805300
-7.088000 0.936000
-7.066900 1.001400
-7.045800 1.083300
-7.024700 1.172100
-7.003600 1.267800
-6.982500 1.363700
-6.961400 1.467200
-6.940300 1.597300
-6.919200 1.768300
-6.898100 2.062400
-6.877000 2.772700
-6.855900 3.394700
-6.834800 3.761600
-6.813800 4.127300
-6.792700 4.503400
-6.771600 4.874900
-6.750500 5.246700
-6.729400 5.841700
-6.708300 6.065300
-6.687200 6.604200
-6.666100 8.964300
-6.645000 7.510000
-6.623900 5.418000
-6.602800 5.582600
-6.581700 5.733100
-6.560600 6.857400
-6.539500 6.698500
-6.518400 6.505700
-6.497300 5.663400
-6.476200 4.869100
-6.455200 4.429000
-6.434100 4.069100
-6.413000 3.849100
-6.391900 3.673700
-6.370800 3.500200
-6.349700 3.122500
-6.328600 2.965600
-6.307500 2.805600
-6.286400 2.976400
-6.265300 2.881700
-6.244200 2.799700
-6.223100 2.726800
-6.202000 2.662700
-6.180900 2.632100
-6.159800 2.447900
-6.138700 2.523400
-6.117700 2.793500
-6.096600 3.123900
-6.075500 2.937200
-6.054400 2.668300
-6.033300 2.593600
-6.012200 2.540700
-5.991100 2.510400
-5.970000 2.504000
-5.948900 2.529500
-5.927800 2.588100
-5.906700 2.648800
-5.885600 2.800000
-5.864500 3.025400
-5.843400 3.226000
-5.822300 3.361600
-5.801200 3.517100
-5.780100 3.972300
-5.759100 4.183300
-5.738000 4.386400
-5.716900 4.568200
-5.695800 4.586000
-5.674700 4.651400
-5.653600 4.522400
-5.632500 4.073500
-5.611400 3.878500
-5.590300 3.960900
-5.569200 4.056000
-5.548100 4.135700
-5.527000 4.183700
-5.505900 4.152100
-5.484800 4.273000
-5.463700 4.446700
-5.442600 4.677200
-5.421500 4.885300
-5.400500 5.320300
-5.379400 5.697300
-5.358300 5.729400
-5.337200 5.698700
-5.316100 5.871900
-5.295000 6.030000
-5.273900 6.169400
-5.252800 6.284100
-5.231700 6.272000
-5.210600 6.170700
-5.189500 6.027900
-5.168400 5.894700
-5.147300 5.685100
-5.126200 5.510300
-5.105100 5.240300
-5.084000 8.953900
-5.062900 5.623200
-5.041900 5.248800
-5.020800 5.034500
-4.999700 4.996800
-4.978600 4.990500
-4.957500 5.034900
-4.936400 5.164600
-4.915300 5.380100
-4.894200 5.633800
-4.873100 6.242300
-4.852000 6.135900
-4.830900 5.679800
-4.809800 5.681700
-4.788700 5.790300
-4.767600 5.865900
-4.746500 5.945000
-4.725400 6.093300
-4.704300 6.157400
-4.683300 6.235000
-4.662200 6.312700
-4.641100 6.365800
-4.620000 6.437400
-4.598900 6.360500
-4.577800 6.105500
-4.556700 5.910000
-4.535600 5.588000
-4.514500 5.197900
-4.493400 4.646200
-4.472300 3.808700
-4.451200 3.275500
-4.430100 2.823100
-4.409000 2.385300
-4.387900 2.181800
-4.366800 1.970400
-4.345700 1.813300
-4.324700 1.777100
-4.303600 1.865300
-4.282500 2.080300
-4.261400 2.364200
-4.240300 2.514600
-4.219200 2.577000
-4.198100 2.648300
-4.177000 2.635000
-4.155900 2.632600
-4.134800 2.636000
-4.113700 2.642700
-4.092600 2.640200
-4.071500 2.640200
-4.050400 2.638300
-4.029300 2.634500
-4.008200 2.628800
-3.987100 2.621200
-3.966100 2.612300
-3.945000 2.628700
-3.923900 2.610300
-3.902800 2.581800
-3.881700 2.558300
-3.860600 2.621800
-3.839500 2.709000
-3.818400 2.820100
-3.797300 2.951300
-3.776200 3.093500
-3.755100 3.574500
-3.734000 3.722800
-3.712900 3.807500
-3.691800 3.895500
-3.670700 3.975500
-3.649600 4.044600
-3.628500 4.108000
-3.607500 4.164100
-3.586400 4.137400
-3.565300 4.067700
-3.544200 3.990700
-3.523100 3.918500
-3.502000 3.909700
-3.480900 3.902300
-3.459800 3.898200
-3.438700 3.920700
-3.417600 3.921700
-3.396500 3.897400
-3.375400 3.855600
-3.354300 3.796800
-3.333200 3.721200
-3.312100 3.628600
-3.291000 3.255100
-3.269900 3.082500
-3.248900 2.903800
-3.227800 2.720500
-3.206700 2.532600
-3.185600 2.340100
-3.164500 2.142900
-3.143400 1.941200
-3.122300 1.718800
-3.101200 1.421800
-3.080100 1.108600
-3.059000 0.777300
-3.037900 0.550400
-3.016800 0.562300
-2.995700 0.565800
-2.974600 0.589300
-2.953500 0.632700
-2.932400 0.696000
-2.911300 1.915300
-2.890300 3.364200
-2.869200 4.748300
-2.848100 2.679000
-2.827000 2.760700
-2.805900 3.005200
-2.784800 3.302500
-2.763700 3.569100
-2.742600 3.903200
-2.721500 4.162500
-2.700400 4.402200
-2.679300 4.856600
-2.658200 5.275200
-2.637100 5.543800
-2.616000 5.698700
-2.594900 5.819200
-2.573800 5.837900
-2.552700 5.848900
-2.531700 5.848900
-2.510600 5.837000
-2.489500 5.791600
-2.468400 5.704100
-2.447300 5.902200
-2.426200 6.085200
-2.405100 6.356400
-2.384000 5.957000
-2.362900 5.347700
-2.341800 5.307300
-2.320700 5.376100
-2.299600 5.482800
-2.278500 5.620200
-2.257400 5.953700
-2.236300 6.306200
-2.215200 6.490300
-2.194100 6.523600
-2.173100 6.251300
-2.152000 5.139400
-2.130900 5.126600
-2.109800 5.359300
-2.088700 5.621900
-2.067600 5.890900
-2.046500 6.159600
-2.025400 6.398600
-2.004300 6.611100
-1.983200 6.796000
-1.962100 6.773200
-1.941000 6.705500
-1.919900 6.661400
-1.898800 6.597600
-1.877700 6.255700
-1.856600 5.898900
-1.835500 5.949200
-1.814500 6.089900
-1.793400 6.265000
-1.772300 6.359300
-1.751200 6.361400
-1.730100 6.477500
-1.709000 6.631100
-1.687900 6.540000
-1.666800 6.206000
-1.645700 6.041900
-1.624600 5.911400
-1.603500 5.811200
-1.582400 5.746600
-1.561300 5.756000
-1.540200 6.626300
-1.519100 6.451900
-1.498000 6.183400
-1.476900 6.479300
-1.455900 6.488000
-1.434800 5.753900
-1.413700 6.133600
-1.392600 6.430800
-1.371500 6.591500
-1.350400 6.620000
-1.329300 6.505900
-1.308200 6.315000
-1.287100 6.258500
-1.266000 6.433400
-1.244900 6.338300
-1.223800 6.240400
-1.202700 6.375300
-1.181600 7.413800
-1.160500 7.206100
-1.139400 6.336500
-1.118300 5.970500
-1.097300 6.032000
-1.076200 6.206200
-1.055100 5.804000
-1.034000 5.473500
-1.012900 5.214200
-0.991800 4.932800
-0.970700 4.731000
-0.949600 4.622000
-0.928500 4.559000
-0.907400 4.554300
-0.886300 4.571000
-0.865200 4.610000
-0.844100 4.678600
-0.823000 4.569400
-0.801900 4.794400
-0.780800 5.081200
-0.759700 5.950000
-0.738700 6.738600
-0.717600 7.226000
-0.696500 7.675300
-0.675400 7.965400
-0.654300 8.221600
-0.633200 9.247100
-0.612100 8.839500
-0.591000 7.334700
-0.569900 7.173900
-0.548800 7.791000
-0.527700 8.015400
-0.506600 6.402000
-0.485500 5.940100
-0.464400 5.557800
-0.443300 5.313200
-0.422200 5.117400
-0.401100 4.937700
-0.380100 4.779800
-0.359000 4.633000
-0.337900 4.559200
-0.316800 4.527300
-0.295700 4.666300
-0.274600 5.546300
-0.253500 6.515000
-0.232400 6.903400
-0.211300 7.001400
-0.190200 6.826700
-0.169100 6.367600
-0.148000 5.984900
-0.126900 5.924700
-0.105800 6.184500
-0.084700 6.552200
-0.063600 7.230000
-0.042500 7.591900
-0.021500 7.790800
-0.000400 7.911800
0.020700 7.961200
0.041800 7.881700
0.062900 7.762100
0.084000 7.585600
0.105100 7.456100
0.126200 7.247900
0.147300 6.824700
0.168400 6.913800
0.189500 7.455200
0.210600 6.881800
0.231700 6.392400
0.252800 5.715600
0.273900 5.083100
0.295000 4.494900
0.316100 4.092900
0.337100 5.235000
0.358200 6.071500
0.379300 6.051400
0.400400 6.344000
0.421500 6.437800
0.442600 6.983000
0.463700 7.197200
0.484800 7.069900
0.505900 6.882500
0.527000 6.654100
0.548100 6.694400
0.569200 6.916300
0.590300 7.199200
0.611400 7.077400
0.632500 7.143800
0.653600 7.740000
0.674700 7.927700
0.695700 7.832700
0.716800 7.711800
0.737900 7.708800
0.759000 7.569100
0.780100 7.199800
0.801200 6.970800
0.822300 6.911500
0.843400 6.817500
0.864500 6.754200
0.885600 6.669600
0.906700 6.011600
0.927800 5.978700
0.948900 6.037900
0.970000 5.975500
0.991100 7.113500
1.012200 7.098600
1.033300 7.622300
1.054300 7.670800
1.075400 7.789700
1.096500 7.421600
1.117600 6.712400
1.138700 5.857200
1.159800 5.316400
1.180900 5.687400
1.202000 4.967100
1.223100 4.486600
1.244200 4.612700
1.265300 4.765200
1.286400 4.884600
1.307500 4.980200
1.328600 5.749100
1.349700 6.138000
1.370800 7.016800
1.391900 6.271700
1.412900 6.297500
1.434000 6.319800
1.455100 6.418900
1.476200 6.566000
1.497300 6.241500
1.518400 6.281600
1.539500 6.345800
1.560600 6.476200
1.581700 6.605900
1.602800 6.726100
1.623900 6.821600
1.645000 6.801000
1.666100 6.706000
1.687200 6.607700
1.708300 6.740600
1.729400 6.962700
1.750500 7.768100
1.771500 8.660400
1.792600 9.750000
1.813700 10.644300
1.834800 9.414700
1.855900 8.117700
1.877000 7.307000
1.898100 6.832000
1.919200 6.844000
1.940300 6.763500
1.961400 6.423000
1.982500 6.108100
2.003600 5.865800
2.024700 5.852000
2.045800 5.947700
2.066900 6.065300
2.088000 6.152700
2.109100 6.345300
2.130100 6.548100
2.151200 6.763000
2.172300 6.989400
2.193400 7.199300
2.214500 7.413800
2.235600 7.629700
2.256700 11.176400
2.277800 9.157800
2.298900 9.018700
2.320000 8.649500
2.341100 8.220000
2.362200 8.028100
2.383300 7.903400
2.404400 7.762200
2.425500 7.641400
2.446600 12.282500
2.467700 10.231800
2.488700 8.121000
2.509800 7.885800
2.530900 8.055300
2.552000 8.904700
2.573100 9.466400
2.594200 10.001000
2.615300 11.913800
2.636400 10.689100
2.657500 10.491900
2.678600 11.914200
2.699700 12.050200
2.720800 9.662400
2.741900 12.988100
2.763000 10.364300
2.784100 10.808200
2.805200 10.922400
2.826300 10.839900
2.847300 11.498000
2.868400 12.538900
2.889500 11.924900
2.910600 11.188400
2.931700 10.909700
2.952800 10.186300
2.973900 9.525900
2.995000 9.425900
3.016100 9.100300
3.037200 9.956800
3.058300 11.047300
3.079400 15.609500
3.100500 14.754000
3.121600 16.280300
3.142700 13.281400
3.163800 10.706900
3.184900 10.830400
3.205900 9.830500
3.227000 9.580500
3.248100 9.075700
3.269200 10.245100
3.290300 10.679600
3.311400 8.579100
3.332500 9.695800
3.353600 7.211800
3.374700 7.976200
3.395800 8.900400
3.416900 10.202300
3.438000 10.013600
3.459100 9.687400
3.480200 9.483700
3.501300 9.436700
3.522400 9.562200
3.543500 9.491300
3.564500 9.345700
3.585600 8.823600
3.606700 8.002900
3.627800 8.528700
3.648900 9.268500
3.670000 10.162800
3.691100 11.913800
3.712200 9.850300
3.733300 9.340000
3.754400 9.337600
3.775500 9.689000
3.796600 9.871200
3.817700 10.066100
3.838800 10.803200
3.859900 11.492800
3.881000 11.912000
3.902100 10.978700
3.923100 10.595300
3.944200 10.769100
3.965300 10.887200
3.986400 11.431000
4.007500 12.826200
4.028600 13.554900
4.049700 12.272500
4.070800 9.570000
4.091900 9.169200
4.113000 8.634400
4.134100 8.135700
4.155200 8.199600
4.176300 8.621500
4.197400 8.867700
4.218500 8.723800
4.239600 8.689000
4.260700 8.791500
4.281700 8.989600
4.302800 9.608800
4.323900 9.896700
4.345000 10.221300
4.366100 10.514000
4.387200 10.875900
4.408300 11.297600
4.429400 11.332000
4.450500 12.194700
4.471600 13.400600
4.492700 13.364200
4.513800 12.195000
4.534900 10.257800
4.556000 8.883900
4.577100 8.291500
4.598200 7.851700
4.619300 7.589900
4.640300 6.898500
4.661400 6.132100
4.682500 5.700100
4.703600 5.400900
4.724700 5.243900
4.745800 5.085200
4.766900 4.979600
4.788000 4.941200
4.809100 4.958900
4.830200 4.977100
4.851300 5.227200
4.872400 5.439200
4.893500 5.499200
4.914600 5.527600
4.935700 5.453800
4.956800 5.380300
4.977900 5.310400
4.998900 5.305400
5.020000 5.239900
5.041100 5.222700
5.062200 5.194000
5.083300 5.372800
5.104400 5.456400
5.125500 5.568900
5.146600 5.850700
5.167700 5.728200
5.188800 5.623200
5.209900 5.479000
5.231000 5.399900
5.252100 5.365900
5.273200 5.386900
5.294300 5.409600
5.315400 5.505900
5.336500 5.662000
5.357500 5.800600
5.378600 5.915300
5.399700 6.154400
5.420800 6.343000
5.441900 5.604500
5.463000 5.665900
5.484100 5.815000
5.505200 5.910200
5.526300 5.948400
5.547400 5.973500
5.568500 5.795700
5.589600 5.401500
5.610700 5.193700
5.631800 5.226300
5.652900 5.291700
5.674000 5.289400
5.695100 5.271500
5.716100 5.255800
5.737200 5.352500
5.758300 5.273200
5.779400 5.239900
5.800500 5.145900
5.821600 4.923500
5.842700 4.735100
5.863800 4.585700
5.884900 4.482500
5.906000 4.434200
5.927100 4.401900
5.948200 4.042200
5.969300 3.568500
5.990400 3.070000
6.011500 2.591500
6.032600 2.203600
6.053700 1.919000
6.074700 1.595700
6.095800 1.188600
6.116900 0.734100
6.138000 0.288300
6.159100 0.000600
6.180200 0.000000
6.201300 0.000000
6.222400 0.000000
6.243500 0.000000
6.264600 0.000000
6.285700 0.000000
6.306800 0.000000
6.327900 0.000000
6.349000 0.000000
6.370100 0.000000
6.391200 0.000000
6.412300 0.000000
6.433300 0.000000
6.454400 0.000000
6.475500 0.000000
6.496600 0.000000
6.517700 0.000000
6.538800 0.000000
6.559900 0.000000
6.581000 0.000000
6.602100 0.000000
6.623200 0.000000
6.644300 0.000000
6.665400 0.000000
6.686500 0.000000
6.707600 0.000000
6.728700 0.000000
6.749800 0.000000
6.770900 0.000000
6.791900 0.000000
6.813000 0.000000
6.834100 0.000000
6.855200 0.000000
6.876300 0.000000
6.897400 0.000000
6.918500 0.000000
6.939600 0.000000
6.960700 0.000000
6.981800 0.000000
7.002900 0.000000
7.024000 0.000000
7.045100 0.000000
7.066200 0.000000
7.087300 0.000000
7.108400 0.000000
7.129500 0.000000
7.150500 0.000000
7.171600 0.000000
7.192700 0.000000
7.213800 0.000000
7.234900 0.000000
7.256000 0.000000
7.277100 0.000000
7.298200 0.000000
7.319300 0.000000
7.340400 0.000000
7.361500 0.000000
7.382600 0.000000
7.403700 0.000000
7.424800 0.000000
7.445900 0.000000
7.467000 0.000000
7.488100 0.000000
7.509100 0.000000
7.530200 0.000000
7.551300 0.000000
7.572400 0.000000
7.593500 0.000000
7.614600 0.000000
7.635700 0.000000
7.656800 0.000000
7.677900 0.000000
7.699000 0.013900
7.720100 0.097800
7.741200 0.207500
7.762300 0.343200
7.783400 0.502900
7.804500 0.645000
7.825600 0.790600
7.846700 0.940900
7.867700 1.185900
7.888800 1.349900
7.909900 1.513200
7.931000 1.933300
7.952100 2.123800
7.973200 2.310400
7.994300 2.513500
8.015400 2.738300
8.036500 2.969500
8.057600 3.207100
8.078700 3.609800
8.099800 3.817900
8.120900 3.996500
8.142000 4.142000
8.163100 4.250600
8.184200 4.850400
8.205300 5.030700
8.226300 5.098400
8.247400 5.156500
8.268500 5.217200
8.289600 5.279300
8.310700 5.367200
8.331800 6.056000
8.352900 6.665600
8.374000 6.895300
8.395100 7.053200
8.416200 7.323600
8.437300 7.659600
8.458400 6.522300
8.479500 5.558500
8.500600 5.047300
8.521700 6.741500
8.542800 5.935300
8.563900 5.667300
8.584900 5.367200
8.606000 4.482700
8.627100 2.943300
8.648200 2.759600
8.669300 2.631200
8.690400 2.364900
8.711500 2.041200
8.732600 2.454700
8.753700 2.454900
8.774800 2.925700
8.795900 2.604100
8.817000 3.049300
8.838100 3.458700
8.859200 3.510000
8.880300 3.442100
8.901400 3.771700
8.922500 4.230700
8.943500 5.471000
8.964600 6.307600
8.985700 7.023500
9.006800 7.670300
9.027900 7.964100
9.049000 7.868300
9.070100 8.073700
9.091200 8.303300
9.112300 8.393800
9.133400 8.708000
9.154500 8.185300
9.175600 8.118600
9.196700 7.721900
9.217800 7.105600
9.238900 6.431100
9.260000 5.726100
9.281100 4.314300
9.302100 3.867900
9.323200 3.526800
9.344300 3.386700
9.365400 3.331600
9.386500 3.530100
9.407600 3.811600
9.428700 4.281300
9.449800 5.495700
9.470900 5.858400
9.492000 6.517400
9.513100 6.392000
9.534200 6.289300
9.555300 6.354200
9.576400 6.305100
9.597500 6.220500
9.618600 6.134700
9.639700 6.092600
9.660700 6.072100
9.681800 6.161500
9.702900 6.205900
9.724000 6.201200
9.745100 6.116100
9.766200 6.036200
9.787300 5.973500
9.808400 5.914300
9.829500 5.730900
9.850600 5.673000
9.871700 5.590700
9.892800 5.397200
9.913900 5.164500
9.935000 4.653500
9.956100 4.140200
9.977200 3.930800
9.998300 3.966400
10.019300 4.222300
10.040400 4.653800
10.061500 5.186700
10.082600 5.955100
10.103700 7.146600
10.124800 7.571200
10.145900 7.841800
10.167000 7.953200
10.188100 7.852800
10.209200 7.638900
10.230300 7.464000
10.251400 7.071600
10.272500 6.686700
10.293600 6.695200
10.314700 6.693300
10.335800 6.672300
10.356900 6.632300
10.377900 7.497000
10.399000 7.593900
10.420100 7.651100
10.441200 7.767200
10.462300 7.885200
10.483400 8.005100
10.504500 7.887500
10.525600 8.035500
10.546700 8.260100
10.567800 7.903700
10.588900 7.157100
10.610000 7.081100
10.631100 7.008400
10.652200 6.666100
10.673300 6.118700
10.694400 5.752200
10.715500 4.484100
10.736500 4.020400
10.757600 3.760900
10.778700 4.098900
10.799800 4.681500
10.820900 5.098300
10.842000 5.837000
10.863100 6.522700
10.884200 7.338000
10.905300 8.362200
10.926400 9.690200
10.947500 9.906800
10.968600 9.673400
10.989700 9.231300
11.010800 8.568100
11.031900 7.864400
11.053000 7.681000
11.074100 7.089800
11.095100 6.691600
11.116200 6.347700
11.137300 7.269500
11.158400 7.412600
11.179500 7.568700
11.200600 7.817700
11.221700 7.064000
11.242800 5.916800
11.263900 5.327000
11.285000 5.303800
11.306100 5.302900
11.327200 5.505500
11.348300 5.497400
11.369400 5.651400
11.390500 5.658700
11.411600 5.640500
11.432700 5.588300
11.453700 5.541100
11.474800 5.944500
11.495900 8.927700
11.517000 5.874300
11.538100 5.632200
11.559200 5.409300
11.580300 5.253500
11.601400 5.184300
11.622500 5.171600
11.643600 5.314400
11.664700 5.433000
11.685800 5.799500
11.706900 6.324100
11.728000 6.935300
11.749100 7.870300
11.770200 8.695900
11.791300 10.515500
11.812300 11.627200
11.833400 7.872400
11.854500 4.406800
11.875600 4.021700
11.896700 3.848300
11.917800 3.759600
11.938900 3.755800
11.960000 3.882600
11.981100 4.125800
12.002200 4.322300
12.023300 4.436600
12.044400 4.479100
12.065500 4.502800
12.086600 4.538300
12.107700 4.615800
12.128800 4.766600
12.149900 5.058600
12.170900 5.590400
12.192000 5.726300
12.213100 5.898900
12.234200 6.094900
12.255300 6.158900
12.276400 6.287200
12.297500 6.425300
12.318600 6.948700
12.339700 9.291500
12.360800 9.086500
12.381900 10.709400
12.403000 6.821900
12.424100 6.813700
12.445200 6.365500
12.466300 6.502700
12.487400 6.634900
12.508500 7.201100
12.529500 7.822300
12.550600 7.718200
12.571700 7.627100
12.592800 6.191100
12.613900 6.114700
12.635000 6.078300
12.656100 6.313200
12.677200 6.280500
12.698300 6.234700
12.719400 6.213600
12.740500 6.270700
12.761600 6.299800
12.782700 6.409700
12.803800 6.407600
12.824900 6.420500
12.846000 6.582700
12.867100 7.201100
12.888100 7.557600
12.909200 7.638400
12.930300 7.821600
12.951400 7.324000
12.972500 7.471500
12.993600 7.648100
13.014700 7.751800
13.035800 7.761700
13.056900 7.897800
13.078000 7.999200
13.099100 7.772300
13.120200 7.794300
13.141300 8.355300
13.162400 8.501000
13.183500 8.646300
13.204600 8.369600
13.225700 7.917400
13.246700 8.003700
13.267800 8.389600
13.288900 8.468100
13.310000 8.385200
13.331100 8.112400
13.352200 7.148400
13.373300 7.411400
13.394400 7.020700
13.415500 5.603500
13.436600 5.475800
13.457700 5.354900
13.478800 4.848200
13.499900 4.566700
13.521000 4.685500
13.542100 5.017200
13.563200 5.638000
13.584300 6.051500
13.605300 6.328600
13.626400 6.391100
13.647500 6.402500
13.668600 6.492700
13.689700 6.607800
13.710800 6.781400
13.731900 6.974200
13.753000 7.196800
13.774100 7.392500
13.795200 7.289300
13.816300 7.157000
13.837400 7.168500
13.858500 7.320400
13.879600 7.554000
13.900700 7.781600
13.921800 8.331300
13.942900 8.617700
13.963900 8.479800
13.985000 8.352400
14.006100 8.503900
14.027200 8.584200
14.048300 8.726900
14.069400 8.830700
14.090500 8.716000
14.111600 8.631200
14.132700 8.600000
14.153800 8.397200
14.174900 8.698500
14.196000 8.873200
14.217100 9.680500
14.238200 11.964200
14.259300 12.282200
14.280400 11.700400
14.301500 10.651200
14.322500 9.460800
14.343600 9.086600
14.364700 9.306900
14.385800 9.475900
14.406900 9.320300
14.428000 9.359900
14.449100 9.387000
14.470200 9.076700
14.491300 9.084400
14.512400 8.517800
14.533500 7.733800
14.554600 7.516300
14.575700 7.207800
14.596800 11.783000
14.617900 11.092600
14.639000 8.983600
14.660100 9.921500
14.681100 8.936400
14.702200 8.703500
14.723300 8.651900
14.744400 8.929600
14.765500 9.370600
14.786600 9.779900
14.807700 10.316900
14.828800 10.368500
14.849900 10.196700
14.871000 9.888300
14.892100 9.607800
14.913200 8.940900
14.934300 8.686200
14.955400 9.956300
14.976500 8.134300
14.997600 8.021700
15.018700 10.823100
15.039700 9.877900
15.060800 10.488200
15.081900 10.749500
15.103000 10.657000
15.124100 10.580600
15.145200 10.777600
15.166300 10.557000
15.187400 10.636300
15.208500 11.105200
15.229600 12.186700
15.250700 12.404300
15.271800 11.832100
15.292900 10.667800
15.314000 9.543400
15.335100 8.786000
15.356200 8.354700
15.377300 8.101600
15.398300 7.733100
15.419400 8.004900
15.440500 8.481600
15.461600 8.850000
15.482700 9.350500
15.503800 9.377900
15.524900 9.381300
15.546000 9.386700
15.567100 9.610100
15.588200 9.669400
15.609300 10.255900
15.630400 10.786400
15.651500 10.706900
15.672600 10.811400
15.693700 10.941600
15.714800 11.603400
15.735900 12.483800
15.756900 12.234100
15.778000 11.742500
15.799100 11.307500
15.820200 9.717800
15.841300 9.405800
15.862400 9.373100
15.883500 9.364400
15.904600 9.602600
15.925700 9.987200
15.946800 10.022100
15.967900 10.042900
15.989000 9.945300
16.010100 9.637300
16.031200 9.560200
16.052300 9.581000
16.073400 9.743800
16.094500 10.017200
16.115500 10.118600
16.136600 10.723000
16.157700 10.711400
16.178800 10.051400
16.199900 10.056300
16.221000 8.541000
16.242100 7.627300
16.263200 7.563700
16.284300 7.501500
16.305400 7.446800
16.326500 8.410300
16.347600 8.743100
16.368700 8.738100
16.389800 8.274600
16.410900 7.191900
16.432000 6.775900
16.453100 6.625500
16.474100 6.496400
16.495200 6.376600
16.516300 6.240800
16.537400 6.090600
16.558500 6.011700
16.579600 6.051400
16.600700 6.095100
16.621800 6.142900
16.642900 6.483300
16.664000 7.140800
16.685100 7.976400
16.706200 8.935400
16.727300 9.739300
16.748400 10.064900
16.769500 9.671000
16.790600 10.565500
16.811700 11.919700
16.832700 12.429300
16.853800 11.534300
16.874900 11.096400
16.896000 8.924300
16.917100 10.003400
16.938200 11.868100
16.959300 14.176700
16.980400 15.429300
17.001500 15.654600
17.022600 10.759400
17.043700 9.966300
17.064800 9.590500
17.085900 9.501900
17.107000 9.221600
17.128100 8.794700
17.149200 8.567900
17.170300 8.540000
17.191300 8.502900
17.212400 8.474500
17.233500 10.170200
17.254600 13.057100
17.275700 12.803400
17.296800 8.071000
17.317900 7.262900
17.339000 6.844200
17.360100 6.649800
17.381200 6.837000
17.402300 7.580000
17.423400 8.321300
17.444500 8.731200
17.465600 8.906100
17.486700 9.199600
17.507800 9.144100
17.528900 8.758400
17.549900 8.593700
17.571000 8.495800
17.592100 8.935700
17.613200 9.183500
17.634300 8.839500
17.655400 8.750100
17.676500 8.763900
17.697600 9.005100
17.718700 9.218500
17.739800 10.715900
17.760900 9.802300
17.782000 9.423200
17.803100 9.212700
17.824200 9.612300
17.845300 10.680800
17.866400 11.441300
17.887500 11.065700
17.908500 10.256700
17.929600 11.396000
17.950700 11.718200
17.971800 10.975500
17.992900 10.046200
18.014000 9.595300
18.035100 9.268500
18.056200 10.525700
18.077300 10.249400
18.098400 8.656400
18.119500 7.879900
18.140600 7.222500
18.161700 6.698600
18.182800 6.662700
18.203900 6.799500
18.225000 6.988300
18.246100 7.357100
18.267100 7.891400
18.288200 7.709000
18.309300 7.788600
18.330400 7.946700
18.351500 8.121600
18.372600 8.275000
18.393700 10.494500
18.414800 8.646300
18.435900 8.757200
18.457000 8.746200
18.478100 9.205900
18.499200 8.717800
18.520300 8.989600
18.541400 10.029700
18.562500 11.972400
18.583600 12.081500
18.604700 12.779300
18.625700 13.720700
18.646800 15.162800
18.667900 12.889700
18.689000 12.244100
18.710100 11.788100
18.731200 11.831900
18.752300 12.166400
18.773400 13.237000
18.794500 13.204100
18.815600 11.892200
18.836700 11.226700
18.857800 10.200500
18.878900 9.628200
18.900000 9.429900
18.921100 8.792800
18.942200 8.340300
18.963300 7.645100
18.984300 7.206800
19.005400 6.645300
19.026500 7.592100
19.047600 7.400900
19.068700 7.358500
19.089800 9.467100
19.110900 9.727500
19.132000 10.650400
19.153100 10.878600
19.174200 10.785500
19.195300 10.768500
19.216400 10.980100
19.237500 10.387300
19.258600 9.987400
19.279700 9.771100
19.300800 9.900700
19.321900 9.979800
19.342900 10.227000
19.364000 11.018600
19.385100 11.943100
19.406200 13.629200
19.427300 13.417600
19.448400 13.853700
19.469500 12.421400
19.490600 11.261700
19.511700 10.780300
19.532800 10.818700
19.553900 11.060600
19.575000 11.096800
19.596100 13.975200
19.617200 11.222000
19.638300 11.009700
19.659400 10.774300
19.680500 10.175600
19.701500 9.501700
19.722600 8.911200
19.743700 9.062000
19.764800 9.135500
19.785900 9.173700
19.807000 9.637600
19.828100 9.950300
19.849200 10.388200
19.870300 11.434900
19.891400 13.237800
19.912500 14.199900
19.933600 12.476400
19.954700 10.710000
19.975800 10.458800
19.996900 10.528900
20.018000 11.436500
20.039100 11.079700
20.060100 11.879500
20.081200 11.364100
20.102300 11.458900
20.123400 11.320100
20.144500 10.921300
20.165600 10.500000
20.186700 10.365000
20.207800 9.623300
20.228900 8.765900
20.250000 8.656300
20.271100 8.931000
20.292200 9.553600
20.313300 9.951700
20.334400 10.388000
20.355500 10.687500
20.376600 10.389000
20.397700 11.195000
20.418700 11.112500
20.439800 12.121800
20.460900 10.901400
20.482000 10.876500
20.503100 10.218500
20.524200 9.632400
20.545300 10.013700
20.566400 10.732300
20.587500 12.367400
20.608600 9.928200
20.629700 10.113500
20.650800 10.398200
20.671900 10.881600
20.693000 11.938400
20.714100 14.579700
20.735200 13.598900
20.756300 15.009600
20.777300 8.157600
20.798400 7.038900
20.819500 6.343200
20.840600 6.054800
20.861700 5.895300
20.882800 6.239500
20.903900 6.134900
20.925000 6.132300
20.946100 6.410900
20.967200 9.901700
20.988300 7.294900
21.009400 7.710800
21.030500 8.064700
21.051600 8.383700
21.072700 8.623900
21.093800 8.562800
21.114900 8.393100
21.135900 8.164900
21.157000 8.616600
21.178100 8.960200
21.199200 9.552800
21.220300 9.403400
21.241400 10.594900
21.262500 13.242900
21.283600 13.435200
21.304700 11.031800
21.325800 7.564000
21.346900 6.641700
21.368000 6.757800
21.389100 7.067700
21.410200 12.752500
21.431300 12.689400
21.452400 12.650100
21.473500 11.712100
21.494500 11.115400
21.515600 11.208900
21.536700 10.627800
21.557800 9.994900
21.578900 9.529300
21.600000 10.063200
21.621100 12.350200
21.642200 12.787300
21.663300 10.155500
21.684400 9.294800
21.705500 11.213500
21.726600 11.546800
21.747700 10.887400
21.768800 11.108900
21.789900 10.777900
21.811000 9.402000
21.832100 8.416300
21.853100 8.024300
21.874200 7.708200
21.895300 7.766000
21.916400 7.774800
21.937500 7.677600
21.958600 7.268500
21.979700 7.912100
22.000800 8.650500
22.021900 9.063100
22.043000 9.355300
22.064100 9.993200
22.085200 11.154900
22.106300 12.730900
22.127400 13.380400
22.148500 13.068500
22.169600 10.940600
22.190700 10.570900
22.211700 9.766100
22.232800 9.069200
22.253900 8.496500
22.275000 7.905900
22.296100 8.479000
22.317200 9.104100
22.338300 8.838000
22.359400 7.999000
22.380500 7.408400
22.401600 7.166000
22.422700 7.035100
22.443800 8.622100
22.464900 10.708800
22.486000 11.005800
22.507100 9.571800
22.528200 10.586200
22.549300 11.133400
22.570300 11.729800
22.591400 13.198300
22.612500 13.833000
22.633600 14.249600
22.654700 14.428400
22.675800 13.899000
22.696900 11.328300
22.718000 10.974000
22.739100 11.770300
22.760200 12.931200
22.781300 12.276700
22.802400 10.584900
22.823500 8.940300
22.844600 8.316800
22.865700 8.390100
22.886800 8.994600
22.907900 9.726100
22.928900 10.660800
22.950000 12.439000
22.971100 14.872500
22.992200 13.275900
23.013300 13.770100
23.034400 13.420900
23.055500 13.697600
23.076600 13.940000
23.097700 14.284200
23.118800 15.198800
23.139900 11.900800
23.161000 9.635300
23.182100 8.765600
23.203200 9.304900
23.224300 11.566700
23.245400 14.285500
23.266500 15.126100
23.287500 15.914500
23.308600 15.984800
23.329700 13.914100
23.350800 13.475200
23.371900 13.222000
23.393000 11.178500
23.414100 11.015500
23.435200 11.166000
23.456300 11.459500
23.477400 11.481500
23.498500 9.663600
23.519600 8.742100
23.540700 8.392300
23.561800 10.051600
23.582900 11.165600
23.604000 10.547200
23.625100 8.853100
23.646100 8.760000
23.667200 8.019900
23.688300 9.445900
23.709400 9.166200
23.730500 7.789400
23.751600 7.733400
23.772700 7.774100
23.793800 8.021900
23.814900 8.122400
23.836000 8.209300
23.857100 8.375100
23.878200 8.659700
23.899300 8.895400
23.920400 8.898000
23.941500 8.783600
23.962600 8.874900
23.983700 8.798600
24.004700 8.706400
24.025800 8.093400
24.046900 7.099100
24.068000 7.661200
24.089100 7.687700
24.110200 8.447700
24.131300 15.264900
24.152400 9.518500
24.173500 9.602900
24.194600 13.429800
24.215700 12.719800
24.236800 13.190000
24.257900 13.488800
24.279000 12.907300
24.300100 12.006700
24.321200 11.439100
24.342300 10.118700
24.363300 8.305300
24.384400 7.592500
24.405500 7.147100
24.426600 6.796100
24.447700 6.556300
24.468800 6.427700
24.489900 6.417700
24.511000 6.477800
24.532100 6.594300
24.553200 6.535200
24.574300 6.899200
24.595400 9.996000
24.616500 9.019700
24.637600 9.551900
24.658700 11.003200
24.679800 9.596200
24.700900 7.709500
24.721900 7.305400
24.743000 6.974800
24.764100 6.928300
24.785200 7.213700
24.806300 7.760600
24.827400 8.491300
24.848500 9.858800
24.869600 11.861200
24.890700 12.263400
24.911800 12.029900
24.932900 12.256100
24.954000 11.851700
24.975100 10.170700
24.996200 8.713200
25.017300 8.144300
25.038400 7.783900
25.059500 7.412200
25.080500 8.737600
25.101600 10.716000
25.122700 10.198000
25.143800 11.570900
25.164900 12.465200
25.186000 13.278000
25.207100 14.456200
25.228200 13.921400
25.249300 14.942700
25.270400 17.089000
25.291500 18.705500
25.312600 14.180900
25.333700 12.350300
25.354800 11.622300
25.375900 11.005100
25.397000 10.406900
25.418000 9.834700
25.439100 9.345000
25.460200 8.975500
25.481300 8.789300
25.502400 9.143900
25.523500 8.924100
25.544600 9.302000
25.565700 9.650700
25.586800 9.955700
25.607900 10.204400
25.629000 10.417200
25.650100 11.042700
25.671200 10.909400
25.692300 10.793900
25.713400 10.816300
25.734500 11.001600
25.755600 10.984600
25.776600 11.521900
25.797700 10.918700
25.818800 8.862300
25.839900 8.510400
25.861000 8.444000
25.882100 8.422800
25.903200 9.297800
25.924300 8.772300
25.945400 8.268600
25.966500 8.240100
25.987600 8.229300
26.008700 8.172200
26.029800 8.068600
26.050900 7.853800
26.072000 7.619000
26.093100 7.001200
26.114200 6.877800
26.135200 7.318200
26.156300 7.302600
26.177400 7.742800
26.198500 8.190800
26.219600 8.650000
26.240700 9.533400
26.261800 9.343400
26.282900 9.940000
26.304000 10.898600
26.325100 13.543400
26.346200 11.380700
26.367300 11.407000
26.388400 11.494700
26.409500 11.650900
26.430600 11.907400
26.451700 12.771400
26.472800 13.380200
26.493800 11.971800
26.514900 11.597000
26.536000 11.089200
26.557100 10.115000
26.578200 9.987600
26.599300 9.679700
26.620400 7.844000
26.641500 7.310300
26.662600 6.856300
26.683700 6.536900
26.704800 6.913200
26.725900 7.561300
26.747000 12.862400
26.768100 14.482000
26.789200 12.577600
26.810300 11.529100
26.831400 9.709000
26.852400 7.447200
26.873500 6.619100
26.894600 6.223300
26.915700 5.851600
26.936800 5.540700
26.957900 5.318700
26.979000 5.273000
27.000100 5.427800
27.021200 5.559600
27.042300 5.668700
27.063400 6.146200
27.084500 5.983000
27.105600 5.950500
27.126700 5.897900
27.147800 6.046600
27.168900 6.189000
27.190000 6.236400
27.211000 6.852100
27.232100 6.831800
27.253200 6.807000
27.274300 7.061200
27.295400 7.490500
27.316500 7.763000
27.337600 8.252100
27.358700 8.783300
27.379800 8.319500
27.400900 6.807000
27.422000 5.653900
27.443100 5.544600
27.464200 5.431400
27.485300 5.317000
27.506400 5.196700
27.527500 5.063400
27.548600 5.641300
27.569600 5.057900
27.590700 4.458500
27.611800 4.029400
27.632900 3.646100
27.654000 3.294300
27.675100 2.972000
27.696200 2.679200
27.717300 2.430100
27.738400 2.363500
27.759500 2.342200
27.780600 2.360900
27.801700 2.430400
27.822800 2.495500
27.843900 2.556200
27.865000 2.612700
27.886100 2.664800
27.907200 2.712500
27.928200 2.755900
27.949300 2.795000
27.970400 2.916200
27.991500 3.293600
28.012600 3.996300
28.033700 3.901300
28.054800 3.889700
28.075900 4.516600
28.097000 3.842100
28.118100 2.485900
28.139200 2.395700
28.160300 2.488800
28.181400 2.521900
28.202500 2.396300
28.223600 2.562700
28.244700 2.471700
28.265800 2.139500
28.286800 1.754900
28.307900 1.473500
28.329000 1.256600
28.350100 1.065300
28.371200 0.907400
28.392300 0.818300
28.413400 0.737300
28.434500 0.662800
28.455600 0.594600
28.476700 0.532800
28.497800 0.413400
28.518900 0.305700
28.540000 0.213600
28.561100 0.137200
28.582200 0.076500
28.603300 0.031400
28.624400 0.001900
28.645400 0.000000
28.666500 0.000000
28.687600 0.000000
28.708700 0.000000
28.729800 0.000000
28.750900 0.000000
28.772000 0.000000
28.793100 0.000000
28.814200 0.000000
28.835300 0.000000
28.856400 0.000000
28.877500 0.000000
28.898600 0.000000
28.919700 0.000000
28.940800 0.000000
28.961900 0.000000
28.983000 0.000000
29.004000 0.000000
29.025100 0.000000
29.046200 0.000000
29.067300 0.000000
29.088400 0.000000
29.109500 0.000000
29.130600 0.000000
29.151700 0.000000
29.172800 0.000000
29.193900 0.000000
29.215000 0.000000
29.236100 0.000000
29.257200 0.000000
29.278300 0.000000
29.299400 0.000000
29.320500 0.000000
29.341600 0.000000
29.362600 0.000000
29.383700 0.000000
29.404800 0.000000
29.425900 0.000000
29.447000 0.000000
29.468100 0.000000
29.489200 0.000000
29.510300 0.000000
29.531400 0.000000
29.552500 0.000000
29.573600 0.000000
29.594700 0.000000
29.615800 0.000000
29.636900 0.000000
29.658000 0.000000
29.679100 0.000000
29.700200 0.000000
29.721200 0.000000
29.742300 0.000000
29.763400 0.000000
29.784500 0.000000
29.805600 0.000000
29.826700 0.000000
29.847800 0.000000
29.868900 0.000000
29.890000 0.000000
29.911100 0.000000
29.932200 0.000000
29.953300 0.000000
29.974400 0.000000
29.995500 0.000000
30.016600 0.000000
30.037700 0.000000
30.058800 0.000000
30.079800 0.000000
30.100900 0.000000
30.122000 0.000000
30.143100 0.000000
30.164200 0.000000
30.185300 0.000000
30.206400 0.000000
30.227500 0.000000
30.248600 0.000000
30.269700 0.000000
30.290800 0.000000
30.311900 0.000000
30.333000 0.000000
30.354100 0.000000
30.375200 0.000000
30.396300 0.000000
30.417400 0.000000
30.438400 0.000000
30.459500 0.000000
30.480600 0.000000
30.501700 0.000000
30.522800 0.000000
30.543900 0.000000
e
