set title 'mp-1184679 - Density of States'
set xlabel 'Energy (eV)'
set ylabel 'DOS (states/eV)'
set grid
set xrange [-10:10]
set yrange [0:45.094]
set xzeroaxis lt -1
set terminal png size 800,600
set output 'mp-1184679_dos_gnuplot.png'
plot '-' using 1:2 with lines title 'DOS'
-9.097500 0.000000
-9.079200 0.000000
-9.060800 0.000000
-9.042500 0.000000
-9.024100 0.000000
-9.005800 0.000000
-8.987400 0.000000
-8.969100 0.000000
-8.950700 0.000000
-8.932400 0.000000
-8.914000 0.000000
-8.895700 0.000000
-8.877300 0.000000
-8.859000 0.000000
-8.840600 0.000000
-8.822300 0.000000
-8.803900 0.000000
-8.785600 0.000000
-8.767200 0.000000
-8.748900 0.000000
-8.730500 0.000000
-8.712200 0.000000
-8.693800 0.000000
-8.675500 0.000000
-8.657100 0.000000
-8.638800 0.000000
-8.620400 0.000000
-8.602100 0.000000
-8.583700 0.000000
-8.565400 0.000000
-8.547000 0.000000
-8.528700 0.000000
-8.510300 0.000000
-8.492000 0.000000
-8.473600 0.000000
-8.455300 0.000000
-8.436900 0.000000
-8.418600 0.000000
-8.400200 0.000000
-8.381900 0.000000
-8.363500 0.000000
-8.345200 0.000000
-8.326800 0.000000
-8.308500 0.000000
-8.290100 0.000000
-8.271800 0.000000
-8.253400 0.000000
-8.235100 0.000000
-8.216700 0.000000
-8.198400 0.000000
-8.180000 0.000000
-8.161700 0.000000
-8.143300 0.000000
-8.125000 0.000000
-8.106600 0.000000
-8.088300 0.000000
-8.069900 0.000000
-8.051600 0.000000
-8.033200 0.000000
-8.014900 0.000000
-7.996500 0.000000
-7.978200 0.000000
-7.959800 0.000000
-7.941500 0.000000
-7.923100 0.000000
-7.904800 0.000000
-7.886400 0.000000
-7.868100 0.000000
-7.849700 0.000000
-7.831400 0.000000
-7.813100 0.000000
-7.794700 0.000000
-7.776400 0.000000
-7.758000 0.000000
-7.739700 0.000000
-7.721300 0.000000
-7.703000 0.000000
-7.684600 0.000000
-7.666300 0.000000
-7.647900 0.000000
-7.629600 0.000000
-7.611200 0.000000
-7.592900 0.000000
-7.574500 0.000000
-7.556200 0.000000
-7.537800 0.000200
-7.519500 0.001000
-7.501100 0.003900
-7.482800 0.011900
-7.464400 0.028700
-7.446100 0.056600
-7.427700 0.093100
-7.409400 0.133700
-7.391000 0.180000
-7.372700 0.242900
-7.354300 0.325000
-7.336000 0.397600
-7.317600 0.413300
-7.299300 0.360100
-7.280900 0.288700
-7.262600 0.271700
-7.244200 0.340200
-7.225900 0.461200
-7.207500 0.574900
-7.189200 0.651000
-7.170800 0.704500
-7.152500 0.749100
-7.134100 0.755900
-7.115800 0.685300
-7.097400 0.550100
-7.079100 0.416500
-7.060700 0.345300
-7.042400 0.353000
-7.024000 0.432600
-7.005700 0.587100
-6.987300 0.814800
-6.969000 1.057600
-6.950600 1.204500
-6.932300 1.178800
-6.913900 1.019000
-6.895600 0.846500
-6.877200 0.758200
-6.858900 0.763800
-6.840500 0.810200
-6.822200 0.841800
-6.803800 0.838900
-6.785500 0.811500
-6.767100 0.770400
-6.748800 0.726800
-6.730400 0.714200
-6.712100 0.770300
-6.693700 0.891100
-6.675400 1.037700
-6.657000 1.192300
-6.638700 1.365400
-6.620300 1.538400
-6.602000 1.636800
-6.583600 1.586900
-6.565300 1.396000
-6.546900 1.169400
-6.528600 1.033600
-6.510200 1.030300
-6.491900 1.089400
-6.473500 1.111100
-6.455200 1.068000
-6.436800 1.018900
-6.418500 1.031000
-6.400100 1.109600
-6.381800 1.214400
-6.363400 1.323600
-6.345100 1.447400
-6.326700 1.594400
-6.308400 1.768600
-6.290000 1.986100
-6.271700 2.244500
-6.253300 2.468700
-6.235000 2.532700
-6.216600 2.366700
-6.198300 2.034000
-6.179900 1.683000
-6.161600 1.437300
-6.143200 1.327800
-6.124900 1.302600
-6.106500 1.300500
-6.088200 1.325400
-6.069800 1.430400
-6.051500 1.629100
-6.033100 1.846200
-6.014800 1.970200
-5.996400 1.953700
-5.978100 1.857100
-5.959700 1.777000
-5.941400 1.742400
-5.923000 1.696200
-5.904700 1.564700
-5.886300 1.328400
-5.868000 1.042900
-5.849600 0.807800
-5.831300 0.695300
-5.812900 0.691100
-5.794600 0.718300
-5.776200 0.725100
-5.757900 0.725500
-5.739500 0.752300
-5.721200 0.805700
-5.702800 0.872100
-5.684500 0.963300
-5.666100 1.101300
-5.647800 1.269100
-5.629400 1.402100
-5.611100 1.436500
-5.592700 1.382500
-5.574400 1.354800
-5.556000 1.487600
-5.537700 1.783500
-5.519300 2.072900
-5.501000 2.176200
-5.482600 2.094100
-5.464300 1.991700
-5.445900 2.013800
-5.427600 2.167100
-5.409200 2.361500
-5.390900 2.505400
-5.372500 2.574600
-5.354200 2.622200
-5.335800 2.704800
-5.317500 2.816400
-5.299100 2.941700
-5.280800 3.122100
-5.262400 3.377000
-5.244100 3.590400
-5.225700 3.569900
-5.207400 3.227900
-5.189000 2.669800
-5.170700 2.115200
-5.152300 1.743000
-5.134000 1.596800
-5.115600 1.619700
-5.097300 1.755800
-5.078900 1.999500
-5.060600 2.356600
-5.042200 2.787800
-5.023900 3.198000
-5.005500 3.466000
-4.987200 3.490300
-4.968800 3.242000
-4.950500 2.784300
-4.932100 2.227500
-4.913800 1.688300
-4.895400 1.293700
-4.877100 1.148100
-4.858700 1.249800
-4.840400 1.486100
-4.822000 1.752500
-4.803700 2.045500
-4.785300 2.391000
-4.767000 2.722300
-4.748600 2.903900
-4.730300 2.877800
-4.711900 2.726400
-4.693600 2.580000
-4.675200 2.507900
-4.656900 2.511100
-4.638500 2.561000
-4.620200 2.608300
-4.601800 2.617200
-4.583500 2.640900
-4.565100 2.789100
-4.546800 3.058000
-4.528400 3.265800
-4.510100 3.226700
-4.491700 2.952700
-4.473400 2.643200
-4.455000 2.493700
-4.436700 2.534700
-4.418300 2.658800
-4.400000 2.776100
-4.381600 2.894400
-4.363300 3.052900
-4.344900 3.234000
-4.326600 3.353700
-4.308200 3.305900
-4.289900 3.031300
-4.271500 2.593300
-4.253200 2.186000
-4.234800 2.011000
-4.216500 2.123700
-4.198100 2.398000
-4.179800 2.633100
-4.161400 2.690600
-4.143100 2.552200
-4.124700 2.281400
-4.106400 1.948000
-4.088000 1.584600
-4.069700 1.213100
-4.051300 0.898300
-4.033000 0.736000
-4.014600 0.767700
-3.996300 0.922900
-3.977900 1.068300
-3.959600 1.113000
-3.941200 1.054200
-3.922900 0.925000
-3.904500 0.743900
-3.886200 0.537000
-3.867800 0.368900
-3.849500 0.309500
-3.831100 0.370400
-3.812800 0.485600
-3.794400 0.559700
-3.776100 0.543200
-3.757700 0.460000
-3.739400 0.363800
-3.721000 0.286700
-3.702700 0.234400
-3.684300 0.199400
-3.666000 0.167000
-3.647600 0.125600
-3.629300 0.078600
-3.610900 0.039200
-3.592600 0.015300
-3.574200 0.004600
-3.555900 0.001100
-3.537500 0.000200
-3.519200 0.000000
-3.500800 0.000000
-3.482500 0.000000
-3.464100 0.000000
-3.445800 0.000000
-3.427400 0.000000
-3.409100 0.000000
-3.390700 0.000000
-3.372400 0.000000
-3.354000 0.000000
-3.335700 0.000000
-3.317300 0.000000
-3.299000 0.000000
-3.280600 0.000000
-3.262300 0.000000
-3.243900 0.000000
-3.225600 0.000000
-3.207200 0.000000
-3.188900 0.000000
-3.170500 0.000000
-3.152200 0.000000
-3.133800 0.000000
-3.115500 0.000000
-3.097100 0.000000
-3.078800 0.000000
-3.060400 0.000000
-3.042100 0.000000
-3.023700 0.000000
-3.005400 0.000000
-2.987000 0.000000
-2.968700 0.000000
-2.950300 0.000000
-2.932000 0.000000
-2.913600 0.000000
-2.895300 0.000000
-2.876900 0.000000
-2.858600 0.000000
-2.840200 0.000000
-2.821900 0.000000
-2.803500 0.000000
-2.785200 0.000000
-2.766800 0.000000
-2.748500 0.000000
-2.730100 0.000000
-2.711800 0.000000
-2.693400 0.000000
-2.675100 0.000000
-2.656700 0.000000
-2.638400 0.000000
-2.620100 0.000000
-2.601700 0.000000
-2.583400 0.000000
-2.565000 0.000000
-2.546700 0.000000
-2.528300 0.000000
-2.510000 0.000000
-2.491600 0.000000
-2.473300 0.000000
-2.454900 0.000000
-2.436600 0.000000
-2.418200 0.000000
-2.399900 0.000000
-2.381500 0.000000
-2.363200 0.000000
-2.344800 0.000000
-2.326500 0.000000
-2.308100 0.000000
-2.289800 0.000000
-2.271400 0.000000
-2.253100 0.000000
-2.234700 0.000000
-2.216400 0.000000
-2.198000 0.000000
-2.179700 0.000000
-2.161300 0.000000
-2.143000 0.000000
-2.124600 0.000000
-2.106300 0.000000
-2.087900 0.000000
-2.069600 0.000000
-2.051200 0.000000
-2.032900 0.000000
-2.014500 0.000000
-1.996200 0.000000
-1.977800 0.000000
-1.959500 0.000000
-1.941100 0.000000
-1.922800 0.000000
-1.904400 0.000000
-1.886100 0.000000
-1.867700 0.000000
-1.849400 0.000000
-1.831000 0.000000
-1.812700 0.000000
-1.794300 0.000000
-1.776000 0.000000
-1.757600 0.000000
-1.739300 0.000000
-1.720900 0.000000
-1.702600 0.000000
-1.684200 0.000000
-1.665900 0.000000
-1.647500 0.000000
-1.629200 0.000000
-1.610800 0.000000
-1.592500 0.000000
-1.574100 0.000000
-1.555800 0.000000
-1.537400 0.000000
-1.519100 0.000000
-1.500700 0.000000
-1.482400 0.000000
-1.464000 0.000000
-1.445700 0.000000
-1.427300 0.000000
-1.409000 0.000100
-1.390600 0.000800
-1.372300 0.006100
-1.353900 0.034900
-1.335600 0.158000
-1.317200 0.574200
-1.298900 1.691100
-1.280500 4.083200
-1.262200 8.201200
-1.243800 13.948000
-1.225500 20.541200
-1.207100 26.936400
-1.188800 32.441400
-1.170400 36.820200
-1.152100 39.829900
-1.133700 40.994800
-1.115400 40.080600
-1.097000 37.600100
-1.078700 34.627000
-1.060300 32.187200
-1.042000 30.765000
-1.023600 30.021200
-1.005300 28.849000
-0.986900 26.037500
-0.968600 21.248300
-0.950200 15.386300
-0.931900 9.905300
-0.913500 5.782700
-0.895200 3.152900
-0.876800 1.643300
-0.858500 0.817600
-0.840100 0.376200
-0.821800 0.152400
-0.803400 0.051900
-0.785100 0.014400
-0.766700 0.003200
-0.748400 0.000500
-0.730000 0.000100
-0.711700 0.000000
-0.693300 0.000000
-0.675000 0.000000
-0.656600 0.000000
-0.638300 0.000000
-0.619900 0.000000
-0.601600 0.000000
-0.583200 0.000000
-0.564900 0.000000
-0.546500 0.000000
-0.528200 0.000000
-0.509800 0.000000
-0.491500 0.000000
-0.473100 0.000000
-0.454800 0.000000
-0.436400 0.000000
-0.418100 0.000000
-0.399700 0.000000
-0.381400 0.000000
-0.363000 0.000000
-0.344700 0.000000
-0.326300 0.000000
-0.308000 0.000000
-0.289600 0.000100
-0.271300 0.000700
-0.252900 0.003500
-0.234600 0.013300
-0.216200 0.039500
-0.197900 0.092300
-0.179500 0.171500
-0.161200 0.257500
-0.142800 0.320800
-0.124500 0.347900
-0.106100 0.359900
-0.087800 0.398800
-0.069400 0.485900
-0.051100 0.597700
-0.032700 0.692600
-0.014400 0.763300
0.004000 0.859300
0.022300 1.043700
0.040700 1.312500
0.059000 1.572000
0.077400 1.716700
0.095700 1.706900
0.114100 1.564000
0.132400 1.337700
0.150800 1.101800
0.169100 0.950700
0.187500 0.969900
0.205800 1.184600
0.224200 1.533200
0.242500 1.917200
0.260900 2.280900
0.279200 2.607400
0.297600 2.837400
0.315900 2.863100
0.334300 2.633300
0.352600 2.220200
0.371000 1.765100
0.389300 1.393300
0.407700 1.171200
0.426000 1.090700
0.444400 1.083200
0.462700 1.086700
0.481100 1.110500
0.499400 1.214600
0.517800 1.430800
0.536100 1.725700
0.554500 2.019300
0.572800 2.205300
0.591200 2.198600
0.609500 2.025500
0.627900 1.831400
0.646200 1.721400
0.664600 1.631600
0.682900 1.442700
0.701300 1.181400
0.719600 1.013000
0.738000 1.042700
0.756300 1.204900
0.774700 1.358100
0.793000 1.431900
0.811400 1.441900
0.829700 1.405400
0.848100 1.305300
0.866400 1.146400
0.884800 1.010800
0.903100 1.019900
0.921500 1.213000
0.939800 1.470300
0.958200 1.596300
0.976500 1.497800
0.994900 1.247700
1.013200 0.970700
1.031600 0.724100
1.049900 0.514900
1.068300 0.372500
1.086600 0.357200
1.105000 0.507700
1.123300 0.785400
1.141700 1.065200
1.160000 1.214300
1.178400 1.207800
1.196700 1.133000
1.215100 1.065600
1.233400 0.989900
1.251800 0.863800
1.270100 0.716000
1.288500 0.640600
1.306800 0.703800
1.325200 0.868100
1.343500 1.007500
1.361900 1.010000
1.380200 0.883600
1.398600 0.757800
1.416900 0.771600
1.435300 0.954500
1.453600 1.200000
1.472000 1.349500
1.490300 1.320700
1.508700 1.152800
1.527000 0.933500
1.545400 0.728200
1.563700 0.591600
1.582100 0.583200
1.600400 0.723900
1.618800 0.962500
1.637100 1.203200
1.655500 1.361300
1.673800 1.411600
1.692200 1.407700
1.710500 1.422500
1.728900 1.448300
1.747200 1.402400
1.765600 1.259400
1.783900 1.127000
1.802300 1.161700
1.820600 1.433200
1.839000 1.859800
1.857300 2.249200
1.875700 2.429700
1.894000 2.380900
1.912400 2.232700
1.930700 2.117300
1.949100 2.036200
1.967400 1.891900
1.985800 1.640500
2.004100 1.359900
2.022500 1.152500
2.040800 1.042800
2.059200 1.017100
2.077500 1.105600
2.095900 1.352900
2.114200 1.728200
2.132600 2.117400
2.150900 2.385000
2.169300 2.429000
2.187600 2.246200
2.206000 1.976600
2.224300 1.813500
2.242700 1.841000
2.261000 1.999800
2.279400 2.197000
2.297700 2.388200
2.316100 2.563500
2.334400 2.692700
2.352800 2.706400
2.371100 2.572400
2.389500 2.404100
2.407800 2.412900
2.426200 2.689100
2.444500 3.068200
2.462900 3.278200
2.481200 3.228600
2.499600 3.101300
2.517900 3.123200
2.536300 3.312600
2.554600 3.501400
2.572900 3.540900
2.591300 3.404100
2.609600 3.132100
2.628000 2.798900
2.646300 2.546200
2.664700 2.538100
2.683000 2.787800
2.701400 3.071000
2.719700 3.103300
2.738100 2.813700
2.756400 2.391200
2.774800 2.072600
2.793100 1.947600
2.811500 1.949400
2.829800 1.964800
2.848200 1.957100
2.866500 2.001400
2.884900 2.194100
2.903200 2.552200
2.921600 3.019400
2.939900 3.503400
2.958300 3.874500
2.976600 3.998600
2.995000 3.821900
3.013300 3.415700
3.031700 2.944500
3.050000 2.571500
3.068400 2.338500
3.086700 2.157800
3.105100 1.964400
3.123400 1.833200
3.141800 1.900600
3.160100 2.207900
3.178500 2.640200
3.196800 2.995300
3.215200 3.113100
3.233500 2.956000
3.251900 2.608400
3.270200 2.241400
3.288600 2.029500
3.306900 2.021400
3.325300 2.106900
3.343600 2.140500
3.362000 2.069700
3.380300 1.924400
3.398700 1.724800
3.417000 1.465900
3.435400 1.195600
3.453700 1.037300
3.472100 1.099100
3.490400 1.374100
3.508800 1.731700
3.527100 2.001400
3.545500 2.088800
3.563800 2.031200
3.582200 1.943400
3.600500 1.905400
3.618900 1.891800
3.637200 1.817300
3.655600 1.663900
3.673900 1.538000
3.692300 1.568300
3.710600 1.766500
3.729000 2.022100
3.747300 2.219000
3.765700 2.329000
3.784000 2.397500
3.802400 2.478400
3.820700 2.591700
3.839100 2.713200
3.857400 2.787500
3.875800 2.765900
3.894100 2.628100
3.912500 2.367700
3.930800 2.008500
3.949200 1.656700
3.967500 1.467800
3.985900 1.514000
4.004200 1.709900
4.022600 1.885000
4.040900 1.922100
4.059300 1.847100
4.077600 1.803400
4.096000 1.916500
4.114300 2.153600
4.132700 2.328400
4.151000 2.282700
4.169400 2.062000
4.187700 1.881900
4.206100 1.926300
4.224400 2.214700
4.242800 2.648900
4.261100 3.121600
4.279500 3.548600
4.297800 3.847600
4.316200 3.955300
4.334500 3.866900
4.352900 3.636900
4.371200 3.346700
4.389600 3.054100
4.407900 2.757600
4.426300 2.440900
4.444600 2.155100
4.463000 2.002100
4.481300 2.008200
4.499700 2.055200
4.518000 1.992700
4.536400 1.805400
4.554700 1.618500
4.573100 1.542900
4.591400 1.563500
4.609800 1.579400
4.628100 1.505800
4.646500 1.322400
4.664800 1.077100
4.683200 0.887300
4.701500 0.906300
4.719900 1.219200
4.738200 1.749400
4.756600 2.289600
4.774900 2.650500
4.793300 2.776700
4.811600 2.732400
4.830000 2.617500
4.848300 2.511500
4.866700 2.448500
4.885000 2.413000
4.903400 2.382100
4.921700 2.377800
4.940100 2.440700
4.958400 2.540000
4.976800 2.557800
4.995100 2.406000
5.013500 2.135200
5.031800 1.885100
5.050200 1.758200
5.068500 1.792700
5.086900 2.008800
5.105200 2.364200
5.123600 2.665300
5.141900 2.663600
5.160300 2.309300
5.178600 1.833100
5.197000 1.533900
5.215300 1.536600
5.233700 1.754900
5.252000 2.015300
5.270400 2.187200
5.288700 2.241000
5.307100 2.227200
5.325400 2.207700
5.343800 2.209200
5.362100 2.234900
5.380500 2.296100
5.398800 2.396300
5.417200 2.471900
5.435500 2.400100
5.453900 2.124400
5.472200 1.754500
5.490600 1.483100
5.508900 1.407100
5.527300 1.460500
5.545600 1.510000
5.564000 1.494600
5.582300 1.473900
5.600700 1.545500
5.619000 1.727400
5.637400 1.921400
5.655700 1.981400
5.674100 1.831500
5.692400 1.544200
5.710800 1.290900
5.729100 1.199800
5.747500 1.286000
5.765800 1.513400
5.784200 1.860700
5.802500 2.293100
5.820900 2.723800
5.839200 3.056600
5.857600 3.240800
5.875900 3.253900
5.894300 3.071700
5.912600 2.715200
5.931000 2.307700
5.949300 2.021500
5.967700 1.958100
5.986000 2.116000
6.004400 2.441500
6.022700 2.833900
6.041100 3.129200
6.059400 3.182900
6.077800 2.997000
6.096100 2.726200
6.114500 2.554500
6.132800 2.576800
6.151200 2.767200
6.169500 3.023400
6.187900 3.233200
6.206200 3.315300
6.224600 3.226700
6.242900 2.971200
6.261300 2.601900
6.279600 2.190700
6.298000 1.802100
6.316300 1.503600
6.334700 1.374000
6.353000 1.460400
6.371400 1.717000
6.389700 2.002600
6.408100 2.168200
6.426400 2.175200
6.444800 2.136700
6.463100 2.229200
6.481500 2.531100
6.499800 2.922500
6.518200 3.157200
6.536500 3.081000
6.554900 2.798100
6.573200 2.578900
6.591600 2.591400
6.609900 2.769400
6.628300 2.949700
6.646600 3.065500
6.665000 3.165200
6.683300 3.289100
6.701700 3.395100
6.720000 3.417100
6.738400 3.346400
6.756700 3.228900
6.775100 3.128700
6.793400 3.104800
6.811800 3.172100
6.830100 3.265600
6.848500 3.270800
6.866800 3.122800
6.885200 2.885700
6.903500 2.721000
6.921900 2.753700
6.940200 2.962300
6.958600 3.198100
6.976900 3.304000
6.995300 3.220900
7.013600 3.016200
7.032000 2.817500
7.050300 2.716700
7.068700 2.753500
7.087000 2.956300
7.105400 3.311200
7.123700 3.696300
7.142100 3.936500
7.160400 3.956100
7.178800 3.830000
7.197100 3.672200
7.215500 3.525400
7.233800 3.372300
7.252200 3.190900
7.270500 2.973500
7.288900 2.742100
7.307200 2.553500
7.325600 2.439200
7.343900 2.349600
7.362300 2.230600
7.380600 2.143700
7.399000 2.225100
7.417300 2.532900
7.435700 3.000200
7.454000 3.508000
7.472400 3.942000
7.490700 4.225900
7.509100 4.367000
7.527400 4.447700
7.545800 4.533500
7.564100 4.589700
7.582500 4.496800
7.600800 4.174700
7.619200 3.727900
7.637500 3.424900
7.655900 3.451000
7.674200 3.693100
7.692600 3.836600
7.710900 3.685300
7.729200 3.349700
7.747600 3.106800
7.765900 3.110400
7.784300 3.273800
7.802600 3.430000
7.821000 3.551800
7.839300 3.750400
7.857700 4.063500
7.876000 4.329100
7.894400 4.329300
7.912700 4.022000
7.931100 3.557500
7.949400 3.094000
7.967800 2.697700
7.986100 2.397300
8.004500 2.210300
8.022800 2.115000
8.041200 2.077400
8.059500 2.101900
8.077900 2.210100
8.096200 2.387100
8.114600 2.572900
8.132900 2.700800
8.151300 2.743000
8.169600 2.734400
8.188000 2.763200
8.206300 2.920600
8.224700 3.198100
8.243000 3.418000
8.261400 3.339000
8.279700 2.876800
8.298100 2.199800
8.316400 1.607800
8.334800 1.335500
8.353100 1.435900
8.371500 1.789400
8.389800 2.197800
8.408200 2.482900
8.426500 2.543500
8.444900 2.387900
8.463200 2.143800
8.481600 2.009600
8.499900 2.136600
8.518300 2.491500
8.536600 2.827100
8.555000 2.853100
8.573300 2.485900
8.591700 1.927100
8.610000 1.488400
8.628400 1.341900
8.646700 1.409500
8.665100 1.460600
8.683400 1.327600
8.701800 1.053300
8.720100 0.843400
8.738500 0.888600
8.756800 1.218900
8.775200 1.675200
8.793500 1.997200
8.811900 1.989000
8.830200 1.655000
8.848600 1.181000
8.866900 0.778400
8.885300 0.557700
8.903600 0.531100
8.922000 0.674100
8.940300 0.932800
8.958700 1.191300
8.977000 1.304900
8.995400 1.210700
9.013700 0.976800
9.032100 0.721400
9.050400 0.521100
9.068800 0.405300
9.087100 0.375900
9.105500 0.397800
9.123800 0.414400
9.142200 0.405700
9.160500 0.410200
9.178900 0.468900
9.197200 0.571900
9.215600 0.681600
9.233900 0.787600
9.252300 0.898400
9.270600 0.985800
9.289000 0.991500
9.307300 0.903800
9.325700 0.776300
9.344000 0.650900
9.362400 0.516200
9.380700 0.359200
9.399100 0.210300
9.417400 0.114200
9.435800 0.091600
9.454100 0.143200
9.472500 0.266200
9.490800 0.448100
9.509200 0.648800
9.527500 0.810200
9.545900 0.897700
9.564200 0.926800
9.582600 0.936900
9.600900 0.943900
9.619300 0.936000
9.637600 0.917600
9.656000 0.935200
9.674300 1.041800
9.692700 1.240400
9.711000 1.477000
9.729400 1.683900
9.747700 1.819200
9.766100 1.879700
9.784400 1.904500
9.802800 1.937000
9.821100 1.956300
9.839500 1.879100
9.857800 1.671300
9.876200 1.447700
9.894500 1.421700
9.912900 1.717000
9.931200 2.222200
9.949600 2.667100
9.967900 2.856400
9.986300 2.792500
10.004600 2.590600
10.023000 2.356400
10.041300 2.161500
10.059700 2.078000
10.078000 2.181300
10.096400 2.471600
10.114700 2.794900
10.133100 2.924800
10.151400 2.770700
10.169800 2.450500
10.188100 2.150700
10.206500 1.978300
10.224800 1.956200
10.243200 2.085800
10.261500 2.357600
10.279900 2.697100
10.298200 2.936800
10.316600 2.897600
10.334900 2.535800
10.353300 1.996000
10.371600 1.505100
10.390000 1.216600
10.408300 1.144500
10.426700 1.218000
10.445000 1.368900
10.463400 1.555100
10.481700 1.742400
10.500100 1.916700
10.518400 2.113400
10.536800 2.400000
10.555100 2.793000
10.573500 3.175100
10.591800 3.341200
10.610200 3.189600
10.628500 2.841300
10.646900 2.512200
10.665200 2.304600
10.683600 2.166800
10.701900 2.009000
10.720300 1.825600
10.738600 1.735000
10.757000 1.898400
10.775300 2.359400
10.793700 2.959100
10.812000 3.417400
10.830400 3.513000
10.848700 3.230500
10.867100 2.757200
10.885400 2.327800
10.903800 2.077700
10.922100 2.038300
10.940500 2.185800
10.958800 2.430100
10.977200 2.623900
10.995500 2.679600
11.013900 2.658700
11.032200 2.669700
11.050600 2.701100
11.068900 2.656300
11.087300 2.544100
11.105600 2.544700
11.124000 2.857700
11.142300 3.500500
11.160700 4.242300
11.179000 4.736300
11.197400 4.748400
11.215700 4.297900
11.234100 3.609700
11.252400 2.940100
11.270800 2.423600
11.289100 2.063200
11.307500 1.848500
11.325800 1.843100
11.344200 2.116600
11.362500 2.590300
11.380900 3.011700
11.399200 3.155800
11.417600 3.046100
11.435900 2.912500
11.454300 2.938800
11.472600 3.131500
11.491000 3.415600
11.509300 3.722900
11.527700 3.946100
11.546000 3.944700
11.564400 3.705300
11.582700 3.422300
11.601100 3.317000
11.619400 3.387300
11.637800 3.417000
11.656100 3.240700
11.674500 2.929500
11.692800 2.680100
11.711200 2.597600
11.729500 2.635200
11.747900 2.678800
11.766200 2.635200
11.784600 2.483900
11.802900 2.277500
11.821300 2.074500
11.839600 1.889900
11.858000 1.731100
11.876300 1.635000
11.894700 1.632300
11.913000 1.695400
11.931400 1.741700
11.949700 1.693900
11.968100 1.543800
11.986400 1.350500
12.004800 1.173400
12.023100 1.024900
12.041500 0.899900
12.059800 0.831500
12.078200 0.889000
12.096500 1.113400
12.114900 1.456200
12.133200 1.799100
12.151600 2.043700
12.169900 2.165200
12.188300 2.179800
12.206600 2.116100
12.225000 2.032500
12.243300 1.999700
12.261700 2.033600
12.280000 2.092300
12.298400 2.146400
12.316700 2.201100
12.335100 2.255200
12.353400 2.281300
12.371800 2.240000
12.390100 2.100900
12.408500 1.879200
12.426800 1.651200
12.445200 1.510100
12.463500 1.507700
12.481900 1.642200
12.500200 1.873900
12.518600 2.134500
12.536900 2.348400
12.555300 2.479300
12.573600 2.543100
12.592000 2.543700
12.610300 2.422100
12.628700 2.126100
12.647000 1.723900
12.665400 1.402200
12.683700 1.340500
12.702100 1.590100
12.720400 2.058900
12.738800 2.588300
12.757100 3.041200
12.775500 3.334800
12.793800 3.432000
12.812200 3.336400
12.830500 3.101300
12.848900 2.824400
12.867200 2.610400
12.885600 2.527400
12.903900 2.595900
12.922200 2.793500
12.940600 3.040100
12.958900 3.186500
12.977300 3.083900
12.995600 2.716500
13.014000 2.232500
13.032300 1.802700
13.050700 1.487400
13.069000 1.270500
13.087400 1.159000
13.105700 1.179300
13.124100 1.299900
13.142400 1.422800
13.160800 1.472100
13.179100 1.478700
13.197500 1.576900
13.215800 1.897400
13.234200 2.429000
13.252500 2.986300
13.270900 3.337200
13.289200 3.384400
13.307600 3.239600
13.325900 3.116900
13.344300 3.137800
13.362600 3.245400
13.381000 3.308200
13.399300 3.270400
13.417700 3.181500
13.436000 3.135800
13.454400 3.229400
13.472700 3.506800
13.491100 3.867100
13.509400 4.073800
13.527800 3.960200
13.546100 3.617100
13.564500 3.283900
13.582800 3.062200
13.601200 2.844600
13.619500 2.548300
13.637900 2.278700
13.656200 2.173200
13.674600 2.191400
13.692900 2.186700
13.711300 2.124200
13.729600 2.114100
13.748000 2.253400
13.766300 2.519200
13.784700 2.824600
13.803000 3.122600
13.821400 3.416800
13.839700 3.703600
13.858100 3.955900
13.876400 4.158300
13.894800 4.301000
13.913100 4.338500
13.931500 4.215100
13.949800 3.951000
13.968200 3.660300
13.986500 3.456800
14.004900 3.364000
14.023200 3.324900
14.041600 3.279500
14.059900 3.221400
14.078300 3.191700
14.096600 3.219600
14.115000 3.266400
14.133300 3.239700
14.151700 3.063700
14.170000 2.741700
14.188400 2.367000
14.206700 2.068100
14.225100 1.927300
14.243400 1.948800
14.261800 2.086900
14.280100 2.275400
14.298500 2.438500
14.316800 2.528000
14.335200 2.580500
14.353500 2.717300
14.371900 3.066200
14.390200 3.657600
14.408600 4.368500
14.426900 4.968000
14.445300 5.252800
14.463600 5.170800
14.482000 4.827700
14.500300 4.392100
14.518700 4.007800
14.537000 3.768000
14.555400 3.704400
14.573700 3.771500
14.592100 3.873400
14.610400 3.938700
14.628800 3.970300
14.647100 4.027600
14.665500 4.166000
14.683800 4.348500
14.702200 4.414500
14.720500 4.229500
14.738900 3.893000
14.757200 3.684600
14.775600 3.762100
14.793900 4.006000
14.812300 4.198100
14.830600 4.234100
14.849000 4.105200
14.867300 3.809900
14.885700 3.388800
14.904000 2.965800
14.922400 2.685900
14.940700 2.645400
14.959100 2.875500
14.977400 3.323300
14.995800 3.824900
15.014100 4.162800
15.032500 4.231300
15.050800 4.145100
15.069200 4.116800
15.087500 4.211200
15.105900 4.273800
15.124200 4.116000
15.142600 3.723800
15.160900 3.264300
15.179300 2.944800
15.197600 2.897100
15.216000 3.114000
15.234300 3.436400
15.252700 3.666100
15.271000 3.753100
15.289400 3.812800
15.307700 3.927500
15.326100 4.039000
15.344400 4.089500
15.362800 4.127800
15.381100 4.179600
15.399500 4.133100
15.417800 3.887000
15.436200 3.573100
15.454500 3.498400
15.472900 3.801200
15.491200 4.241400
15.509600 4.441500
15.527900 4.304200
15.546300 4.077800
15.564600 4.024300
15.583000 4.151200
15.601300 4.290400
15.619700 4.327300
15.638000 4.271300
15.656400 4.144000
15.674700 3.906600
15.693100 3.540300
15.711400 3.135600
15.729800 2.829100
15.748100 2.674600
15.766500 2.631700
15.784800 2.672700
15.803200 2.822200
15.821500 3.071700
15.839900 3.327600
15.858200 3.489700
15.876600 3.534900
15.894900 3.506300
15.913300 3.462200
15.931600 3.439600
15.950000 3.434000
15.968300 3.404700
15.986700 3.308500
16.005000 3.131000
16.023400 2.890500
16.041700 2.629600
16.060100 2.423300
16.078400 2.360800
16.096800 2.479600
16.115100 2.731000
16.133500 3.017500
16.151800 3.240500
16.170200 3.328100
16.188500 3.269800
16.206900 3.131300
16.225200 3.002000
16.243600 2.913900
16.261900 2.836300
16.280300 2.758400
16.298600 2.746300
16.317000 2.892900
16.335300 3.228400
16.353700 3.690600
16.372000 4.151300
16.390400 4.467300
16.408700 4.557800
16.427100 4.460300
16.445400 4.262500
16.463800 3.973800
16.482100 3.536100
16.500500 2.971800
16.518800 2.433100
16.537200 2.084200
16.555500 1.997000
16.573900 2.155500
16.592200 2.486100
16.610600 2.867300
16.628900 3.164200
16.647300 3.295100
16.665600 3.270300
16.684000 3.185400
16.702300 3.180900
16.720700 3.361500
16.739000 3.694800
16.757400 3.978300
16.775700 3.971100
16.794100 3.624500
16.812400 3.166100
16.830800 2.916800
16.849100 3.044400
16.867500 3.475400
16.885800 3.968400
16.904200 4.271000
16.922500 4.270500
16.940900 4.017100
16.959200 3.627400
16.977600 3.205200
16.995900 2.843600
17.014300 2.664000
17.032600 2.826900
17.051000 3.435300
17.069300 4.348300
17.087700 5.126200
17.106000 5.301900
17.124400 4.792800
17.142700 4.004900
17.161100 3.483400
17.179400 3.482100
17.197800 3.860400
17.216100 4.303600
17.234500 4.571300
17.252800 4.593100
17.271200 4.429100
17.289500 4.164200
17.307900 3.823100
17.326200 3.389800
17.344600 2.907200
17.362900 2.516100
17.381300 2.360900
17.399600 2.474700
17.418000 2.788900
17.436300 3.238400
17.454700 3.790100
17.473000 4.358200
17.491400 4.770800
17.509700 4.870400
17.528100 4.624700
17.546400 4.156500
17.564800 3.712100
17.583100 3.550300
17.601500 3.765500
17.619800 4.202800
17.638200 4.573000
17.656500 4.645300
17.674900 4.361800
17.693200 3.826600
17.711600 3.214700
17.729900 2.698100
17.748300 2.430700
17.766600 2.504100
17.785000 2.856200
17.803300 3.279200
17.821700 3.574600
17.840000 3.698100
17.858400 3.747000
17.876700 3.845300
17.895100 4.047200
17.913400 4.292800
17.931800 4.436900
17.950100 4.371600
17.968500 4.123100
17.986800 3.802800
18.005200 3.530300
18.023500 3.428300
18.041900 3.586000
18.060200 3.966600
18.078600 4.406300
18.096900 4.740200
18.115200 4.905700
18.133600 4.933000
18.151900 4.885400
18.170300 4.813800
18.188600 4.717500
18.207000 4.546200
18.225300 4.298700
18.243700 4.110600
18.262000 4.159700
18.280400 4.464100
18.298700 4.830400
18.317100 5.027200
18.335400 4.989100
18.353800 4.858700
18.372100 4.863000
18.390500 5.136900
18.408800 5.596000
18.427200 5.961800
18.445500 5.976700
18.463900 5.641900
18.482200 5.195600
18.500600 4.851600
18.518900 4.650100
18.537300 4.563600
18.555600 4.618100
18.574000 4.855600
18.592300 5.231400
18.610700 5.589300
18.629000 5.755600
18.647400 5.666600
18.665700 5.421700
18.684100 5.227100
18.702400 5.262300
18.720800 5.554600
18.739100 5.957600
18.757500 6.247800
18.775800 6.254500
18.794200 5.944600
18.812500 5.446900
18.830900 4.992700
18.849200 4.752200
18.867600 4.688500
18.885900 4.622100
18.904300 4.458400
18.922600 4.287700
18.941000 4.240000
18.959300 4.308200
18.977700 4.364200
18.996000 4.328000
19.014400 4.257100
19.032700 4.228500
19.051100 4.200600
19.069400 4.084800
19.087800 3.891700
19.106100 3.703800
19.124500 3.554800
19.142800 3.425400
19.161200 3.325800
19.179500 3.307200
19.197900 3.419900
19.216200 3.698200
19.234600 4.140600
19.252900 4.651800
19.271300 5.052200
19.289600 5.222700
19.308000 5.225900
19.326300 5.213000
19.344700 5.221300
19.363000 5.156500
19.381400 4.966800
19.399700 4.717400
19.418100 4.496500
19.436400 4.357800
19.454800 4.334900
19.473100 4.419500
19.491500 4.542700
19.509800 4.633300
19.528200 4.670300
19.546500 4.652900
19.564900 4.566100
19.583200 4.412300
19.601600 4.228000
19.619900 4.039000
19.638300 3.850900
19.656600 3.716200
19.675000 3.756700
19.693300 4.061500
19.711700 4.541000
19.730000 4.926000
19.748400 4.994300
19.766700 4.785500
19.785100 4.514700
19.803400 4.309400
19.821800 4.133100
19.840100 3.950400
19.858500 3.864100
19.876800 4.038300
19.895200 4.500000
19.913500 5.047700
19.931900 5.379800
19.950200 5.321600
19.968600 4.930300
19.986900 4.405900
20.005300 3.942100
20.023600 3.669400
20.042000 3.679200
20.060300 4.006700
20.078700 4.549000
20.097000 5.067400
20.115400 5.362100
20.133700 5.451600
20.152100 5.522400
20.170400 5.697700
20.188800 5.909100
20.207100 6.006100
20.225500 5.927700
20.243800 5.745900
20.262200 5.606600
20.280500 5.650900
20.298900 5.900600
20.317200 6.168500
20.335600 6.149300
20.353900 5.682200
20.372300 4.933500
20.390600 4.270400
20.409000 3.926400
20.427300 3.846900
20.445700 3.881300
20.464000 4.002700
20.482400 4.251200
20.500700 4.556300
20.519100 4.747600
20.537400 4.743400
20.555800 4.631700
20.574100 4.532000
20.592500 4.453500
20.610800 4.335000
20.629200 4.166900
20.647500 4.039800
20.665900 4.094700
20.684200 4.411200
20.702600 4.896300
20.720900 5.310600
20.739300 5.465800
20.757600 5.372900
20.776000 5.143800
20.794300 4.817900
20.812700 4.379800
20.831000 3.898600
20.849400 3.534500
20.867700 3.412300
20.886100 3.551700
20.904400 3.888800
20.922800 4.297600
20.941100 4.617800
20.959500 4.722000
20.977800 4.582900
20.996200 4.274600
21.014500 3.901900
21.032900 3.544500
21.051200 3.277300
21.069600 3.177900
21.087900 3.263600
21.106300 3.465100
21.124600 3.723500
21.143000 4.091900
21.161300 4.657600
21.179700 5.327100
21.198000 5.783500
21.216400 5.760400
21.234700 5.320400
21.253100 4.789100
21.271400 4.450000
21.289800 4.349900
21.308100 4.361700
21.326500 4.398500
21.344800 4.556400
21.363200 5.015000
21.381500 5.793500
21.399900 6.650400
21.418200 7.248800
21.436600 7.409900
21.454900 7.203100
21.473300 6.822900
21.491600 6.415600
21.510000 6.025500
21.528300 5.670700
21.546700 5.420200
21.565000 5.353700
21.583400 5.464900
21.601700 5.667800
21.620100 5.876700
21.638400 6.015400
21.656800 6.011900
21.675100 5.892300
21.693500 5.835900
21.711800 6.000900
21.730200 6.293600
21.748500 6.416500
21.766900 6.163000
21.785200 5.613300
21.803600 5.054400
21.821900 4.734600
21.840300 4.665900
21.858600 4.645900
21.877000 4.481000
21.895300 4.186500
21.913700 3.973700
21.932000 4.038900
21.950400 4.347600
21.968700 4.657700
21.987100 4.795500
22.005400 4.851000
22.023800 5.032900
22.042100 5.383000
22.060500 5.711600
22.078800 5.803000
22.097200 5.629300
22.115500 5.343600
22.133900 5.096800
22.152200 4.906200
22.170600 4.715300
22.188900 4.534300
22.207300 4.478900
22.225600 4.677900
22.244000 5.143400
22.262300 5.681800
22.280700 5.948600
22.299000 5.685100
22.317400 4.954200
22.335700 4.133300
22.354100 3.661500
22.372400 3.739800
22.390800 4.218800
22.409100 4.775000
22.427500 5.184300
22.445800 5.396700
22.464200 5.433100
22.482500 5.364800
22.500900 5.353000
22.519200 5.524600
22.537600 5.786900
22.555900 5.916600
22.574300 5.851400
22.592600 5.744900
22.611000 5.699300
22.629300 5.620200
22.647700 5.401600
22.666000 5.094700
22.684400 4.811700
22.702700 4.586700
22.721100 4.409400
22.739400 4.318500
22.757800 4.383600
22.776100 4.602300
22.794500 4.863500
22.812800 5.053200
22.831200 5.193200
22.849500 5.423000
22.867900 5.834300
22.886200 6.369000
22.904600 6.854900
22.922900 7.073200
22.941300 6.844500
22.959600 6.171200
22.978000 5.319600
22.996300 4.691300
23.014700 4.541800
23.033000 4.790800
23.051400 5.113900
23.069700 5.253700
23.088100 5.230300
23.106400 5.225600
23.124800 5.317200
23.143100 5.413600
23.161500 5.420800
23.179800 5.376600
23.198200 5.384600
23.216500 5.475300
23.234900 5.608500
23.253200 5.814300
23.271600 6.220400
23.289900 6.849900
23.308200 7.454700
23.326600 7.673000
23.344900 7.340700
23.363300 6.571100
23.381600 5.604600
23.400000 4.709100
23.418300 4.151300
23.436700 4.089300
23.455000 4.463700
23.473400 5.056100
23.491700 5.646800
23.510100 6.095100
23.528400 6.327800
23.546800 6.326800
23.565100 6.145000
23.583500 5.897600
23.601800 5.702300
23.620200 5.611400
23.638500 5.594400
23.656900 5.599300
23.675200 5.636100
23.693600 5.753100
23.711900 5.909900
23.730300 5.953900
23.748600 5.784900
23.767000 5.499500
23.785300 5.319100
23.803700 5.383000
23.822000 5.637200
23.840400 5.891500
23.858700 5.943700
23.877100 5.702500
23.895400 5.276400
23.913800 4.918500
23.932100 4.811500
23.950500 4.907300
23.968800 5.028000
23.987200 5.098500
24.005500 5.183000
24.023900 5.306200
24.042200 5.379800
24.060600 5.333500
24.078900 5.203400
24.097300 5.069100
24.115600 4.974100
24.134000 4.887400
24.152300 4.706300
24.170700 4.346100
24.189000 3.864300
24.207400 3.465600
24.225700 3.349900
24.244100 3.557300
24.262400 3.953000
24.280800 4.335600
24.299100 4.548900
24.317500 4.518000
24.335800 4.249800
24.354200 3.853100
24.372500 3.516700
24.390900 3.398600
24.409200 3.537500
24.427600 3.866100
24.445900 4.238900
24.464300 4.454100
24.482600 4.374300
24.501000 4.083400
24.519300 3.829500
24.537700 3.748000
24.556000 3.724900
24.574400 3.598100
24.592700 3.410600
24.611100 3.386600
24.629400 3.705000
24.647800 4.347700
24.666100 5.117300
24.684500 5.746800
24.702800 6.034000
24.721200 5.959100
24.739500 5.679900
24.757900 5.365000
24.776200 5.049900
24.794600 4.678300
24.812900 4.215200
24.831300 3.676700
24.849600 3.120100
24.868000 2.647000
24.886300 2.369800
24.904700 2.330700
24.923000 2.452300
24.941400 2.574300
24.959700 2.572700
24.978100 2.468400
24.996400 2.394200
25.014800 2.429300
25.033100 2.493200
25.051500 2.432500
25.069800 2.192700
25.088200 1.870900
25.106500 1.621400
25.124900 1.544200
25.143200 1.629600
25.161600 1.769900
25.179900 1.845600
25.198300 1.814300
25.216600 1.698200
25.235000 1.523300
25.253300 1.318400
25.271700 1.127300
25.290000 0.965800
25.308400 0.805400
25.326700 0.641800
25.345100 0.528600
25.363400 0.509600
25.381800 0.559100
25.400100 0.611600
25.418500 0.620400
25.436800 0.573200
25.455200 0.480200
25.473500 0.361600
25.491900 0.240400
25.510200 0.138300
25.528600 0.072300
25.546900 0.050800
25.565300 0.073800
25.583600 0.131800
25.602000 0.200200
25.620300 0.243400
25.638700 0.236500
25.657000 0.184700
25.675400 0.116400
25.693700 0.059100
25.712100 0.024000
25.730400 0.007800
25.748800 0.002000
25.767100 0.000400
25.785500 0.000100
25.803800 0.000100
25.822200 0.000300
25.840500 0.001500
25.858900 0.005600
25.877200 0.016300
25.895600 0.036900
25.913900 0.064000
25.932300 0.085300
25.950600 0.087300
25.969000 0.068700
25.987300 0.041600
26.005700 0.019300
26.024000 0.006900
26.042400 0.001900
26.060700 0.000400
26.079100 0.000100
26.097400 0.000000
26.115800 0.000000
26.134100 0.000000
26.152500 0.000000
26.170800 0.000000
26.189200 0.000000
26.207500 0.000000
26.225900 0.000000
26.244200 0.000000
26.262600 0.000000
26.280900 0.000000
26.299300 0.000000
26.317600 0.000000
26.336000 0.000000
26.354300 0.000000
26.372700 0.000000
26.391000 0.000000
26.409400 0.000000
26.427700 0.000000
26.446100 0.000000
26.464400 0.000000
26.482800 0.000000
26.501100 0.000000
26.519500 0.000000
26.537800 0.000000
26.556200 0.000000
26.574500 0.000000
26.592900 0.000000
26.611200 0.000000
26.629600 0.000000
26.647900 0.000000
26.666300 0.000000
26.684600 0.000000
26.703000 0.000000
26.721300 0.000000
26.739700 0.000000
26.758000 0.000000
26.776400 0.000000
26.794700 0.000000
26.813100 0.000000
26.831400 0.000000
26.849800 0.000000
26.868100 0.000000
26.886500 0.000000
26.904800 0.000000
26.923200 0.000000
26.941500 0.000000
26.959900 0.000000
26.978200 0.000000
26.996600 0.000000
27.014900 0.000000
27.033300 0.000000
27.051600 0.000000
27.070000 0.000000
27.088300 0.000000
27.106700 0.000000
27.125000 0.000000
27.143400 0.000000
27.161700 0.000000
27.180100 0.000000
27.198400 0.000000
27.216800 0.000000
27.235100 0.000000
27.253500 0.000000
27.271800 0.000000
27.290200 0.000000
27.308500 0.000000
27.326900 0.000000
27.345200 0.000000
27.363600 0.000000
27.381900 0.000000
27.400300 0.000000
27.418600 0.000000
27.437000 0.000000
27.455300 0.000000
27.473700 0.000000
27.492000 0.000000
27.510400 0.000000
27.528700 0.000000
27.547100 0.000000
27.565400 0.000000
27.583800 0.000000
27.602100 0.000000
e
