set title 'mp-2715 - Density of States'
set xlabel 'Energy (eV)'
set ylabel 'DOS (states/eV)'
set grid
set xrange [-10:10]
set yrange [0:34.749]
set xzeroaxis lt -1
set terminal png size 800,600
set output 'mp-2715_dos_gnuplot.png'
plot '-' using 1:2 with lines title 'DOS'
-9.598800 0.000000
-9.582200 0.000000
-9.565700 0.000000
-9.549100 0.000000
-9.532500 0.000000
-9.515900 0.000000
-9.499300 0.000000
-9.482700 0.000000
-9.466100 0.000000
-9.449500 0.000000
-9.433000 0.000000
-9.416400 0.000000
-9.399800 0.000000
-9.383200 0.000000
-9.366600 0.000000
-9.350000 0.000000
-9.333400 0.000000
-9.316800 0.000000
-9.300300 0.000000
-9.283700 0.000000
-9.267100 0.000000
-9.250500 0.000000
-9.233900 0.000000
-9.217300 0.000000
-9.200700 0.000000
-9.184100 0.000000
-9.167600 0.000000
-9.151000 0.000000
-9.134400 0.000000
-9.117800 0.000000
-9.101200 0.000000
-9.084600 0.000000
-9.068000 0.000000
-9.051400 0.000000
-9.034900 0.000000
-9.018300 0.000000
-9.001700 0.000000
-8.985100 0.000000
-8.968500 0.000000
-8.951900 0.000000
-8.935300 0.000000
-8.918700 0.000000
-8.902200 0.000000
-8.885600 0.000000
-8.869000 0.000000
-8.852400 0.000000
-8.835800 0.000000
-8.819200 0.000000
-8.802600 0.000000
-8.786000 0.000000
-8.769500 0.000000
-8.752900 0.000000
-8.736300 0.000000
-8.719700 0.000000
-8.703100 0.000000
-8.686500 0.000000
-8.669900 0.000000
-8.653300 0.000000
-8.636800 0.000000
-8.620200 0.000000
-8.603600 0.000000
-8.587000 0.000000
-8.570400 0.000000
-8.553800 0.000000
-8.537200 0.000000
-8.520600 0.000000
-8.504100 0.000000
-8.487500 0.000000
-8.470900 0.000000
-8.454300 0.000000
-8.437700 0.000000
-8.421100 0.000000
-8.404500 0.000000
-8.387900 0.000000
-8.371400 0.000000
-8.354800 0.000000
-8.338200 0.000000
-8.321600 0.000000
-8.305000 0.000000
-8.288400 0.000000
-8.271800 0.000000
-8.255200 0.000000
-8.238700 0.000000
-8.222100 0.000000
-8.205500 0.000000
-8.188900 0.000000
-8.172300 0.000000
-8.155700 0.000000
-8.139100 0.000000
-8.122500 0.000000
-8.106000 0.000000
-8.089400 0.257900
-8.072800 0.270700
-8.056200 0.285000
-8.039600 0.340900
-8.023000 0.399300
-8.006400 0.460100
-7.989800 0.523200
-7.973300 0.584500
-7.956700 0.606100
-7.940100 0.628700
-7.923500 0.652800
-7.906900 0.682700
-7.890300 0.712000
-7.873700 0.727500
-7.857100 0.753500
-7.840600 0.780600
-7.824000 0.809500
-7.807400 0.840400
-7.790800 0.872400
-7.774200 0.905100
-7.757600 0.939400
-7.741000 0.974600
-7.724400 0.989800
-7.707900 1.006800
-7.691300 1.027800
-7.674700 1.048300
-7.658100 1.068000
-7.641500 1.085400
-7.624900 1.101600
-7.608300 1.118800
-7.591700 1.137300
-7.575200 1.156600
-7.558600 1.177300
-7.542000 1.198500
-7.525400 1.220400
-7.508800 1.242900
-7.492200 1.265900
-7.475600 1.289400
-7.459000 1.313200
-7.442500 1.337200
-7.425900 1.361300
-7.409300 1.385000
-7.392700 1.407000
-7.376100 1.630400
-7.359500 1.587100
-7.342900 1.601400
-7.326300 1.619100
-7.309800 1.640500
-7.293200 1.661300
-7.276600 1.679200
-7.260000 1.691100
-7.243400 1.706500
-7.226800 1.731800
-7.210200 1.762400
-7.193600 1.782800
-7.177100 1.817700
-7.160500 1.854000
-7.143900 1.842300
-7.127300 1.826900
-7.110700 1.822400
-7.094100 1.812900
-7.077500 1.798700
-7.060900 1.778600
-7.044300 1.745800
-7.027800 1.722500
-7.011200 1.701500
-6.994600 1.677600
-6.978000 1.651500
-6.961400 1.677600
-6.944800 2.100700
-6.928200 2.200500
-6.911600 2.080100
-6.895100 1.947300
-6.878500 1.913000
-6.861900 1.884900
-6.845300 1.908200
-6.828700 1.865300
-6.812100 1.844600
-6.795500 1.862600
-6.778900 1.908000
-6.762400 1.943500
-6.745800 1.970800
-6.729200 2.009100
-6.712600 2.050800
-6.696000 2.095500
-6.679400 2.138600
-6.662800 2.182100
-6.646200 2.219500
-6.629700 2.251800
-6.613100 2.296900
-6.596500 2.350700
-6.579900 2.411000
-6.563300 2.513300
-6.546700 2.572900
-6.530100 2.601100
-6.513500 2.610800
-6.497000 2.628500
-6.480400 2.703900
-6.463800 2.825200
-6.447200 3.008600
-6.430600 3.172300
-6.414000 3.339500
-6.397400 3.631400
-6.380800 3.881900
-6.364300 4.621900
-6.347700 3.710100
-6.331100 3.515400
-6.314500 3.455600
-6.297900 3.421000
-6.281300 3.447400
-6.264700 3.426300
-6.248100 3.481900
-6.231600 3.688200
-6.215000 3.460000
-6.198400 3.249500
-6.181800 3.164900
-6.165200 2.801400
-6.148600 2.423800
-6.132000 2.106900
-6.115400 1.967300
-6.098900 1.984800
-6.082300 1.997900
-6.065700 2.017900
-6.049100 2.029800
-6.032500 2.059300
-6.015900 2.092100
-5.999300 2.345300
-5.982700 2.538900
-5.966200 2.547500
-5.949600 2.528600
-5.933000 2.596600
-5.916400 2.689600
-5.899800 2.801100
-5.883200 2.854000
-5.866600 2.907900
-5.850000 3.018700
-5.833500 3.139100
-5.816900 3.199200
-5.800300 3.315200
-5.783700 3.703100
-5.767100 3.681200
-5.750500 3.592900
-5.733900 3.413800
-5.717300 3.346700
-5.700800 3.321600
-5.684200 3.313800
-5.667600 3.318000
-5.651000 3.321300
-5.634400 3.324400
-5.617800 3.322200
-5.601200 3.322200
-5.584600 3.334000
-5.568100 3.355300
-5.551500 3.388900
-5.534900 3.433100
-5.518300 3.501300
-5.501700 3.545100
-5.485100 3.541600
-5.468500 3.568700
-5.451900 3.636100
-5.435400 4.068600
-5.418800 3.936600
-5.402200 4.490200
-5.385600 3.524700
-5.369000 3.418300
-5.352400 3.409900
-5.335800 3.868900
-5.319200 3.408800
-5.302700 3.473300
-5.286100 3.516600
-5.269500 3.653500
-5.252900 3.749800
-5.236300 3.958200
-5.219700 4.157100
-5.203100 4.378500
-5.186500 4.722300
-5.170000 4.991900
-5.153400 5.085300
-5.136800 5.413600
-5.120200 5.733400
-5.103600 5.966600
-5.087000 6.163000
-5.070400 6.371700
-5.053800 6.453900
-5.037300 6.506700
-5.020700 6.803100
-5.004100 6.935300
-4.987500 5.853600
-4.970900 4.622700
-4.954300 3.603900
-4.937700 2.872100
-4.921100 2.713500
-4.904600 2.535600
-4.888000 2.386600
-4.871400 2.255000
-4.854800 2.152800
-4.838200 2.098000
-4.821600 2.108800
-4.805000 2.137100
-4.788400 2.054800
-4.771900 1.507300
-4.755300 1.561900
-4.738700 1.607300
-4.722100 1.645100
-4.705500 1.679400
-4.688900 1.689400
-4.672300 1.725900
-4.655700 1.744800
-4.639100 1.789500
-4.622600 1.835700
-4.606000 1.884000
-4.589400 1.935900
-4.572800 1.990800
-4.556200 2.047100
-4.539600 2.107100
-4.523000 2.238500
-4.506400 2.445000
-4.489900 2.646900
-4.473300 2.773200
-4.456700 2.834900
-4.440100 2.835800
-4.423500 2.943800
-4.406900 3.031200
-4.390300 3.152700
-4.373700 3.289800
-4.357200 3.327600
-4.340600 3.601800
-4.324000 3.817200
-4.307400 4.321000
-4.290800 3.936800
-4.274200 4.016300
-4.257600 4.021300
-4.241000 4.063800
-4.224500 4.142100
-4.207900 4.183000
-4.191300 4.174000
-4.174700 4.528800
-4.158100 4.221300
-4.141500 4.347300
-4.124900 4.261300
-4.108300 4.288700
-4.091800 4.323800
-4.075200 4.372600
-4.058600 4.404400
-4.042000 4.397800
-4.025400 4.444900
-4.008800 4.457100
-3.992200 4.431100
-3.975600 4.389100
-3.959100 4.573000
-3.942500 4.459400
-3.925900 4.377100
-3.909300 4.078000
-3.892700 3.975600
-3.876100 3.850700
-3.859500 3.603500
-3.842900 3.876800
-3.826400 3.538400
-3.809800 3.421100
-3.793200 3.267900
-3.776600 3.077700
-3.760000 2.803400
-3.743400 2.687500
-3.726800 2.726800
-3.710200 2.816300
-3.693700 2.717500
-3.677100 2.204100
-3.660500 2.620800
-3.643900 1.944900
-3.627300 2.193400
-3.610700 1.873600
-3.594100 1.966700
-3.577500 2.165500
-3.561000 2.312800
-3.544400 2.337100
-3.527800 2.402100
-3.511200 2.658100
-3.494600 5.744500
-3.478000 5.241600
-3.461400 5.248500
-3.444800 5.625200
-3.428300 5.592200
-3.411700 13.836700
-3.395100 7.386600
-3.378500 6.986500
-3.361900 7.323100
-3.345300 8.335700
-3.328700 9.248200
-3.312100 9.002500
-3.295600 8.890400
-3.279000 8.765600
-3.262400 8.269400
-3.245800 8.332700
-3.229200 8.078400
-3.212600 8.768200
-3.196000 8.879000
-3.179400 8.247500
-3.162900 7.109500
-3.146300 6.359200
-3.129700 5.354400
-3.113100 5.065900
-3.096500 4.788600
-3.079900 4.537400
-3.063300 4.266800
-3.046700 4.081200
-3.030200 3.440200
-3.013600 3.133200
-2.997000 2.864000
-2.980400 2.620900
-2.963800 2.402600
-2.947200 2.192900
-2.930600 1.946400
-2.914000 1.744900
-2.897500 1.587000
-2.880900 1.498400
-2.864300 1.400200
-2.847700 1.228000
-2.831100 0.975100
-2.814500 0.726900
-2.797900 0.679700
-2.781300 0.334000
-2.764800 0.072700
-2.748200 0.000000
-2.731600 0.000000
-2.715000 0.000000
-2.698400 0.000000
-2.681800 0.000000
-2.665200 0.000000
-2.648600 0.000000
-2.632100 0.000000
-2.615500 0.000000
-2.598900 0.000000
-2.582300 0.000000
-2.565700 0.000000
-2.549100 0.000000
-2.532500 0.000000
-2.515900 0.000000
-2.499400 0.000000
-2.482800 0.000000
-2.466200 0.000000
-2.449600 0.000000
-2.433000 0.000000
-2.416400 0.000000
-2.399800 0.000000
-2.383200 0.000000
-2.366700 0.000000
-2.350100 0.000000
-2.333500 0.000000
-2.316900 0.000000
-2.300300 0.000000
-2.283700 0.000000
-2.267100 0.000000
-2.250500 0.000000
-2.234000 0.000000
-2.217400 0.000000
-2.200800 0.000000
-2.184200 0.000000
-2.167600 0.000000
-2.151000 0.000000
-2.134400 0.000000
-2.117800 0.000000
-2.101200 0.000000
-2.084700 0.000000
-2.068100 0.000000
-2.051500 0.000000
-2.034900 0.000000
-2.018300 0.000000
-2.001700 0.000000
-1.985100 0.000000
-1.968500 0.000000
-1.952000 0.000000
-1.935400 0.000000
-1.918800 0.000000
-1.902200 0.000000
-1.885600 0.000000
-1.869000 0.000000
-1.852400 0.000000
-1.835800 0.000000
-1.819300 0.000000
-1.802700 0.000000
-1.786100 0.000000
-1.769500 0.000000
-1.752900 0.000000
-1.736300 0.000000
-1.719700 0.000000
-1.703100 0.000000
-1.686600 0.000000
-1.670000 0.000000
-1.653400 0.000000
-1.636800 0.000000
-1.620200 0.000000
-1.603600 0.000000
-1.587000 0.000000
-1.570400 0.000000
-1.553900 0.000000
-1.537300 0.000000
-1.520700 0.000000
-1.504100 0.000000
-1.487500 0.000000
-1.470900 0.000000
-1.454300 0.000000
-1.437700 0.000000
-1.421200 0.000000
-1.404600 0.000000
-1.388000 0.000000
-1.371400 0.000000
-1.354800 0.000000
-1.338200 0.000000
-1.321600 0.000000
-1.305000 0.000000
-1.288500 0.000000
-1.271900 0.000000
-1.255300 0.000000
-1.238700 0.000000
-1.222100 0.000000
-1.205500 0.000000
-1.188900 0.000000
-1.172300 0.000000
-1.155800 0.000000
-1.139200 0.000000
-1.122600 0.000000
-1.106000 0.000000
-1.089400 0.000000
-1.072800 0.000000
-1.056200 0.000000
-1.039600 0.000000
-1.023100 0.000000
-1.006500 0.000000
-0.989900 0.000000
-0.973300 0.000000
-0.956700 0.000000
-0.940100 0.000000
-0.923500 0.000000
-0.906900 0.000000
-0.890400 0.000000
-0.873800 0.000000
-0.857200 0.000000
-0.840600 0.000000
-0.824000 0.000000
-0.807400 0.000000
-0.790800 0.000000
-0.774200 0.000000
-0.757700 0.000000
-0.741100 0.000000
-0.724500 0.000000
-0.707900 0.000000
-0.691300 0.000000
-0.674700 0.000000
-0.658100 0.000000
-0.641500 0.000000
-0.625000 0.000000
-0.608400 0.000000
-0.591800 0.000000
-0.575200 0.000000
-0.558600 0.000000
-0.542000 0.000000
-0.525400 0.000000
-0.508800 0.000000
-0.492300 0.000000
-0.475700 0.000000
-0.459100 0.000000
-0.442500 0.000000
-0.425900 0.000000
-0.409300 0.000000
-0.392700 0.000000
-0.376100 0.000000
-0.359600 0.000000
-0.343000 0.000000
-0.326400 0.000000
-0.309800 0.000000
-0.293200 0.000000
-0.276600 0.000000
-0.260000 0.000000
-0.243400 0.000000
-0.226900 0.000000
-0.210300 0.000000
-0.193700 0.000000
-0.177100 0.000000
-0.160500 0.000000
-0.143900 0.000000
-0.127300 0.118600
-0.110700 0.153600
-0.094200 0.192100
-0.077600 0.234100
-0.061000 0.336800
-0.044400 0.514300
-0.027800 0.750000
-0.011200 0.836400
0.005400 0.897400
0.022000 1.142400
0.038500 1.460100
0.055100 1.818300
0.071700 2.034100
0.088300 2.298600
0.104900 2.582400
0.121500 2.849800
0.138100 3.078200
0.154700 3.276800
0.171200 3.501000
0.187800 3.862200
0.204400 4.024500
0.221000 4.126900
0.237600 4.108100
0.254200 4.160100
0.270800 4.169500
0.287400 4.340900
0.303900 4.500000
0.320500 4.655900
0.337100 4.837000
0.353700 5.105700
0.370300 5.228300
0.386900 5.314300
0.403500 5.134300
0.420100 5.026100
0.436700 4.782800
0.453200 4.767500
0.469800 4.823300
0.486400 4.912300
0.503000 5.059600
0.519600 5.223600
0.536200 5.373800
0.552800 5.550500
0.569400 5.728400
0.585900 5.729600
0.602500 5.762500
0.619100 6.025000
0.635700 5.997400
0.652300 6.122400
0.668900 6.478000
0.685500 6.741500
0.702100 6.727400
0.718600 6.893300
0.735200 6.803100
0.751800 6.730900
0.768400 6.733200
0.785000 6.746300
0.801600 6.762100
0.818200 7.208700
0.834800 7.505100
0.851300 7.883200
0.867900 8.293200
0.884500 7.930200
0.901100 8.036200
0.917700 8.221600
0.934300 7.853700
0.950900 7.848000
0.967500 8.005400
0.984000 7.341700
1.000600 6.354300
1.017200 6.014400
1.033800 5.903900
1.050400 5.844200
1.067000 5.591400
1.083600 5.526900
1.100200 5.547800
1.116700 5.615200
1.133300 5.568100
1.149900 5.457200
1.166500 5.527100
1.183100 5.717300
1.199700 5.900500
1.216300 5.992200
1.232900 6.140600
1.249400 6.349500
1.266000 6.485800
1.282600 6.847300
1.299200 7.154800
1.315800 7.548600
1.332400 7.629000
1.349000 7.415700
1.365600 6.990300
1.382100 6.875400
1.398700 6.506700
1.415300 6.318000
1.431900 6.135000
1.448500 6.091600
1.465100 5.432300
1.481700 5.211300
1.498300 5.102500
1.514800 4.865500
1.531400 4.856900
1.548000 5.174800
1.564600 5.249300
1.581200 5.376700
1.597800 5.584700
1.614400 5.518600
1.631000 5.403300
1.647500 5.363300
1.664100 5.373700
1.680700 5.392500
1.697300 5.447300
1.713900 5.503500
1.730500 5.567700
1.747100 5.845400
1.763700 5.470100
1.780200 5.687700
1.796800 5.792900
1.813400 5.715000
1.830000 5.756600
1.846600 5.804700
1.863200 5.732500
1.879800 5.666100
1.896400 5.690300
1.912900 5.780100
1.929500 5.845900
1.946100 6.009600
1.962700 6.061200
1.979300 6.002700
1.995900 5.983500
2.012500 6.114500
2.029100 6.577200
2.045600 6.486200
2.062200 6.606400
2.078800 6.588700
2.095400 6.138600
2.112000 5.788000
2.128600 5.356300
2.145200 5.207900
2.161800 5.357500
2.178300 5.460500
2.194900 4.934900
2.211500 4.623700
2.228100 4.518500
2.244700 4.520300
2.261300 4.606400
2.277900 4.583000
2.294500 4.675000
2.311000 4.716200
2.327600 5.257900
2.344200 5.129000
2.360800 5.277000
2.377400 5.607300
2.394000 6.057300
2.410600 5.980600
2.427200 6.238200
2.443700 6.251500
2.460300 6.626400
2.476900 7.299600
2.493500 7.579500
2.510100 7.387400
2.526700 7.249200
2.543300 7.643300
2.559900 8.775000
2.576400 8.709600
2.593000 8.208800
2.609600 7.528300
2.626200 6.276400
2.642800 5.518500
2.659400 5.267600
2.676000 5.220200
2.692600 5.270900
2.709100 5.357600
2.725700 5.482800
2.742300 5.466900
2.758900 5.309000
2.775500 5.545300
2.792100 5.871900
2.808700 6.366000
2.825300 7.302600
2.841900 7.283200
2.858400 7.307700
2.875000 7.923100
2.891600 8.532500
2.908200 8.678500
2.924800 10.188500
2.941400 11.455800
2.958000 12.569000
2.974600 12.614800
2.991100 12.286300
3.007700 10.532600
3.024300 10.438000
3.040900 10.941700
3.057500 11.964500
3.074100 13.135000
3.090700 12.816300
3.107300 13.024500
3.123800 12.203200
3.140400 12.508900
3.157000 11.199200
3.173600 10.768000
3.190200 10.878600
3.206800 11.375700
3.223400 12.011600
3.240000 11.735900
3.256500 11.863500
3.273100 11.796300
3.289700 12.533400
3.306300 13.236000
3.322900 13.613900
3.339500 14.477400
3.356100 11.819000
3.372700 9.015500
3.389200 10.051000
3.405800 10.478100
3.422400 11.915200
3.439000 14.920200
3.455600 16.508400
3.472200 15.085800
3.488800 14.031800
3.505400 14.024300
3.521900 15.272100
3.538500 13.817000
3.555100 11.672500
3.571700 11.452800
3.588300 12.914400
3.604900 13.311400
3.621500 11.771400
3.638100 10.994800
3.654600 11.848500
3.671200 12.287300
3.687800 12.763600
3.704400 13.476500
3.721000 13.262600
3.737600 13.838200
3.754200 15.029900
3.770800 14.513700
3.787300 13.500100
3.803900 14.986800
3.820500 14.030000
3.837100 13.708200
3.853700 11.934600
3.870300 11.769400
3.886900 11.601000
3.903500 12.395200
3.920000 12.939900
3.936600 13.559600
3.953200 14.063400
3.969800 14.112400
3.986400 15.641500
4.003000 16.366900
4.019600 15.929900
4.036200 15.152500
4.052700 14.874300
4.069300 16.293400
4.085900 17.033600
4.102500 19.732700
4.119100 18.541200
4.135700 16.238800
4.152300 13.972700
4.168900 13.808400
4.185400 13.368500
4.202000 15.458200
4.218600 15.870900
4.235200 16.381700
4.251800 15.214000
4.268400 14.505500
4.285000 12.493300
4.301600 11.667600
4.318100 12.966200
4.334700 12.742200
4.351300 12.308100
4.367900 19.544900
4.384500 23.024600
4.401100 22.015800
4.417700 19.620000
4.434300 17.415600
4.450800 18.204200
4.467400 16.670600
4.484000 16.453700
4.500600 18.374700
4.517200 26.153500
4.533800 26.368300
4.550400 24.942000
4.567000 26.314000
4.583500 23.717100
4.600100 24.348500
4.616700 30.547300
4.633300 28.155600
4.649900 28.747500
4.666500 24.715800
4.683100 17.005200
4.699700 17.409400
4.716200 17.874000
4.732800 15.801300
4.749400 19.879800
4.766000 20.200600
4.782600 26.592200
4.799200 31.590000
4.815800 27.369700
4.832400 29.642600
4.848900 23.352100
4.865500 20.976900
4.882100 17.118400
4.898700 13.447300
4.915300 10.547100
4.931900 11.379800
4.948500 10.403200
4.965100 11.936100
4.981600 13.484900
4.998200 14.798900
5.014800 13.730300
5.031400 14.570200
5.048000 15.172800
5.064600 15.468700
5.081200 15.786800
5.097800 18.128900
5.114300 17.657700
5.130900 17.102500
5.147500 17.280600
5.164100 16.332500
5.180700 17.766600
5.197300 16.950200
5.213900 15.941600
5.230500 14.293700
5.247000 15.708800
5.263600 15.966500
5.280200 14.211000
5.296800 14.254500
5.313400 13.886800
5.330000 14.343000
5.346600 15.722300
5.363200 18.100800
5.379800 18.502200
5.396300 19.344700
5.412900 15.038300
5.429500 12.638400
5.446100 10.842400
5.462700 9.843600
5.479300 9.685200
5.495900 9.524600
5.512500 11.275000
5.529000 13.024900
5.545600 13.249100
5.562200 13.419100
5.578800 11.469700
5.595400 9.218000
5.612000 7.577600
5.628600 6.843800
5.645200 6.568600
5.661700 6.508300
5.678300 7.312100
5.694900 7.360300
5.711500 6.718500
5.728100 6.139800
5.744700 5.995100
5.761300 5.994300
5.777900 6.260600
5.794400 5.834600
5.811000 4.872600
5.827600 4.407200
5.844200 3.762000
5.860800 3.306600
5.877400 2.910400
5.894000 2.594800
5.910600 2.300000
5.927100 1.951000
5.943700 1.674700
5.960300 1.461000
5.976900 1.341200
5.993500 1.184500
6.010100 1.037200
6.026700 0.956400
6.043300 0.876800
6.059800 0.796300
6.076400 0.715800
6.093000 0.636600
6.109600 0.824000
6.126200 0.262800
6.142800 0.186500
6.159400 0.118200
6.176000 0.057900
6.192500 0.005600
6.209100 0.000000
6.225700 0.000000
6.242300 0.000000
6.258900 0.000000
6.275500 0.000000
6.292100 0.000000
6.308700 0.000000
6.325200 0.000000
6.341800 0.000000
6.358400 0.000000
6.375000 0.196600
6.391600 0.186300
6.408200 0.322100
6.424800 0.689600
6.441400 1.382100
6.457900 1.910600
6.474500 2.603800
6.491100 3.133700
6.507700 3.932900
6.524300 5.382600
6.540900 5.235000
6.557500 5.271700
6.574100 5.365600
6.590600 5.480400
6.607200 5.644100
6.623800 6.456500
6.640400 5.586100
6.657000 5.441600
6.673600 5.451600
6.690200 5.330400
6.706800 5.124200
6.723300 4.823800
6.739900 4.506800
6.756500 4.347700
6.773100 4.279900
6.789700 4.260100
6.806300 4.255800
6.822900 4.409400
6.839500 4.397900
6.856000 4.423900
6.872600 4.515400
6.889200 4.871900
6.905800 5.118600
6.922400 5.206700
6.939000 5.824700
6.955600 7.338100
6.972200 7.484100
6.988700 8.299000
7.005300 7.554600
7.021900 7.514700
7.038500 7.216600
7.055100 7.028700
7.071700 6.885000
7.088300 6.503300
7.104900 6.302800
7.121400 7.172700
7.138000 6.502300
7.154600 6.428400
7.171200 6.461700
7.187800 6.585100
7.204400 6.796300
7.221000 7.161400
7.237600 7.125400
7.254100 6.895400
7.270700 6.835500
7.287300 6.951300
7.303900 7.048500
7.320500 7.074000
7.337100 7.350200
7.353700 7.916500
7.370300 8.109800
7.386800 8.058600
7.403400 8.031700
7.420000 7.588900
7.436600 7.443400
7.453200 6.994400
7.469800 6.672200
7.486400 6.511500
7.503000 6.491100
7.519500 6.526100
7.536100 6.418200
7.552700 6.293500
7.569300 6.234100
7.585900 6.256300
7.602500 6.294200
7.619100 6.294600
7.635700 6.282400
7.652200 6.266600
7.668800 6.239300
7.685400 6.310700
7.702000 6.658200
7.718600 6.659600
7.735200 6.803100
7.751800 7.160400
7.768400 7.254500
7.784900 7.258400
7.801500 7.233800
7.818100 7.288200
7.834700 7.476400
7.851300 7.236200
7.867900 6.788600
7.884500 6.357200
7.901100 5.966700
7.917700 5.742600
7.934200 5.964900
7.950800 6.220100
7.967400 6.804200
7.984000 6.854500
8.000600 6.293900
8.017200 6.227100
8.033800 5.933100
8.050400 5.854200
8.066900 5.773100
8.083500 5.844200
8.100100 6.261100
8.116700 6.251300
8.133300 6.573200
8.149900 7.094400
8.166500 7.035200
8.183100 6.855700
8.199600 6.782700
8.216200 6.941800
8.232800 7.181700
8.249400 6.887200
8.266000 6.778900
8.282600 6.741700
8.299200 6.678000
8.315800 6.619800
8.332300 6.751500
8.348900 6.386200
8.365500 6.104400
8.382100 6.006200
8.398700 5.932100
8.415300 5.899300
8.431900 5.754000
8.448500 5.697900
8.465000 5.689200
8.481600 5.855900
8.498200 6.122700
8.514800 6.044800
8.531400 5.881900
8.548000 5.803900
8.564600 5.718800
8.581200 5.748300
8.597700 5.802200
8.614300 5.847000
8.630900 5.850500
8.647500 5.652000
8.664100 5.586300
8.680700 5.600800
8.697300 5.282800
8.713900 5.236500
8.730400 5.208700
8.747000 5.118800
8.763600 5.259800
8.780200 5.344100
8.796800 5.297900
8.813400 5.394300
8.830000 5.650400
8.846600 6.148600
8.863100 6.773900
8.879700 6.529200
8.896300 6.152500
8.912900 5.978600
8.929500 6.142500
8.946100 5.817700
8.962700 5.759100
8.979300 5.609600
8.995800 5.470200
9.012400 5.336000
9.029000 5.362600
9.045600 5.464200
9.062200 5.507900
9.078800 5.469700
9.095400 5.308100
9.112000 5.162700
9.128500 5.040300
9.145100 5.158000
9.161700 5.267200
9.178300 5.509700
9.194900 5.818500
9.211500 6.012500
9.228100 6.007900
9.244700 5.610200
9.261200 5.530400
9.277800 5.538200
9.294400 5.475100
9.311000 5.412600
9.327600 5.390700
9.344200 5.334100
9.360800 5.269000
9.377400 5.125000
9.393900 4.986100
9.410500 4.855400
9.427100 4.656700
9.443700 4.511400
9.460300 4.611900
9.476900 5.630100
9.493500 4.877100
9.510100 4.624800
9.526600 4.508000
9.543200 4.160000
9.559800 4.068800
9.576400 3.908500
9.593000 3.770400
9.609600 3.671000
9.626200 3.574100
9.642800 3.622300
9.659300 3.613000
9.675900 3.600100
9.692500 3.690900
9.709100 3.873900
9.725700 4.079100
9.742300 4.196200
9.758900 4.278400
9.775500 4.410100
9.792000 4.598000
9.808600 4.844000
9.825200 5.287600
9.841800 5.714200
9.858400 6.269900
9.875000 6.567000
9.891600 7.045600
9.908200 7.051300
9.924700 6.983700
9.941300 7.299900
9.957900 7.546400
9.974500 7.769500
9.991100 7.852600
10.007700 8.382900
10.024300 8.560900
10.040900 7.944300
10.057400 7.601300
10.074000 7.724700
10.090600 7.450000
10.107200 7.258800
10.123800 7.112200
10.140400 7.029000
10.157000 7.335600
10.173600 7.035400
10.190100 7.470600
10.206700 7.762600
10.223300 7.760700
10.239900 7.722900
10.256500 7.904200
10.273100 8.199100
10.289700 8.689500
10.306300 8.727300
10.322900 8.013500
10.339400 7.703300
10.356000 7.441500
10.372600 7.269000
10.389200 6.527400
10.405800 6.823700
10.422400 7.065500
10.439000 7.518100
10.455600 8.262300
10.472100 8.959000
10.488700 8.783900
10.505300 8.002700
10.521900 7.817600
10.538500 7.861200
10.555100 7.984500
10.571700 8.095400
10.588300 7.611900
10.604800 6.997300
10.621400 6.663300
10.638000 7.602400
10.654600 6.045200
10.671200 5.740100
10.687800 5.638000
10.704400 5.529300
10.721000 5.337700
10.737500 5.156500
10.754100 4.990900
10.770700 4.990000
10.787300 4.511800
10.803900 4.375300
10.820500 4.289000
10.837100 4.389100
10.853700 4.374300
10.870200 4.333300
10.886800 4.422800
10.903400 4.345700
10.920000 4.447900
10.936600 4.230500
10.953200 3.967000
10.969800 3.457200
10.986400 3.377300
11.002900 3.085600
11.019500 2.694100
11.036100 2.329000
11.052700 2.142300
11.069300 1.959300
11.085900 1.791100
11.102500 1.728400
11.119100 1.664600
11.135600 1.552500
11.152200 1.328500
11.168800 1.134100
11.185400 0.984000
11.202000 0.858100
11.218600 0.784100
11.235200 0.768400
11.251800 0.760900
11.268300 0.740200
11.284900 0.736200
11.301500 0.673700
11.318100 0.620500
11.334700 0.576600
11.351300 0.577700
11.367900 0.588500
11.384500 0.591000
11.401000 0.253400
11.417600 0.271100
11.434200 0.289300
11.450800 0.308100
11.467400 0.327500
11.484000 0.347500
11.500600 0.332600
11.517200 0.343100
11.533700 0.354100
11.550300 0.365800
11.566900 0.379400
11.583500 0.408300
11.600100 0.422000
11.616700 0.436700
11.633300 0.488200
11.649900 0.506700
11.666400 0.526200
11.683000 0.546700
11.699600 0.568200
11.716200 0.589300
11.732800 0.609300
11.749400 0.627800
11.766000 0.645500
11.782600 0.665600
11.799100 0.684000
11.815700 0.696300
11.832300 0.712700
11.848900 0.766000
11.865500 0.895700
11.882100 0.971300
11.898700 1.053800
11.915300 1.142400
11.931800 1.232500
11.948400 1.328700
11.965000 1.431200
11.981600 1.645000
11.998200 2.067100
12.014800 2.374200
12.031400 2.267500
12.048000 2.192300
12.064500 2.269800
12.081100 2.346200
12.097700 2.364900
12.114300 2.352500
12.130900 2.307000
12.147500 2.321200
12.164100 2.283300
12.180700 2.223800
12.197200 2.231200
12.213800 2.214100
12.230400 2.205400
12.247000 2.222600
12.263600 2.279400
12.280200 2.348300
12.296800 2.430400
12.313400 2.521800
12.329900 2.454300
12.346500 2.523100
12.363100 2.592200
12.379700 2.666800
12.396300 2.749900
12.412900 2.848200
12.429500 2.933200
12.446100 3.001100
12.462600 3.054900
12.479200 3.108900
12.495800 3.159200
12.512400 3.209400
12.529000 3.257100
12.545600 3.342000
12.562200 3.373700
12.578800 3.415000
12.595300 3.462700
12.611900 3.495600
12.628500 3.653000
12.645100 3.826400
12.661700 3.874700
12.678300 3.627000
12.694900 3.576400
12.711500 3.676600
12.728000 3.785300
12.744600 3.988800
12.761200 4.177300
12.777800 4.203300
12.794400 4.346900
12.811000 4.533900
12.827600 4.549700
12.844200 4.668500
12.860800 4.792900
12.877300 4.908900
12.893900 5.032200
12.910500 5.153900
12.927100 5.307200
12.943700 5.500600
12.960300 5.622700
12.976900 5.651700
12.993500 5.542500
13.010000 5.371200
13.026600 5.196500
13.043200 5.035500
13.059800 4.789600
13.076400 4.639300
13.093000 4.535900
13.109600 4.590600
13.126200 4.699200
13.142700 4.736500
13.159300 4.907600
13.175900 5.122300
13.192500 5.291700
13.209100 5.388400
13.225700 5.510300
13.242300 5.668900
13.258900 5.950700
13.275400 6.483400
13.292000 6.640800
13.308600 6.803100
13.325200 6.822900
13.341800 6.831300
13.358400 6.582700
13.375000 6.491200
13.391600 6.478500
13.408100 6.168100
13.424700 5.883200
13.441300 5.689400
13.457900 5.571400
13.474500 5.480500
13.491100 5.425100
13.507700 5.371500
13.524300 5.329700
13.540800 5.324100
13.557400 5.423700
13.574000 5.561100
13.590600 5.625200
13.607200 5.934000
13.623800 5.995900
13.640400 6.069800
13.657000 5.943200
13.673500 6.264800
13.690100 5.845800
13.706700 5.649100
13.723300 5.382900
13.739900 5.238100
13.756500 5.255500
13.773100 5.260800
13.789700 5.362000
13.806200 5.716300
13.822800 6.000700
13.839400 5.760900
13.856000 5.272500
13.872600 5.001600
13.889200 4.864800
13.905800 4.733200
13.922400 4.726200
13.938900 4.984000
13.955500 5.018900
13.972100 5.250400
13.988700 5.578800
14.005300 5.785900
14.021900 6.295500
14.038500 5.979900
14.055100 6.325800
14.071600 6.125500
14.088200 6.038400
14.104800 6.135200
14.121400 6.231800
14.138000 6.369900
14.154600 6.653500
14.171200 6.661100
14.187800 6.482100
14.204300 6.446800
14.220900 6.418300
14.237500 6.334200
14.254100 6.284100
14.270700 6.235800
14.287300 6.138900
14.303900 6.079400
14.320500 6.256400
14.337000 6.729900
14.353600 7.080000
14.370200 6.955800
14.386800 6.977100
14.403400 6.963600
14.420000 6.808700
14.436600 6.713900
14.453200 6.506600
14.469700 6.374400
14.486300 6.273900
14.502900 6.254000
14.519500 6.232800
14.536100 5.975700
14.552700 5.697300
14.569300 5.390500
14.585900 5.195500
14.602400 5.651800
14.619000 5.418600
14.635600 5.096800
14.652200 5.012100
14.668800 5.033800
14.685400 5.344500
14.702000 5.636900
14.718600 5.903800
14.735100 6.184200
14.751700 6.221700
14.768300 6.152000
14.784900 6.171400
14.801500 6.282200
14.818100 5.915200
14.834700 5.884900
14.851300 5.526500
14.867800 5.294300
14.884400 5.233400
14.901000 5.173900
14.917600 5.225500
14.934200 5.322900
14.950800 5.076300
14.967400 5.285400
14.984000 5.681300
15.000500 6.056800
15.017100 6.291800
15.033700 6.529300
15.050300 6.769200
15.066900 6.777500
15.083500 6.719200
15.100100 7.274600
15.116700 7.008400
15.133200 7.298000
15.149800 7.133800
15.166400 6.814800
15.183000 6.386200
15.199600 6.406500
15.216200 6.059900
15.232800 5.786600
15.249400 5.708300
15.265900 5.562200
15.282500 5.507500
15.299100 5.476600
15.315700 5.569800
15.332300 5.757800
15.348900 5.899200
15.365500 6.089400
15.382100 6.512700
15.398700 6.719800
15.415200 6.953300
15.431800 6.971000
15.448400 6.691300
15.465000 6.268800
15.481600 6.089500
15.498200 6.056100
15.514800 6.108100
15.531400 6.237200
15.547900 6.379400
15.564500 6.510100
15.581100 6.797700
15.597700 6.676200
15.614300 6.151400
15.630900 5.980700
15.647500 5.888300
15.664100 6.095100
15.680600 6.000000
15.697200 6.019700
15.713800 6.145100
15.730400 6.414100
15.747000 6.551800
15.763600 6.666300
15.780200 6.718000
15.796800 6.820400
15.813300 6.950900
15.829900 7.008300
15.846500 7.087600
15.863100 7.235100
15.879700 7.539000
15.896300 7.116200
15.912900 7.318500
15.929500 7.199300
15.946000 7.445600
15.962600 7.314300
15.979200 7.488300
15.995800 6.788000
16.012400 6.745700
16.029000 6.826600
16.045600 6.989400
16.062200 7.107600
16.078700 7.297500
16.095300 7.206000
16.111900 6.979000
16.128500 6.557900
16.145100 6.607700
16.161700 5.969000
16.178300 5.600900
16.194900 5.445300
16.211400 5.410700
16.228000 5.513000
16.244600 5.808900
16.261200 6.331500
16.277800 6.739600
16.294400 6.889900
16.311000 7.147800
16.327600 7.364500
16.344100 7.396400
16.360700 7.647700
16.377300 7.716700
16.393900 7.752600
16.410500 7.680600
16.427100 7.417700
16.443700 7.193900
16.460300 7.132200
16.476800 7.086500
16.493400 6.828900
16.510000 6.435700
16.526600 6.202900
16.543200 6.222000
16.559800 6.385100
16.576400 6.415000
16.593000 6.723500
16.609500 6.798800
16.626100 6.809100
16.642700 6.881500
16.659300 6.863500
16.675900 6.946700
16.692500 7.056500
16.709100 7.118700
16.725700 7.147400
16.742200 6.937900
16.758800 6.886600
16.775400 6.754500
16.792000 6.702700
16.808600 6.465400
16.825200 6.254300
16.841800 6.456300
16.858400 5.287800
16.874900 5.336900
16.891500 6.010200
16.908100 5.996700
16.924700 6.201200
16.941300 6.301200
16.957900 6.454500
16.974500 6.551000
16.991100 6.701400
17.007600 6.433400
17.024200 6.457100
17.040800 6.583400
17.057400 6.902600
17.074000 7.077500
17.090600 7.234400
17.107200 7.081000
17.123800 7.104300
17.140300 6.964500
17.156900 7.062900
17.173500 6.985800
17.190100 7.064600
17.206700 7.104900
17.223300 6.887500
17.239900 6.241800
17.256500 6.223400
17.273000 6.239000
17.289600 6.238400
17.306200 6.104300
17.322800 6.151900
17.339400 6.419100
17.356000 6.742000
17.372600 6.837900
17.389200 6.854400
17.405700 6.983500
17.422300 7.000100
17.438900 6.972100
17.455500 7.124200
17.472100 6.917300
17.488700 6.670800
17.505300 6.467100
17.521900 6.125900
17.538400 5.970600
17.555000 6.331800
17.571600 6.697400
17.588200 6.727300
17.604800 6.343600
17.621400 6.369200
17.638000 6.511400
17.654600 6.486800
17.671100 6.359100
17.687700 6.185900
17.704300 5.943700
17.720900 5.704900
17.737500 5.549800
17.754100 5.454700
17.770700 5.380400
17.787300 5.302100
17.803800 5.715800
17.820400 5.812300
17.837000 6.011000
17.853600 5.993800
17.870200 6.063900
17.886800 6.030800
17.903400 6.187000
17.920000 6.245400
17.936600 6.352000
17.953100 6.501800
17.969700 6.616900
17.986300 6.539000
18.002900 6.752600
18.019500 6.438400
18.036100 6.177100
18.052700 6.075600
18.069300 6.082900
18.085800 6.266300
18.102400 6.305900
18.119000 6.359200
18.135600 6.377300
18.152200 6.368100
18.168800 6.275000
18.185400 6.535200
18.202000 6.640400
18.218500 6.285100
18.235100 5.930300
18.251700 5.807100
18.268300 5.743900
18.284900 5.723300
18.301500 5.663400
18.318100 5.603600
18.334700 5.546900
18.351200 5.461300
18.367800 5.332900
18.384400 5.326300
18.401000 5.334400
18.417600 5.363000
18.434200 5.438100
18.450800 6.396700
18.467400 5.823200
18.483900 5.797200
18.500500 5.513400
18.517100 5.423400
18.533700 5.387000
18.550300 5.396700
18.566900 5.434000
18.583500 5.670100
18.600100 5.807400
18.616600 5.891900
18.633200 5.713200
18.649800 5.850900
18.666400 5.792700
18.683000 5.771700
18.699600 5.990400
18.716200 6.036300
18.732800 5.935400
18.749300 6.096600
18.765900 6.033700
18.782500 6.063600
18.799100 6.146500
18.815700 6.085500
18.832300 6.318700
18.848900 6.669300
18.865500 6.562000
18.882000 6.603700
18.898600 6.736400
18.915200 6.904700
18.931800 7.026000
18.948400 7.128100
18.965000 7.108600
18.981600 6.990400
18.998200 6.847500
19.014700 6.692600
19.031300 6.424500
19.047900 6.456500
19.064500 6.276400
19.081100 6.102400
19.097700 6.058000
19.114300 6.150200
19.130900 6.229500
19.147400 6.348600
19.164000 6.533300
19.180600 6.830400
19.197200 7.190500
19.213800 7.015200
19.230400 6.714500
19.247000 6.389500
19.263600 5.580100
19.280100 5.416700
19.296700 5.387100
19.313300 5.546500
19.329900 5.613800
19.346500 5.762800
19.363100 5.863800
19.379700 6.095600
19.396300 6.209100
19.412800 6.248000
19.429400 6.002500
19.446000 5.949300
19.462600 5.789500
19.479200 5.680500
19.495800 5.744700
19.512400 5.819500
19.529000 5.858600
19.545500 6.003900
19.562100 6.148800
19.578700 6.133300
19.595300 6.036700
19.611900 6.116200
19.628500 6.361000
19.645100 6.320100
19.661700 6.285800
19.678200 6.355000
19.694800 6.469100
19.711400 6.674400
19.728000 6.907900
19.744600 6.889900
19.761200 6.548400
19.777800 6.226500
19.794400 6.138100
19.810900 5.902900
19.827500 5.954500
19.844100 6.503200
19.860700 6.269000
19.877300 6.408900
19.893900 6.306700
19.910500 6.198000
19.927100 6.270900
19.943600 6.399200
19.960200 6.477300
19.976800 6.498700
19.993400 6.504600
20.010000 6.933000
20.026600 6.761800
20.043200 6.837700
20.059800 7.066500
20.076300 7.036000
20.092900 7.156300
20.109500 7.192700
20.126100 7.043300
20.142700 7.114700
20.159300 6.771500
20.175900 6.694200
20.192500 6.774400
20.209000 6.960200
20.225600 6.949800
20.242200 6.869200
20.258800 6.817700
20.275400 7.016200
20.292000 6.950000
20.308600 6.906900
20.325200 6.815800
20.341800 7.129300
20.358300 7.274300
20.374900 7.052200
20.391500 7.094000
20.408100 7.247200
20.424700 7.653700
20.441300 7.880200
20.457900 7.662800
20.474500 7.412200
20.491000 7.353300
20.507600 7.359400
20.524200 7.593500
20.540800 7.146400
20.557400 6.919800
20.574000 6.869200
20.590600 6.886600
20.607200 6.528400
20.623700 6.300700
20.640300 6.210300
20.656900 6.229600
20.673500 6.245200
20.690100 6.405500
20.706700 6.084900
20.723300 6.024000
20.739900 6.075100
20.756400 5.968600
20.773000 5.832200
20.789600 5.639900
20.806200 5.599900
20.822800 5.612700
20.839400 5.621800
20.856000 5.618600
20.872600 5.598300
20.889100 5.636000
20.905700 5.855400
20.922300 5.678400
20.938900 5.396600
20.955500 5.175700
20.972100 4.972000
20.988700 4.842000
21.005300 4.744300
21.021800 4.658000
21.038400 4.597200
21.055000 4.454900
21.071600 4.284600
21.088200 4.156700
21.104800 4.080000
21.121400 4.023600
21.138000 3.965500
21.154500 3.898400
21.171100 3.815700
21.187700 3.755000
21.204300 3.723300
21.220900 3.627300
21.237500 3.596900
21.254100 3.397300
21.270700 3.240500
21.287200 3.100500
21.303800 2.957900
21.320400 2.823400
21.337000 2.735200
21.353600 2.662600
21.370200 2.596600
21.386800 2.519000
21.403400 2.452400
21.419900 2.342800
21.436500 2.343900
21.453100 2.341400
21.469700 2.231100
21.486300 2.112700
21.502900 2.032800
21.519500 1.949300
21.536100 1.827900
21.552600 1.691900
21.569200 1.619300
21.585800 1.564400
21.602400 1.498200
21.619000 1.402200
21.635600 1.424100
21.652200 1.280000
21.668800 1.159600
21.685300 1.114000
21.701900 1.067800
21.718500 1.022300
21.735100 0.957700
21.751700 0.913300
21.768300 0.869800
21.784900 0.825000
21.801500 0.720800
21.818000 0.632300
21.834600 0.539200
21.851200 0.460800
21.867800 0.405900
21.884400 0.360900
21.901000 0.322700
21.917600 0.281700
21.934200 0.230600
21.950700 0.181400
21.967300 0.139100
21.983900 0.103700
22.000500 0.068600
22.017100 0.038200
22.033700 0.018800
22.050300 0.005800
22.066900 0.000000
22.083400 0.000000
22.100000 0.000000
22.116600 0.000000
22.133200 0.000000
22.149800 0.000000
22.166400 0.000000
22.183000 0.000000
22.199600 0.000000
22.216100 0.000000
22.232700 0.000000
22.249300 0.000000
22.265900 0.000000
22.282500 0.000000
22.299100 0.000000
22.315700 0.000000
22.332300 0.000000
22.348800 0.000000
22.365400 0.000000
22.382000 0.000000
22.398600 0.000000
22.415200 0.000000
22.431800 0.000000
22.448400 0.000000
22.465000 0.000000
22.481500 0.000000
22.498100 0.000000
22.514700 0.000000
22.531300 0.000000
22.547900 0.000000
22.564500 0.000000
22.581100 0.000000
22.597700 0.000000
22.614200 0.000000
22.630800 0.000000
22.647400 0.000000
22.664000 0.000000
22.680600 0.000000
22.697200 0.000000
22.713800 0.000000
22.730400 0.000000
22.746900 0.000000
22.763500 0.000000
22.780100 0.000000
22.796700 0.000000
22.813300 0.000000
22.829900 0.000000
22.846500 0.000000
22.863100 0.000000
22.879700 0.000000
22.896200 0.000000
22.912800 0.000000
22.929400 0.000000
22.946000 0.000000
22.962600 0.000000
22.979200 0.000000
22.995800 0.000000
23.012400 0.000000
23.028900 0.000000
23.045500 0.000000
23.062100 0.000000
23.078700 0.000000
23.095300 0.000000
23.111900 0.000000
23.128500 0.000000
23.145100 0.000000
23.161600 0.000000
23.178200 0.000000
23.194800 0.000000
23.211400 0.000000
23.228000 0.000000
23.244600 0.000000
23.261200 0.000000
23.277800 0.000000
23.294300 0.000000
23.310900 0.000000
23.327500 0.000000
23.344100 0.000000
23.360700 0.000000
23.377300 0.000000
23.393900 0.000000
23.410500 0.000000
23.427000 0.000000
23.443600 0.000000
23.460200 0.000000
23.476800 0.000000
23.493400 0.000000
23.510000 0.000000
23.526600 0.000000
23.543200 0.000000
23.559700 0.000000
23.576300 0.000000
e
