set title 'mp-1105 - Density of States'
set xlabel 'Energy (eV)'
set ylabel 'DOS (states/eV)'
set grid
set xrange [-10:10]
set yrange [0:13.403]
set xzeroaxis lt -1
set terminal png size 800,600
set output 'mp-1105_dos_gnuplot.png'
plot '-' using 1:2 with lines title 'DOS'
-30.170300 0.000000
-30.104200 0.000000
-30.038200 0.000000
-29.972200 0.000000
-29.906200 0.000000
-29.840200 0.000000
-29.774100 0.000000
-29.708100 0.000000
-29.642100 0.000000
-29.576100 0.000000
-29.510100 0.000000
-29.444000 0.000000
-29.378000 0.000000
-29.312000 0.000000
-29.246000 0.000000
-29.179900 0.000000
-29.113900 0.000000
-29.047900 0.000000
-28.981900 0.000000
-28.915900 0.000000
-28.849800 0.000000
-28.783800 0.000000
-28.717800 0.000000
-28.651800 0.000000
-28.585800 0.000000
-28.519700 0.000000
-28.453700 0.000000
-28.387700 0.000000
-28.321700 0.000000
-28.255600 0.000000
-28.189600 0.000000
-28.123600 0.000000
-28.057600 0.000000
-27.991600 0.000000
-27.925500 0.000000
-27.859500 0.000000
-27.793500 0.000000
-27.727500 0.000000
-27.661500 0.000000
-27.595400 0.000000
-27.529400 0.000000
-27.463400 0.000000
-27.397400 0.000000
-27.331400 0.000000
-27.265300 0.000000
-27.199300 0.000000
-27.133300 0.000000
-27.067300 0.000000
-27.001200 0.000000
-26.935200 0.000000
-26.869200 0.000000
-26.803200 0.000000
-26.737200 0.000000
-26.671100 0.000000
-26.605100 0.000000
-26.539100 0.000000
-26.473100 0.000000
-26.407100 0.000000
-26.341000 0.000000
-26.275000 0.000000
-26.209000 0.000000
-26.143000 0.000000
-26.077000 0.000000
-26.010900 0.000000
-25.944900 0.000000
-25.878900 0.000000
-25.812900 0.000000
-25.746800 0.000000
-25.680800 0.000000
-25.614800 0.000000
-25.548800 0.000000
-25.482800 0.000000
-25.416700 0.000000
-25.350700 0.000000
-25.284700 0.000000
-25.218700 0.000000
-25.152700 0.000000
-25.086600 0.000000
-25.020600 0.000000
-24.954600 0.000000
-24.888600 0.000000
-24.822600 0.000000
-24.756500 0.000000
-24.690500 0.000000
-24.624500 0.000000
-24.558500 0.000000
-24.492400 0.000000
-24.426400 0.000000
-24.360400 0.000000
-24.294400 0.000000
-24.228400 0.000000
-24.162300 0.038200
-24.096300 2.322600
-24.030300 6.555100
-23.964300 16.229100
-23.898300 8.777000
-23.832200 0.000000
-23.766200 0.000000
-23.700200 0.000000
-23.634200 0.000000
-23.568100 0.000000
-23.502100 0.000000
-23.436100 0.000000
-23.370100 0.000000
-23.304100 0.000000
-23.238000 0.000000
-23.172000 0.000000
-23.106000 0.000000
-23.040000 0.000000
-22.974000 0.000000
-22.907900 0.000000
-22.841900 0.000000
-22.775900 0.000000
-22.709900 0.000000
-22.643900 0.000000
-22.577800 0.000000
-22.511800 0.000000
-22.445800 0.000000
-22.379800 0.000000
-22.313700 0.000000
-22.247700 0.000000
-22.181700 0.000000
-22.115700 0.000000
-22.049700 0.000000
-21.983600 0.000000
-21.917600 0.000000
-21.851600 0.000000
-21.785600 0.000000
-21.719600 0.000000
-21.653500 0.000000
-21.587500 0.000000
-21.521500 0.000000
-21.455500 0.000000
-21.389500 0.000000
-21.323400 0.000000
-21.257400 0.000000
-21.191400 0.000000
-21.125400 0.000000
-21.059300 0.000000
-20.993300 0.000000
-20.927300 0.000000
-20.861300 0.000000
-20.795300 0.000000
-20.729200 0.000000
-20.663200 0.000000
-20.597200 0.000000
-20.531200 0.000000
-20.465200 0.000000
-20.399100 0.000000
-20.333100 0.000000
-20.267100 0.000000
-20.201100 0.000000
-20.135000 0.000000
-20.069000 0.000000
-20.003000 0.000000
-19.937000 0.000000
-19.871000 0.000000
-19.804900 0.000000
-19.738900 0.000000
-19.672900 0.000000
-19.606900 0.000000
-19.540900 0.000000
-19.474800 0.000000
-19.408800 0.000000
-19.342800 0.000000
-19.276800 0.000000
-19.210800 0.000000
-19.144700 0.000000
-19.078700 0.000000
-19.012700 0.000000
-18.946700 0.000000
-18.880600 0.000000
-18.814600 0.000000
-18.748600 0.000000
-18.682600 0.000000
-18.616600 0.000000
-18.550500 0.000000
-18.484500 10.500000
-18.418500 17.862900
-18.352500 4.058100
-18.286500 1.732600
-18.220400 0.004700
-18.154400 0.000000
-18.088400 0.000000
-18.022400 0.000000
-17.956400 0.000000
-17.890300 0.000000
-17.824300 0.000000
-17.758300 0.000000
-17.692300 0.000000
-17.626200 0.000000
-17.560200 0.000000
-17.494200 0.000000
-17.428200 0.000000
-17.362200 0.000000
-17.296100 0.000000
-17.230100 0.000000
-17.164100 0.000000
-17.098100 0.000000
-17.032100 0.000000
-16.966000 0.000000
-16.900000 0.000000
-16.834000 0.000000
-16.768000 0.000000
-16.702000 0.000000
-16.635900 0.000000
-16.569900 0.000000
-16.503900 0.000000
-16.437900 0.000000
-16.371800 0.000000
-16.305800 0.000000
-16.239800 0.000000
-16.173800 0.000000
-16.107800 0.000000
-16.041700 0.000000
-15.975700 0.000000
-15.909700 0.000000
-15.843700 0.000000
-15.777700 0.000000
-15.711600 0.000000
-15.645600 0.000000
-15.579600 0.000000
-15.513600 0.000000
-15.447500 0.000000
-15.381500 0.000000
-15.315500 0.000000
-15.249500 0.000000
-15.183500 0.000000
-15.117400 0.000000
-15.051400 0.000000
-14.985400 0.000000
-14.919400 0.000000
-14.853400 0.000000
-14.787300 0.000000
-14.721300 0.000000
-14.655300 0.000000
-14.589300 0.000000
-14.523300 0.000000
-14.457200 0.000000
-14.391200 0.000000
-14.325200 0.000000
-14.259200 0.000000
-14.193100 0.000000
-14.127100 0.000000
-14.061100 0.000000
-13.995100 0.000000
-13.929100 0.000000
-13.863000 0.000000
-13.797000 0.000000
-13.731000 0.000000
-13.665000 0.000000
-13.599000 0.000000
-13.532900 0.000000
-13.466900 0.000000
-13.400900 0.000000
-13.334900 0.000000
-13.268900 0.000000
-13.202800 0.000000
-13.136800 0.000000
-13.070800 0.362900
-13.004800 0.322100
-12.938700 0.478800
-12.872700 0.704500
-12.806700 0.809900
-12.740700 1.005300
-12.674700 1.241100
-12.608600 1.630500
-12.542600 2.075900
-12.476600 2.806300
-12.410600 4.078100
-12.344600 5.981500
-12.278500 6.917800
-12.212500 1.848200
-12.146500 0.137800
-12.080500 0.000000
-12.014500 0.000000
-11.948400 0.000000
-11.882400 0.000000
-11.816400 0.000000
-11.750400 0.000000
-11.684300 0.000000
-11.618300 0.000000
-11.552300 0.000000
-11.486300 0.000000
-11.420300 0.000000
-11.354200 0.000000
-11.288200 0.000000
-11.222200 0.000000
-11.156200 0.000000
-11.090200 0.000000
-11.024100 0.000000
-10.958100 0.000000
-10.892100 0.000000
-10.826100 0.000000
-10.760000 0.000000
-10.694000 0.000000
-10.628000 0.000000
-10.562000 0.000000
-10.496000 0.000000
-10.429900 0.000000
-10.363900 0.000000
-10.297900 0.000000
-10.231900 0.000000
-10.165900 0.000000
-10.099800 0.000000
-10.033800 0.253100
-9.967800 0.754100
-9.901800 0.983300
-9.835800 1.235400
-9.769700 2.136400
-9.703700 2.257700
-9.637700 2.593100
-9.571700 2.873600
-9.505600 3.258900
-9.439600 4.391600
-9.373600 6.289700
-9.307600 7.935400
-9.241600 8.688700
-9.175500 7.534200
-9.109500 7.770900
-9.043500 7.279300
-8.977500 12.184500
-8.911500 5.460100
-8.845400 2.887400
-8.779400 1.185200
-8.713400 0.842300
-8.647400 0.439400
-8.581400 0.290900
-8.515300 0.020700
-8.449300 0.000000
-8.383300 0.000000
-8.317300 0.000000
-8.251200 0.000000
-8.185200 0.000000
-8.119200 0.000000
-8.053200 0.000000
-7.987200 0.000000
-7.921100 0.000000
-7.855100 0.000000
-7.789100 0.000000
-7.723100 0.000000
-7.657100 0.000000
-7.591000 0.000000
-7.525000 0.000000
-7.459000 0.000000
-7.393000 0.000000
-7.326900 0.000000
-7.260900 0.000000
-7.194900 0.000000
-7.128900 0.000000
-7.062900 0.000000
-6.996800 0.000000
-6.930800 0.000000
-6.864800 0.000000
-6.798800 0.000000
-6.732800 0.000000
-6.666700 0.000000
-6.600700 0.000000
-6.534700 0.000000
-6.468700 0.000000
-6.402700 0.000000
-6.336600 0.000000
-6.270600 0.000000
-6.204600 0.000000
-6.138600 0.000000
-6.072500 0.000000
-6.006500 0.000000
-5.940500 0.000000
-5.874500 0.000000
-5.808500 0.000000
-5.742400 0.000000
-5.676400 0.000000
-5.610400 0.000000
-5.544400 0.000000
-5.478400 0.000000
-5.412300 0.000000
-5.346300 0.000000
-5.280300 0.000000
-5.214300 0.000000
-5.148300 0.000000
-5.082200 0.000000
-5.016200 0.000000
-4.950200 0.000000
-4.884200 0.000000
-4.818100 0.000000
-4.752100 0.000000
-4.686100 0.000000
-4.620100 0.000000
-4.554100 0.000000
-4.488000 0.000000
-4.422000 0.000000
-4.356000 0.000000
-4.290000 0.000000
-4.224000 0.000000
-4.157900 0.000000
-4.091900 0.000000
-4.025900 0.000000
-3.959900 0.000000
-3.893900 0.000000
-3.827800 0.002900
-3.761800 0.053500
-3.695800 0.252500
-3.629800 0.399100
-3.563700 0.516200
-3.497700 0.928000
-3.431700 0.911400
-3.365700 1.093400
-3.299700 1.442400
-3.233600 2.010600
-3.167600 2.232000
-3.101600 2.464200
-3.035600 2.538600
-2.969600 2.966600
-2.903500 3.125500
-2.837500 3.937100
-2.771500 4.858700
-2.705500 0.203300
-2.639400 0.000000
-2.573400 0.000000
-2.507400 0.000000
-2.441400 0.000000
-2.375400 0.000000
-2.309300 0.000000
-2.243300 0.869700
-2.177300 2.460900
-2.111300 5.042400
-2.045300 4.472200
-1.979200 3.904600
-1.913200 3.489100
-1.847200 3.154600
-1.781200 2.996300
-1.715200 2.854600
-1.649100 2.821900
-1.583100 2.830400
-1.517100 2.864200
-1.451100 2.906700
-1.385000 4.377700
-1.319000 4.481100
-1.253000 4.545500
-1.187000 3.369900
-1.121000 1.720700
-1.054900 0.957600
-0.988900 0.425100
-0.922900 0.046700
-0.856900 0.000000
-0.790900 0.000000
-0.724800 0.000000
-0.658800 0.000000
-0.592800 0.000000
-0.526800 0.000000
-0.460800 0.000000
-0.394700 0.000000
-0.328700 0.000000
-0.262700 0.000000
-0.196700 0.000000
-0.130600 0.000000
-0.064600 0.000000
0.001400 0.000000
0.067400 0.000000
0.133400 0.000000
0.199500 0.023300
0.265500 0.101300
0.331500 0.220600
0.397500 0.294600
0.463500 0.383400
0.529600 0.760800
0.595600 0.557100
0.661600 0.635200
0.727600 0.724300
0.793600 0.829100
0.859700 0.947700
0.925700 1.327900
0.991700 1.291100
1.057700 1.565000
1.123800 1.502700
1.189800 1.700800
1.255800 1.769800
1.321800 1.894100
1.387800 2.044500
1.453900 2.260200
1.519900 2.511600
1.585900 2.760300
1.651900 3.470700
1.717900 4.303800
1.784000 5.033100
1.850000 6.350800
1.916000 5.675500
1.982000 5.591500
2.048100 2.466500
2.114100 1.299500
2.180100 0.000000
2.246100 0.000000
2.312100 0.000000
2.378200 0.000000
2.444200 0.000000
2.510200 0.000000
2.576200 0.000000
2.642200 0.000000
2.708300 0.000000
2.774300 0.000000
2.840300 0.000000
2.906300 0.000000
2.972300 0.000000
3.038400 0.000000
3.104400 0.000000
3.170400 0.000000
3.236400 0.000000
3.302500 0.000000
3.368500 0.000000
3.434500 0.000000
3.500500 0.000000
3.566500 0.000000
3.632600 0.000000
3.698600 0.000000
3.764600 0.000000
3.830600 0.000000
3.896600 0.000000
3.962700 0.000000
4.028700 0.000000
4.094700 0.000000
4.160700 0.000000
4.226700 0.000000
4.292800 0.000000
4.358800 0.000000
4.424800 0.000000
4.490800 0.004200
4.556900 0.015800
4.622900 0.030900
4.688900 0.049300
4.754900 0.071200
4.820900 0.096900
4.887000 0.127100
4.953000 0.163200
5.019000 0.198700
5.085000 0.272500
5.151000 0.397900
5.217100 0.787800
5.283100 1.444000
5.349100 1.902000
5.415100 2.042000
5.481200 2.141800
5.547200 2.049200
5.613200 1.858500
5.679200 1.724300
5.745200 1.608600
5.811300 1.526700
5.877300 1.495100
5.943300 1.499100
6.009300 1.602100
6.075300 1.693000
6.141400 1.678400
6.207400 1.613200
6.273400 1.768300
6.339400 1.614400
6.405400 1.505900
6.471500 1.797100
6.537500 1.532900
6.603500 1.112500
6.669500 0.859600
6.735600 0.719800
6.801600 0.667800
6.867600 0.670800
6.933600 0.699900
6.999600 0.760000
7.065700 0.838700
7.131700 1.114700
7.197700 1.206500
7.263700 1.269000
7.329700 1.322700
7.395800 1.388300
7.461800 1.272800
7.527800 1.235000
7.593800 1.295600
7.659800 1.460300
7.725900 1.764400
7.791900 2.376100
7.857900 4.741900
7.923900 4.513600
7.990000 3.646300
8.056000 3.309000
8.122000 3.112400
8.188000 2.551700
8.254000 2.078400
8.320100 0.973100
8.386100 0.866100
8.452100 0.815700
8.518100 0.800600
8.584100 2.009400
8.650200 1.911000
8.716200 1.823200
8.782200 1.700800
8.848200 1.956900
8.914200 2.813800
8.980300 3.866200
9.046300 4.002300
9.112300 4.484300
9.178300 4.754100
9.244400 5.932100
9.310400 3.533900
9.376400 2.270100
9.442400 2.184700
9.508400 2.208400
9.574500 2.660200
9.640500 2.918900
9.706500 2.897500
9.772500 2.745800
9.838500 2.178000
9.904600 1.946200
9.970600 1.834900
10.036600 1.709900
10.102600 1.680300
10.168700 1.611100
10.234700 1.593100
10.300700 1.505700
10.366700 1.565200
10.432700 1.574800
10.498800 1.664800
10.564800 1.758500
10.630800 1.826400
10.696800 2.004000
10.762800 2.408600
10.828900 2.105800
10.894900 2.115800
10.960900 2.303600
11.026900 2.155800
11.092900 2.045100
11.159000 1.933100
11.225000 1.730200
11.291000 1.476700
11.357000 1.326900
11.423100 1.220200
11.489100 1.147400
11.555100 1.084900
11.621100 0.746900
11.687100 0.781400
11.753200 0.806200
11.819200 0.795200
11.885200 0.822700
11.951200 0.849900
12.017200 0.876700
12.083300 0.903100
12.149300 0.929100
12.215300 0.954700
12.281300 1.127700
12.347300 1.110500
12.413400 1.132000
12.479400 1.172400
12.545400 1.104600
12.611400 1.102800
12.677500 1.088000
12.743500 1.066100
12.809500 1.007900
12.875500 0.919800
12.941500 0.801600
13.007600 0.659800
13.073600 0.446700
13.139600 0.358300
13.205600 0.310200
13.271600 0.312500
13.337700 0.326000
13.403700 0.426500
13.469700 0.587000
13.535700 0.786300
13.601700 1.032300
13.667800 1.183100
13.733800 1.236600
13.799800 1.348100
13.865800 0.964700
13.931900 0.981100
13.997900 1.015900
14.063900 1.054200
14.129900 1.099900
14.195900 1.282700
14.262000 1.275900
14.328000 1.235300
14.394000 1.221400
14.460000 1.205400
14.526000 1.169800
14.592100 1.125300
14.658100 1.108500
14.724100 1.082900
14.790100 1.061400
14.856200 1.069800
14.922200 1.158200
14.988200 1.184100
15.054200 1.106400
15.120200 1.070000
15.186300 1.076700
15.252300 1.093300
15.318300 1.111100
15.384300 1.123700
15.450300 1.112400
15.516400 1.133700
15.582400 1.222400
15.648400 1.356500
15.714400 1.528700
15.780400 1.822200
15.846500 2.184900
15.912500 2.386300
15.978500 1.739600
16.044500 1.154200
16.110600 0.985500
16.176600 1.014100
16.242600 1.020900
16.308600 1.075500
16.374600 1.171200
16.440700 1.286800
16.506700 1.387700
16.572700 1.492100
16.638700 1.599500
16.704700 1.690600
16.770800 2.025200
16.836800 1.769600
16.902800 1.673700
16.968800 1.599500
17.034800 1.445000
17.100900 1.159800
17.166900 1.104100
17.232900 1.064300
17.298900 1.028700
17.365000 0.990000
17.431000 0.934400
17.497000 0.892900
17.563000 0.853200
17.629000 0.825900
17.695100 0.813900
17.761100 0.803900
17.827100 0.796200
17.893100 0.790600
17.959100 0.787500
18.025200 0.787200
18.091200 0.851200
18.157200 1.228300
18.223200 1.002100
18.289300 1.091200
18.355300 1.190300
18.421300 1.290200
18.487300 1.376500
18.553300 1.481000
18.619400 1.652600
18.685400 1.935600
18.751400 2.388800
18.817400 2.751100
18.883400 2.764500
18.949500 2.489800
19.015500 2.150700
19.081500 1.850500
19.147500 1.565700
19.213500 1.306200
19.279600 1.080300
19.345600 0.923300
19.411600 0.935100
19.477600 1.005500
19.543700 1.507500
19.609700 1.713400
19.675700 1.742300
19.741700 1.869100
19.807700 1.950000
19.873800 2.096200
19.939800 3.077400
20.005800 3.037800
20.071800 2.574600
20.137800 2.013200
20.203900 1.314500
20.269900 0.835000
20.335900 0.703900
20.401900 0.910500
20.467900 1.113400
20.534000 1.453900
20.600000 1.779600
20.666000 2.092700
20.732000 2.562400
20.798100 2.604700
20.864100 2.425300
20.930100 2.265900
20.996100 2.081700
21.062100 2.067900
21.128200 2.011800
21.194200 2.083500
21.260200 1.897300
21.326200 1.856200
21.392200 1.874200
21.458300 1.645200
21.524300 1.572600
21.590300 1.778100
21.656300 1.901100
21.722300 2.258500
21.788400 2.125700
21.854400 2.158300
21.920400 2.232300
21.986400 2.291300
22.052500 2.568900
22.118500 2.515800
22.184500 2.477900
22.250500 2.407500
22.316500 2.285400
22.382600 2.061400
22.448600 2.041200
22.514600 2.277500
22.580600 2.795400
22.646600 3.713300
22.712700 3.614200
22.778700 3.176400
22.844700 2.915000
22.910700 2.804400
22.976800 2.697000
23.042800 2.915400
23.108800 3.026300
23.174800 2.671100
23.240800 2.617700
23.306900 2.494500
23.372900 2.627600
23.438900 2.822800
23.504900 2.788700
23.570900 2.280000
23.637000 1.897800
23.703000 1.708400
23.769000 1.775000
23.835000 1.481500
23.901000 1.323700
23.967100 1.209600
24.033100 1.112300
24.099100 1.087300
24.165100 1.085700
24.231200 1.239300
24.297200 1.278000
24.363200 1.362900
24.429200 1.470100
24.495200 1.631700
24.561300 2.343000
24.627300 1.452000
24.693300 1.622300
24.759300 1.833500
24.825300 1.968000
24.891400 2.145400
24.957400 2.112100
25.023400 2.162200
25.089400 1.849100
25.155400 1.633000
25.221500 1.851300
25.287500 1.940000
25.353500 1.271300
25.419500 1.601000
25.485600 2.668000
25.551600 2.532000
25.617600 2.473700
25.683600 2.404500
25.749600 2.332000
25.815700 2.254000
25.881700 2.220200
25.947700 2.252500
26.013700 2.439100
26.079700 2.414100
26.145800 2.185900
26.211800 2.029300
26.277800 1.871000
26.343800 1.760100
26.409800 1.731000
26.475900 1.660600
26.541900 1.662000
26.607900 1.652000
26.673900 1.717300
26.740000 1.729500
26.806000 1.739500
26.872000 1.734700
26.938000 1.699400
27.004000 1.644900
27.070100 1.602500
27.136100 1.558700
27.202100 1.673700
27.268100 1.645600
27.334100 1.732100
27.400200 1.859500
27.466200 1.901900
27.532200 1.867400
27.598200 1.775300
27.664300 1.746700
27.730300 1.712100
27.796300 1.651500
27.862300 1.618700
27.928300 1.605000
27.994400 1.561300
28.060400 1.551500
28.126400 1.571000
28.192400 1.514400
28.258400 1.582800
28.324500 1.666100
28.390500 1.832000
28.456500 2.159400
28.522500 2.006100
28.588500 2.315200
28.654600 2.504600
28.720600 2.581200
28.786600 2.492300
28.852600 2.270700
28.918700 2.174200
28.984700 1.933400
29.050700 1.904800
29.116700 1.926700
29.182700 2.135700
29.248800 2.219700
29.314800 2.316400
29.380800 2.285700
29.446800 2.264300
29.512800 2.384700
29.578900 2.406100
29.644900 2.340200
29.710900 2.171300
29.776900 1.997800
29.842900 1.900800
29.909000 1.817300
29.975000 1.814600
30.041000 1.862500
30.107000 1.820100
30.173100 1.784300
30.239100 1.763200
30.305100 1.849700
30.371100 1.909100
30.437100 1.924400
30.503200 2.104400
30.569200 2.165500
30.635200 2.114800
30.701200 2.044300
30.767200 2.063600
30.833300 1.998600
30.899300 2.232000
30.965300 2.561100
31.031300 2.857100
31.097400 2.624200
31.163400 2.544500
31.229400 2.566600
31.295400 2.671400
31.361400 2.646200
31.427500 2.684900
31.493500 2.840700
31.559500 2.467000
31.625500 2.037900
31.691500 2.081900
31.757600 2.270600
31.823600 2.601800
31.889600 2.765800
31.955600 2.897000
32.021600 2.583900
32.087700 2.495500
32.153700 2.446400
32.219700 2.379500
32.285700 2.225600
32.351800 2.179400
32.417800 2.237000
32.483800 2.393600
32.549800 2.544400
32.615800 2.611800
32.681900 2.499400
32.747900 2.427000
32.813900 2.349600
32.879900 2.270900
32.945900 2.259300
33.012000 2.259900
33.078000 2.253200
33.144000 2.226100
33.210000 2.202100
33.276000 2.192400
33.342100 2.188100
33.408100 2.203300
33.474100 2.339100
33.540100 2.448700
33.606200 2.348200
33.672200 2.353300
33.738200 2.410800
33.804200 2.381500
33.870200 2.362700
33.936300 2.275300
34.002300 2.302800
34.068300 2.377000
34.134300 2.356600
34.200300 2.526700
34.266400 2.711900
34.332400 2.963700
34.398400 3.339500
34.464400 3.144700
34.530400 3.238000
34.596500 3.173700
34.662500 2.816500
34.728500 2.352200
34.794500 2.044300
34.860600 1.964700
34.926600 2.020400
34.992600 2.283500
35.058600 2.505000
35.124600 2.346900
35.190700 2.079100
35.256700 2.111200
35.322700 2.337900
35.388700 2.592200
35.454700 2.811300
35.520800 2.908300
35.586800 2.801500
35.652800 2.600100
35.718800 2.626000
35.784900 2.420500
35.850900 2.209000
35.916900 1.932700
35.982900 2.331800
36.048900 3.168000
36.115000 2.995900
36.181000 2.632900
36.247000 2.695100
36.313000 2.665400
36.379000 2.473200
36.445100 2.194600
36.511100 2.096100
36.577100 2.041600
36.643100 2.013700
36.709100 2.114400
36.775200 2.477600
36.841200 2.512700
36.907200 2.387500
36.973200 2.406100
37.039300 2.535000
37.105300 2.126800
37.171300 2.010600
37.237300 2.318600
37.303300 2.289100
37.369400 2.217500
37.435400 2.165800
37.501400 2.125800
37.567400 2.183300
37.633400 2.228600
37.699500 2.268100
37.765500 2.373300
37.831500 2.477500
37.897500 2.541900
37.963500 2.673400
38.029600 2.696000
38.095600 2.635200
38.161600 2.562900
38.227600 2.433100
38.293700 2.449300
38.359700 2.774500
38.425700 2.950100
38.491700 2.737500
38.557700 2.586000
38.623800 2.445100
38.689800 2.393100
38.755800 2.322200
38.821800 2.235700
38.887800 2.184000
38.953900 2.088200
39.019900 2.062100
39.085900 2.069200
39.151900 2.097200
39.217900 2.236500
39.284000 1.927600
39.350000 1.903400
39.416000 1.893000
39.482000 1.863600
39.548100 1.839300
39.614100 1.877900
39.680100 1.909600
39.746100 1.972000
39.812100 1.963800
39.878200 1.900800
39.944200 1.838900
40.010200 1.796900
40.076200 1.766200
40.142200 1.695900
40.208300 1.704100
40.274300 1.729500
40.340300 1.772100
40.406300 1.784800
40.472400 1.830700
40.538400 1.876700
40.604400 1.924500
40.670400 1.975100
40.736400 2.029800
40.802500 2.072600
40.868500 2.130400
40.934500 2.260600
41.000500 2.384000
41.066500 2.493700
41.132600 2.441100
41.198600 2.407100
41.264600 2.188400
41.330600 2.084700
41.396600 2.038300
41.462700 2.094500
41.528700 2.203900
41.594700 2.391700
41.660700 2.806300
41.726800 3.338000
41.792800 3.401700
41.858800 3.012100
41.924800 2.401500
41.990800 2.203500
42.056900 2.101100
42.122900 2.018400
42.188900 2.316900
42.254900 2.566500
42.320900 2.763300
42.387000 2.831600
42.453000 2.626100
42.519000 2.644100
42.585000 2.644600
42.651000 2.673700
42.717100 2.724800
42.783100 2.775100
42.849100 2.823200
42.915100 2.983700
42.981200 2.986400
43.047200 2.960400
43.113200 2.971500
43.179200 2.839400
43.245200 2.628300
43.311300 2.518300
43.377300 2.352200
43.443300 2.354800
43.509300 2.478600
43.575300 2.546900
43.641400 2.608700
43.707400 2.634400
43.773400 2.888600
43.839400 2.769700
43.905500 2.583700
43.971500 2.569600
44.037500 2.557600
44.103500 2.426800
44.169500 2.051200
44.235600 2.038500
44.301600 2.079000
44.367600 2.186200
44.433600 2.272800
44.499600 2.342900
44.565700 2.531500
44.631700 2.526400
44.697700 2.370700
44.763700 2.599500
44.829700 2.772200
44.895800 2.917300
44.961800 3.094800
45.027800 2.940200
45.093800 2.993900
45.159900 3.039000
45.225900 2.832300
45.291900 2.602800
45.357900 2.612200
45.423900 2.534700
45.490000 2.587600
45.556000 2.540000
45.622000 2.140100
45.688000 1.832900
45.754000 1.631600
45.820100 1.537600
45.886100 1.536100
45.952100 1.574900
46.018100 1.809100
46.084100 1.841500
46.150200 1.852000
46.216200 2.046600
46.282200 2.155800
46.348200 2.146300
46.414300 2.239600
46.480300 2.409100
46.546300 2.371500
46.612300 2.327700
46.678300 2.282800
46.744400 2.111700
46.810400 2.057300
46.876400 2.085700
46.942400 2.145300
47.008400 2.335000
47.074500 2.615200
47.140500 3.173800
47.206500 2.750500
47.272500 2.796200
47.338500 2.932700
47.404600 3.054800
47.470600 3.038300
47.536600 3.015100
47.602600 2.878800
47.668700 2.845600
47.734700 2.879400
47.800700 2.972900
47.866700 3.156500
47.932700 3.347500
47.998800 3.514900
48.064800 3.074500
48.130800 2.534700
48.196800 2.428500
48.262800 2.489400
48.328900 3.061300
48.394900 2.968400
48.460900 2.977800
48.526900 3.017600
48.593000 3.042300
48.659000 3.122500
48.725000 3.131600
48.791000 3.955900
48.857000 3.564900
48.923100 3.916900
48.989100 4.049100
49.055100 3.900100
49.121100 3.670300
49.187100 3.052900
49.253200 2.845600
49.319200 3.300200
49.385200 3.565300
49.451200 3.511300
49.517200 3.333000
49.583300 3.119300
49.649300 3.083100
49.715300 2.374900
49.781300 2.326000
49.847400 2.596000
49.913400 2.520600
49.979400 2.652000
50.045400 2.965300
50.111400 3.211800
50.177500 2.959800
50.243500 2.868200
50.309500 2.778200
50.375500 2.785400
50.441500 2.637400
50.507600 2.588500
50.573600 2.768000
50.639600 2.696700
50.705600 3.079000
50.771600 3.006000
50.837700 2.729600
50.903700 2.699900
50.969700 2.731400
51.035700 3.023100
51.101800 3.076100
51.167800 3.505000
51.233800 3.278900
51.299800 2.956600
51.365800 2.725200
51.431900 2.682000
51.497900 2.826700
51.563900 3.198400
51.629900 3.291300
51.695900 3.356500
51.762000 3.921800
51.828000 3.738900
51.894000 3.487300
51.960000 2.572200
52.026000 2.536900
52.092100 2.634100
52.158100 2.603700
52.224100 2.570100
52.290100 2.649000
52.356200 2.497700
52.422200 2.447000
52.488200 2.351600
52.554200 2.234000
52.620200 2.260700
52.686300 2.483800
52.752300 2.773600
52.818300 2.781200
52.884300 2.970600
52.950300 2.977200
53.016400 2.782700
53.082400 2.642400
53.148400 2.599500
53.214400 2.654600
53.280500 2.654400
53.346500 2.698500
53.412500 2.645300
53.478500 2.674700
53.544500 2.693500
53.610600 2.706000
53.676600 2.709700
53.742600 2.741200
53.808600 2.807000
53.874600 2.851800
53.940700 2.972600
54.006700 3.135100
54.072700 3.066300
54.138700 2.933900
54.204700 2.732000
54.270800 2.581300
54.336800 2.546600
54.402800 2.561900
54.468800 2.648900
54.534900 2.876200
54.600900 2.895300
54.666900 2.870300
54.732900 2.824700
54.798900 2.744800
54.865000 3.021300
54.931000 2.819900
54.997000 2.652600
55.063000 2.631200
55.129000 2.706800
55.195100 2.950800
55.261100 2.728500
55.327100 2.626100
55.393100 2.646700
55.459100 2.671100
55.525200 2.689600
55.591200 2.845800
55.657200 3.265900
55.723200 4.018300
55.789300 4.649300
55.855300 3.771200
55.921300 3.254900
55.987300 2.858100
56.053300 2.660000
56.119400 2.650900
56.185400 2.595000
56.251400 2.496400
56.317400 2.412100
56.383400 2.376300
56.449500 2.437500
56.515500 2.540500
56.581500 2.708900
56.647500 2.769000
56.713600 2.943600
56.779600 2.972200
56.845600 2.849700
56.911600 2.701900
56.977600 2.590100
57.043700 2.491200
57.109700 2.324200
57.175700 2.414500
57.241700 2.560100
57.307700 2.654200
57.373800 3.020600
57.439800 3.149100
57.505800 3.228500
57.571800 3.374300
57.637800 3.485900
57.703900 3.583000
57.769900 3.357100
57.835900 3.208900
57.901900 3.045300
57.968000 2.974600
58.034000 2.862900
58.100000 2.760300
58.166000 2.665200
58.232000 2.679200
58.298100 2.634200
58.364100 2.607600
58.430100 2.558900
58.496100 2.633100
58.562100 2.628900
58.628200 2.636300
58.694200 3.061300
58.760200 2.816200
58.826200 2.867200
58.892200 2.901500
58.958300 2.920800
59.024300 2.823800
59.090300 2.684000
59.156300 2.447500
59.222400 2.492900
59.288400 2.628100
59.354400 2.659800
59.420400 2.736500
59.486400 2.782900
59.552500 2.779400
59.618500 2.683200
59.684500 2.877100
59.750500 3.208300
59.816500 3.081000
59.882600 2.885400
59.948600 2.757100
60.014600 2.502800
60.080600 2.329500
60.146600 2.268300
60.212700 2.458400
60.278700 2.628300
60.344700 2.817800
60.410700 2.943800
60.476800 3.048800
60.542800 2.935100
60.608800 2.933000
60.674800 3.076500
60.740800 3.233600
60.806900 3.230600
60.872900 3.090500
60.938900 2.981300
61.004900 2.924600
61.070900 2.820200
61.137000 3.159700
61.203000 3.314100
61.269000 3.229400
61.335000 2.935900
61.401100 2.958400
61.467100 3.016200
61.533100 2.992200
61.599100 2.992500
61.665100 3.054900
61.731200 3.214300
61.797200 3.404700
61.863200 3.663900
61.929200 3.222400
61.995200 3.118600
62.061300 3.069600
62.127300 2.600100
62.193300 2.368600
62.259300 2.435200
62.325300 2.764900
62.391400 2.829900
62.457400 2.622800
62.523400 2.664000
62.589400 2.678400
62.655500 2.683200
62.721500 2.680700
62.787500 2.649600
62.853500 2.863600
62.919500 2.928800
62.985600 2.815100
63.051600 2.651100
63.117600 2.163100
63.183600 2.499100
63.249600 2.911100
63.315700 3.271200
63.381700 3.314000
63.447700 2.831000
63.513700 2.816000
63.579700 2.852300
63.645800 3.002800
63.711800 2.899400
63.777800 3.624700
63.843800 3.246600
63.909900 3.189500
63.975900 3.303900
64.041900 3.560100
64.107900 3.706900
64.173900 4.040500
64.240000 4.841500
64.306000 4.499000
64.372000 2.932300
64.438000 2.535500
64.504000 2.739200
64.570100 3.266400
64.636100 4.073200
64.702100 4.274500
64.768100 3.999900
64.834100 4.223300
64.900200 4.132400
64.966200 3.850400
65.032200 3.830700
65.098200 3.885800
65.164300 3.807300
65.230300 3.260500
65.296300 2.998500
65.362300 2.907800
65.428300 2.655900
65.494400 2.416900
65.560400 2.679200
65.626400 2.276000
65.692400 2.163000
65.758400 2.317300
65.824500 2.536600
65.890500 2.950200
65.956500 3.250500
66.022500 3.442500
66.088600 3.416200
66.154600 3.477000
66.220600 3.507200
66.286600 3.191600
66.352600 3.061500
66.418700 2.941200
66.484700 2.851200
66.550700 2.913200
66.616700 3.076800
66.682700 3.383500
66.748800 3.451000
66.814800 3.492600
66.880800 3.404200
66.946800 3.170700
67.012800 2.968000
67.078900 2.988100
67.144900 2.680500
67.210900 2.438300
67.276900 2.255500
67.343000 2.234800
67.409000 2.270700
67.475000 2.373100
67.541000 2.444100
67.607000 2.578200
67.673100 2.753700
67.739100 2.972900
67.805100 3.464900
67.871100 4.205200
67.937100 4.661100
68.003200 4.554200
68.069200 4.448000
68.135200 4.550300
68.201200 4.259900
68.267200 3.495900
68.333300 3.534000
68.399300 3.516300
68.465300 3.795500
68.531300 4.345600
68.597400 3.021800
68.663400 2.931500
68.729400 2.868500
68.795400 2.818200
68.861400 2.742900
68.927500 2.987700
68.993500 2.726400
69.059500 2.659600
69.125500 2.724200
69.191500 2.716000
69.257600 2.771300
69.323600 2.859800
69.389600 2.946700
69.455600 3.026400
69.521700 3.063900
69.587700 3.071300
69.653700 3.118000
69.719700 3.123500
69.785700 3.129800
69.851800 2.994000
69.917800 2.808700
69.983800 2.656100
70.049800 2.553900
70.115800 2.471800
70.181900 2.438400
70.247900 2.499800
70.313900 2.835500
70.379900 2.998900
70.445900 2.917900
70.512000 2.861100
70.578000 2.851800
70.644000 3.270200
70.710000 2.844900
70.776100 2.900400
70.842100 2.964900
70.908100 3.084500
70.974100 3.042100
71.040100 2.997000
71.106200 2.689900
71.172200 2.593300
71.238200 2.477800
71.304200 2.400200
71.370200 2.328200
71.436300 2.247300
71.502300 2.220100
71.568300 2.271700
71.634300 2.379800
71.700300 2.585300
71.766400 2.806900
71.832400 2.861700
71.898400 3.013000
71.964400 3.117800
72.030500 3.396400
72.096500 3.969800
72.162500 3.950100
72.228500 3.801500
72.294500 4.083300
72.360600 3.967300
72.426600 3.587100
72.492600 3.254200
72.558600 3.114000
72.624600 3.048200
72.690700 3.026400
72.756700 2.973300
72.822700 2.886100
72.888700 2.923200
72.954700 3.285100
73.020800 3.376000
73.086800 3.563500
73.152800 3.829000
73.218800 4.359500
73.284900 3.986300
73.350900 3.765300
73.416900 3.598400
73.482900 3.376500
73.548900 3.373900
73.615000 3.435100
73.681000 3.510500
73.747000 3.527600
73.813000 3.418200
73.879000 3.236600
73.945100 3.234500
74.011100 3.060300
74.077100 3.510200
74.143100 4.166300
74.209200 3.160700
74.275200 3.124200
74.341200 3.142400
74.407200 3.203300
74.473200 3.642700
74.539300 3.492800
74.605300 2.939700
74.671300 2.923300
74.737300 3.334800
74.803300 3.421100
74.869400 3.609100
74.935400 3.484300
75.001400 3.326900
75.067400 3.050400
75.133400 2.903300
75.199500 2.934100
75.265500 2.855800
75.331500 2.880300
75.397500 2.903900
75.463600 3.116700
75.529600 3.045200
75.595600 3.127600
75.661600 3.056600
75.727600 2.867100
75.793700 2.677400
75.859700 2.477300
75.925700 2.641700
75.991700 2.862100
76.057700 3.106600
76.123800 3.188400
76.189800 3.223100
76.255800 3.324100
76.321800 3.355600
76.387800 3.395100
76.453900 3.422900
76.519900 3.209100
76.585900 3.117500
76.651900 2.997800
76.718000 2.953500
76.784000 2.945200
76.850000 3.088300
76.916000 3.289400
76.982000 2.989900
77.048100 3.432900
77.114100 3.383000
77.180100 3.488000
77.246100 2.989300
77.312100 2.898600
77.378200 2.833000
77.444200 2.792900
77.510200 2.754700
77.576200 2.811700
77.642300 2.990100
77.708300 3.287400
77.774300 3.377600
77.840300 3.299900
77.906300 3.281800
77.972400 3.264600
78.038400 3.518200
78.104400 4.550000
78.170400 3.942000
78.236400 3.664100
78.302500 3.558600
78.368500 3.649500
78.434500 3.550800
78.500500 3.206700
78.566500 2.749100
78.632600 2.545600
78.698600 2.507400
78.764600 2.493800
78.830600 2.546600
78.896700 2.435300
78.962700 2.531900
79.028700 2.712600
79.094700 3.041400
79.160700 3.262500
79.226800 3.419300
79.292800 3.800800
79.358800 3.315100
79.424800 2.946600
79.490800 3.297200
79.556900 3.568900
79.622900 3.676900
79.688900 3.710000
79.754900 3.812100
79.820900 3.562100
79.887000 3.566200
79.953000 3.753700
80.019000 3.494300
80.085000 3.336300
80.151100 3.285000
80.217100 3.345900
80.283100 3.552100
80.349100 3.608800
80.415100 3.796800
80.481200 3.771800
80.547200 3.667600
80.613200 3.607600
80.679200 3.781500
80.745200 3.895900
80.811300 3.802100
80.877300 3.848500
80.943300 3.328800
81.009300 3.278100
81.075300 3.309800
81.141400 3.369900
81.207400 3.429300
81.273400 3.696700
81.339400 3.774900
81.405500 3.535200
81.471500 3.896400
81.537500 3.592000
81.603500 2.949100
81.669500 2.910900
81.735600 2.900600
81.801600 2.971700
81.867600 3.530900
81.933600 3.402200
81.999600 3.303700
82.065700 3.250000
82.131700 3.393000
82.197700 2.915600
82.263700 2.836400
82.329800 2.863000
82.395800 2.886400
82.461800 3.131000
82.527800 3.078800
82.593800 3.225700
82.659900 3.231600
82.725900 3.243700
82.791900 3.268700
82.857900 3.521300
82.923900 3.515400
82.990000 3.526400
83.056000 3.582100
83.122000 3.576900
83.188000 3.680000
83.254000 3.785800
83.320100 3.714800
83.386100 3.481600
83.452100 3.551100
83.518100 3.749500
83.584200 4.040000
83.650200 3.770700
83.716200 3.691300
83.782200 3.716700
83.848200 3.784700
83.914300 3.675400
83.980300 3.563200
84.046300 3.253000
84.112300 3.532400
84.178300 3.478800
84.244400 3.295900
84.310400 3.278000
84.376400 3.295700
84.442400 3.288900
84.508400 3.253500
84.574500 3.337200
84.640500 3.277800
84.706500 3.391600
84.772500 3.311600
84.838600 3.274900
84.904600 3.229200
84.970600 3.177100
85.036600 3.177800
85.102600 3.241500
85.168700 3.324000
85.234700 3.319400
85.300700 3.519600
85.366700 3.599800
85.432700 3.655000
85.498800 3.714100
85.564800 3.816300
85.630800 3.620500
85.696800 3.448100
85.762800 3.206400
85.828900 3.178400
85.894900 3.207300
85.960900 3.383500
86.026900 3.545600
86.093000 3.549200
86.159000 3.367500
86.225000 3.306500
86.291000 3.193900
86.357000 3.196600
86.423100 3.195200
86.489100 3.192900
86.555100 3.223200
86.621100 3.306900
86.687100 3.376200
86.753200 3.325400
86.819200 3.302300
86.885200 3.080900
86.951200 3.062700
87.017300 3.127800
87.083300 3.001400
87.149300 3.066800
87.215300 3.070800
87.281300 3.100900
87.347400 3.135500
87.413400 3.194100
87.479400 3.286800
87.545400 3.434500
87.611400 3.442300
87.677500 3.466200
87.743500 3.517200
87.809500 3.593200
87.875500 3.660900
87.941500 3.445200
88.007600 3.255900
88.073600 3.131000
88.139600 3.134200
88.205600 3.133300
88.271700 3.141700
88.337700 3.099200
88.403700 3.044200
88.469700 2.980800
88.535700 2.957800
88.601800 2.981300
88.667800 3.120800
88.733800 3.615000
88.799800 3.301600
88.865800 3.404000
88.931900 3.574100
88.997900 3.711900
89.063900 3.874100
89.129900 3.732900
89.195900 3.799100
89.262000 3.865000
89.328000 3.852600
89.394000 3.793900
89.460000 3.834900
89.526100 3.833500
89.592100 4.287500
89.658100 4.359000
89.724100 4.188100
89.790100 3.770600
89.856200 3.627500
89.922200 3.587800
89.988200 3.625600
90.054200 3.734500
90.120200 3.785100
90.186300 3.747100
90.252300 4.098500
90.318300 3.970800
90.384300 4.078700
90.450400 4.040800
90.516400 4.050300
90.582400 4.163800
90.648400 4.135300
90.714400 4.038500
90.780500 3.903000
90.846500 3.959800
90.912500 4.035100
90.978500 3.936300
91.044500 3.854100
91.110600 3.932300
91.176600 3.737400
91.242600 3.629500
91.308600 3.606200
91.374600 3.588100
91.440700 3.591900
91.506700 3.393200
91.572700 4.485000
91.638700 3.869400
91.704800 3.794600
91.770800 3.649600
91.836800 3.335400
91.902800 3.282900
91.968800 3.489500
92.034900 3.569600
92.100900 3.473000
92.166900 3.380300
92.232900 3.376500
92.298900 3.452200
92.365000 3.590400
92.431000 3.719200
92.497000 3.916300
92.563000 3.814300
92.629000 3.674400
92.695100 3.653000
92.761100 3.338500
92.827100 3.217000
92.893100 3.167500
92.959200 3.241300
93.025200 3.322600
93.091200 3.117700
93.157200 3.018000
93.223200 3.013800
93.289300 3.044200
93.355300 3.196900
93.421300 3.334300
93.487300 3.533000
93.553300 3.682400
93.619400 3.868300
93.685400 3.923100
93.751400 3.814700
93.817400 3.640900
93.883400 3.337400
93.949500 3.240400
94.015500 3.097100
94.081500 2.886700
94.147500 2.456500
94.213600 2.298300
94.279600 2.198500
94.345600 2.177900
94.411600 1.900100
94.477600 1.717300
94.543700 1.599600
94.609700 1.517100
94.675700 1.444000
94.741700 1.277200
94.807700 1.125400
94.873800 0.964400
94.939800 0.817700
95.005800 0.689100
95.071800 0.566100
95.137900 0.448400
95.203900 0.372100
95.269900 0.306400
95.335900 0.272100
95.401900 0.140800
95.468000 0.118400
95.534000 0.097400
95.600000 0.077000
95.666000 0.057200
95.732000 0.038000
95.798100 0.019500
95.864100 0.001600
95.930100 0.000000
95.996100 0.000000
96.062100 0.000000
96.128200 0.000000
96.194200 0.000000
96.260200 0.000000
96.326200 0.000000
96.392300 0.000000
96.458300 0.000000
96.524300 0.000000
96.590300 0.000000
96.656300 0.000000
96.722400 0.000000
96.788400 0.000000
96.854400 0.000000
96.920400 0.000000
96.986400 0.000000
97.052500 0.000000
97.118500 0.000000
97.184500 0.000000
97.250500 0.000000
97.316500 0.000000
97.382600 0.000000
97.448600 0.000000
97.514600 0.000000
97.580600 0.000000
97.646700 0.000000
97.712700 0.000000
97.778700 0.000000
97.844700 0.000000
97.910700 0.000000
97.976800 0.000000
98.042800 0.000000
98.108800 0.000000
98.174800 0.000000
98.240800 0.000000
98.306900 0.000000
98.372900 0.000000
98.438900 0.000000
98.504900 0.000000
98.570900 0.000000
98.637000 0.000000
98.703000 0.000000
98.769000 0.000000
98.835000 0.000000
98.901100 0.000000
98.967100 0.000000
99.033100 0.000000
99.099100 0.000000
99.165100 0.000000
99.231200 0.000000
99.297200 0.000000
99.363200 0.000000
99.429200 0.000000
99.495200 0.000000
99.561300 0.000000
99.627300 0.000000
99.693300 0.000000
99.759300 0.000000
99.825400 0.000000
99.891400 0.000000
99.957400 0.000000
100.023400 0.000000
100.089400 0.000000
100.155500 0.000000
100.221500 0.000000
100.287500 0.000000
100.353500 0.000000
100.419500 0.000000
100.485600 0.000000
100.551600 0.000000
100.617600 0.000000
100.683600 0.000000
100.749600 0.000000
100.815700 0.000000
100.881700 0.000000
100.947700 0.000000
101.013700 0.000000
101.079800 0.000000
101.145800 0.000000
101.211800 0.000000
101.277800 0.000000
101.343800 0.000000
101.409900 0.000000
101.475900 0.000000
101.541900 0.000000
101.607900 0.000000
101.673900 0.000000
101.740000 0.000000
101.806000 0.000000
101.872000 0.000000
e
