set title 'mp-1183646 - Density of States'
set xlabel 'Energy (eV)'
set ylabel 'DOS (states/eV)'
set grid
set xrange [-10:10]
set yrange [0:51.575]
set xzeroaxis lt -1
set terminal png size 800,600
set output 'mp-1183646_dos_gnuplot.png'
plot '-' using 1:2 with lines title 'DOS'
-14.174600 0.000000
-14.153200 0.000000
-14.131900 0.000000
-14.110600 0.000000
-14.089200 0.000000
-14.067900 0.000000
-14.046500 0.000000
-14.025200 0.000000
-14.003800 0.000000
-13.982500 0.000000
-13.961100 0.000000
-13.939800 0.000000
-13.918400 0.000000
-13.897100 0.000000
-13.875700 0.000000
-13.854400 0.000000
-13.833100 0.000000
-13.811700 0.000000
-13.790400 0.000000
-13.769000 0.000000
-13.747700 0.000000
-13.726300 0.000000
-13.705000 0.000000
-13.683600 0.000000
-13.662300 0.000000
-13.640900 0.000000
-13.619600 0.000000
-13.598200 0.000000
-13.576900 0.000000
-13.555600 0.000000
-13.534200 0.000000
-13.512900 0.000000
-13.491500 0.000000
-13.470200 0.000000
-13.448800 0.000000
-13.427500 0.000000
-13.406100 0.000000
-13.384800 0.000000
-13.363400 0.000000
-13.342100 0.000000
-13.320700 0.000000
-13.299400 0.000000
-13.278100 0.000000
-13.256700 0.000000
-13.235400 0.000000
-13.214000 0.000000
-13.192700 0.000000
-13.171300 0.000000
-13.150000 0.000000
-13.128600 0.000000
-13.107300 0.000000
-13.085900 0.000000
-13.064600 0.000000
-13.043200 0.000000
-13.021900 0.000000
-13.000600 0.000000
-12.979200 0.000000
-12.957900 0.000000
-12.936500 0.000000
-12.915200 0.000000
-12.893800 0.000000
-12.872500 0.000000
-12.851100 0.000000
-12.829800 0.000000
-12.808400 0.000000
-12.787100 0.000000
-12.765700 0.000000
-12.744400 0.000000
-12.723100 0.000000
-12.701700 0.000000
-12.680400 0.000000
-12.659000 0.000000
-12.637700 0.000000
-12.616300 0.000000
-12.595000 0.000000
-12.573600 0.000000
-12.552300 0.000000
-12.530900 0.000000
-12.509600 0.000000
-12.488200 0.000000
-12.466900 0.000000
-12.445600 0.000000
-12.424200 0.000000
-12.402900 0.000000
-12.381500 0.000000
-12.360200 0.000000
-12.338800 0.000000
-12.317500 0.000000
-12.296100 0.000000
-12.274800 0.000000
-12.253400 0.000000
-12.232100 430.554100
-12.210700 156.721600
-12.189400 0.000000
-12.168100 0.000000
-12.146700 0.000000
-12.125400 0.000000
-12.104000 0.000000
-12.082700 0.000000
-12.061300 0.000000
-12.040000 0.000000
-12.018600 0.000000
-11.997300 0.000000
-11.975900 0.000000
-11.954600 0.000000
-11.933300 0.000000
-11.911900 0.000000
-11.890600 0.000000
-11.869200 0.000000
-11.847900 0.000000
-11.826500 0.000000
-11.805200 0.000000
-11.783800 0.000000
-11.762500 0.000000
-11.741100 0.000000
-11.719800 0.000000
-11.698400 0.000000
-11.677100 0.000000
-11.655800 0.000000
-11.634400 0.000000
-11.613100 0.000000
-11.591700 0.000000
-11.570400 0.000000
-11.549000 0.000000
-11.527700 0.000000
-11.506300 0.000000
-11.485000 0.000000
-11.463600 0.000000
-11.442300 0.000000
-11.420900 0.000000
-11.399600 0.000000
-11.378300 0.000000
-11.356900 0.000000
-11.335600 0.000000
-11.314200 0.000000
-11.292900 0.000000
-11.271500 0.000000
-11.250200 0.000000
-11.228800 0.000000
-11.207500 0.000000
-11.186100 0.000000
-11.164800 0.000000
-11.143400 0.000000
-11.122100 0.000000
-11.100800 0.000000
-11.079400 0.000000
-11.058100 0.000000
-11.036700 0.000000
-11.015400 0.000000
-10.994000 0.000000
-10.972700 0.000000
-10.951300 0.000000
-10.930000 0.000000
-10.908600 0.000000
-10.887300 0.000000
-10.865900 0.000000
-10.844600 0.000000
-10.823300 0.000000
-10.801900 0.000000
-10.780600 0.000000
-10.759200 0.000000
-10.737900 0.000000
-10.716500 0.000000
-10.695200 0.000000
-10.673800 0.000000
-10.652500 0.000000
-10.631100 0.000000
-10.609800 0.000000
-10.588400 0.000000
-10.567100 0.000000
-10.545800 0.000000
-10.524400 0.000000
-10.503100 0.000000
-10.481700 0.000000
-10.460400 0.000000
-10.439000 0.000000
-10.417700 0.000000
-10.396300 0.000000
-10.375000 0.000000
-10.353600 0.000000
-10.332300 0.000000
-10.310900 0.000000
-10.289600 0.000000
-10.268300 0.000000
-10.246900 0.000000
-10.225600 0.000000
-10.204200 0.000000
-10.182900 0.000000
-10.161500 0.000000
-10.140200 0.000000
-10.118800 0.000000
-10.097500 0.000000
-10.076100 0.000000
-10.054800 0.000000
-10.033400 0.000000
-10.012100 0.000000
-9.990800 0.000000
-9.969400 0.000000
-9.948100 0.000000
-9.926700 0.000000
-9.905400 0.000000
-9.884000 0.000000
-9.862700 0.000000
-9.841300 0.000000
-9.820000 0.000000
-9.798600 0.000000
-9.777300 0.000000
-9.755900 0.000000
-9.734600 0.000000
-9.713300 0.000000
-9.691900 0.000000
-9.670600 0.000000
-9.649200 0.000000
-9.627900 0.000000
-9.606500 0.000000
-9.585200 0.000000
-9.563800 0.000000
-9.542500 0.000000
-9.521100 0.000000
-9.499800 0.000000
-9.478400 0.000000
-9.457100 0.000000
-9.435800 0.000000
-9.414400 0.000000
-9.393100 0.000000
-9.371700 0.000000
-9.350400 0.000000
-9.329000 0.000000
-9.307700 0.000000
-9.286300 0.000000
-9.265000 0.000000
-9.243600 0.000000
-9.222300 0.000000
-9.200900 0.000000
-9.179600 0.000000
-9.158300 0.000000
-9.136900 0.000000
-9.115600 0.000000
-9.094200 0.000000
-9.072900 0.000000
-9.051500 0.000000
-9.030200 0.000000
-9.008800 0.000000
-8.987500 0.000000
-8.966100 0.000000
-8.944800 0.000000
-8.923400 0.000000
-8.902100 0.000000
-8.880800 0.000000
-8.859400 0.000000
-8.838100 0.000000
-8.816700 0.000000
-8.795400 0.000000
-8.774000 0.000000
-8.752700 0.000000
-8.731300 0.000000
-8.710000 0.000000
-8.688600 0.000000
-8.667300 0.000000
-8.645900 0.000000
-8.624600 0.000000
-8.603300 0.000000
-8.581900 0.000000
-8.560600 0.000000
-8.539200 0.000000
-8.517900 0.000000
-8.496500 0.000000
-8.475200 0.000000
-8.453800 0.000000
-8.432500 0.000000
-8.411100 0.000000
-8.389800 0.000000
-8.368400 0.000000
-8.347100 0.000000
-8.325800 0.000000
-8.304400 0.000000
-8.283100 0.000000
-8.261700 0.000000
-8.240400 0.000000
-8.219000 0.000000
-8.197700 0.000000
-8.176300 0.000000
-8.155000 0.000000
-8.133600 0.000000
-8.112300 0.000000
-8.090900 0.000000
-8.069600 0.000000
-8.048300 0.000000
-8.026900 0.000000
-8.005600 0.000000
-7.984200 0.000000
-7.962900 0.000000
-7.941500 0.000000
-7.920200 0.000000
-7.898800 0.000000
-7.877500 0.000000
-7.856100 0.000000
-7.834800 0.000000
-7.813400 0.000000
-7.792100 0.000000
-7.770800 0.000000
-7.749400 0.000000
-7.728100 0.000000
-7.706700 0.000000
-7.685400 0.000000
-7.664000 0.000000
-7.642700 0.000000
-7.621300 0.000000
-7.600000 0.000000
-7.578600 0.000000
-7.557300 0.000000
-7.536000 0.000000
-7.514600 0.000000
-7.493300 0.000000
-7.471900 0.000000
-7.450600 0.000000
-7.429200 0.000000
-7.407900 0.000000
-7.386500 0.000000
-7.365200 0.000000
-7.343800 0.000000
-7.322500 0.000000
-7.301100 0.000000
-7.279800 0.000000
-7.258500 0.000000
-7.237100 0.000000
-7.215800 0.000000
-7.194400 0.000000
-7.173100 0.000000
-7.151700 0.000000
-7.130400 0.000000
-7.109000 0.000000
-7.087700 0.000000
-7.066300 0.000000
-7.045000 0.000000
-7.023600 0.000000
-7.002300 0.000000
-6.981000 0.000000
-6.959600 0.174400
-6.938300 0.761400
-6.916900 0.983400
-6.895600 2.783800
-6.874200 6.174000
-6.852900 8.657500
-6.831500 9.797000
-6.810200 12.231500
-6.788800 16.419200
-6.767500 15.275800
-6.746100 12.479900
-6.724800 14.053200
-6.703500 16.795400
-6.682100 19.664100
-6.660800 22.473900
-6.639400 27.252400
-6.618100 27.829500
-6.596700 26.119500
-6.575400 23.392300
-6.554000 20.714500
-6.532700 21.868200
-6.511300 27.336800
-6.490000 30.639100
-6.468600 27.105200
-6.447300 23.994400
-6.426000 46.886300
-6.404600 30.057700
-6.383300 22.384700
-6.361900 22.512600
-6.340600 23.577400
-6.319200 19.944900
-6.297900 38.966900
-6.276500 24.406500
-6.255200 29.626400
-6.233800 24.971000
-6.212500 23.433900
-6.191100 21.435500
-6.169800 26.765100
-6.148500 27.985200
-6.127100 33.637700
-6.105800 31.526200
-6.084400 35.052800
-6.063100 41.142700
-6.041700 45.860100
-6.020400 34.506800
-5.999000 32.286600
-5.977700 30.021300
-5.956300 24.394800
-5.935000 22.596900
-5.913600 24.366100
-5.892300 26.368000
-5.871000 24.204900
-5.849600 25.081300
-5.828300 23.489600
-5.806900 27.116400
-5.785600 22.606000
-5.764200 27.484500
-5.742900 23.702300
-5.721500 15.768200
-5.700200 12.969100
-5.678800 11.598800
-5.657500 4.081700
-5.636100 2.483500
-5.614800 3.146900
-5.593500 2.931600
-5.572100 2.559000
-5.550800 2.313800
-5.529400 2.486100
-5.508100 2.188600
-5.486700 0.899400
-5.465400 0.628900
-5.444000 0.608000
-5.422700 0.591300
-5.401300 0.577200
-5.380000 0.565800
-5.358600 0.555300
-5.337300 0.551500
-5.316000 0.550000
-5.294600 0.550800
-5.273300 0.553700
-5.251900 0.558200
-5.230600 0.564100
-5.209200 0.570400
-5.187900 0.571000
-5.166500 0.575500
-5.145200 0.579200
-5.123800 0.582600
-5.102500 0.586700
-5.081100 0.591300
-5.059800 0.596100
-5.038500 0.601300
-5.017100 0.607700
-4.995800 0.614500
-4.974400 0.621500
-4.953100 0.629000
-4.931700 0.637000
-4.910400 0.645700
-4.889000 0.658300
-4.867700 0.669700
-4.846300 0.679800
-4.825000 0.688700
-4.803600 0.696300
-4.782300 0.702700
-4.761000 0.707800
-4.739600 0.711400
-4.718300 0.745400
-4.696900 0.722600
-4.675600 0.726800
-4.654200 0.730500
-4.632900 0.733700
-4.611500 0.736400
-4.590200 0.738700
-4.568800 0.740500
-4.547500 0.742600
-4.526100 0.744900
-4.504800 0.747600
-4.483500 0.750500
-4.462100 0.754200
-4.440800 0.758600
-4.419400 0.764100
-4.398100 0.770100
-4.376700 0.777700
-4.355400 0.788000
-4.334000 0.798400
-4.312700 0.809000
-4.291300 0.819400
-4.270000 0.832200
-4.248600 0.868500
-4.227300 0.887400
-4.206000 0.904300
-4.184600 0.919400
-4.163300 0.932900
-4.141900 0.944100
-4.120600 0.953100
-4.099200 0.960300
-4.077900 0.965100
-4.056500 0.967000
-4.035200 0.940700
-4.013800 0.926200
-3.992500 0.916200
-3.971100 0.905900
-3.949800 0.895400
-3.928500 0.958200
-3.907100 0.986400
-3.885800 0.997700
-3.864400 0.985700
-3.843100 0.942700
-3.821700 0.880400
-3.800400 0.844900
-3.779000 0.812800
-3.757700 0.783500
-3.736300 0.756800
-3.715000 0.732600
-3.693600 0.711200
-3.672300 0.698600
-3.651000 0.701600
-3.629600 0.702900
-3.608300 0.701300
-3.586900 0.690100
-3.565600 0.669100
-3.544200 0.642200
-3.522900 0.616900
-3.501500 0.609700
-3.480200 0.602900
-3.458800 0.595900
-3.437500 0.588600
-3.416100 0.582600
-3.394800 0.577500
-3.373500 0.572900
-3.352100 0.568200
-3.330800 0.563900
-3.309400 0.559300
-3.288100 0.554600
-3.266700 0.549600
-3.245400 0.544600
-3.224000 0.541900
-3.202700 0.540900
-3.181300 0.539700
-3.160000 0.538200
-3.138600 0.536300
-3.117300 0.534600
-3.096000 0.533900
-3.074600 0.533100
-3.053300 0.529700
-3.031900 0.537300
-3.010600 0.558900
-2.989200 0.594500
-2.967900 0.644200
-2.946500 0.707100
-2.925200 0.759300
-2.903800 0.775400
-2.882500 0.789500
-2.861200 0.811700
-2.839800 0.834100
-2.818500 0.857100
-2.797100 0.881600
-2.775800 0.972400
-2.754400 0.950400
-2.733100 0.994200
-2.711700 1.042700
-2.690400 1.098300
-2.669000 1.130700
-2.647700 1.158300
-2.626300 1.173300
-2.605000 1.169600
-2.583700 1.104100
-2.562300 1.041400
-2.541000 1.030700
-2.519600 1.029200
-2.498300 1.024700
-2.476900 1.017500
-2.455600 0.951200
-2.434200 0.908400
-2.412900 0.886900
-2.391500 0.878700
-2.370200 0.867700
-2.348800 0.858100
-2.327500 0.873900
-2.306200 0.871900
-2.284800 0.872900
-2.263500 0.876900
-2.242100 0.883200
-2.220800 0.890500
-2.199400 0.898800
-2.178100 0.907800
-2.156700 0.917600
-2.135400 0.928200
-2.114000 0.939500
-2.092700 0.951500
-2.071300 0.961500
-2.050000 0.964400
-2.028700 0.971600
-2.007300 0.980500
-1.986000 0.991500
-1.964600 1.004700
-1.943300 1.017100
-1.921900 1.028600
-1.900600 1.042800
-1.879200 1.059900
-1.857900 1.074500
-1.836500 1.084600
-1.815200 1.086400
-1.793800 1.085300
-1.772500 1.095000
-1.751200 1.102800
-1.729800 1.108700
-1.708500 1.119700
-1.687100 1.125100
-1.665800 1.124600
-1.644400 1.118400
-1.623100 1.107300
-1.601700 1.111800
-1.580400 1.117900
-1.559000 1.123500
-1.537700 1.128500
-1.516300 1.132700
-1.495000 1.135700
-1.473700 1.137200
-1.452300 1.136700
-1.431000 1.138600
-1.409600 1.142100
-1.388300 1.145900
-1.366900 1.149400
-1.345600 1.191700
-1.324200 1.187600
-1.302900 1.183600
-1.281500 1.179600
-1.260200 1.175900
-1.238800 1.173500
-1.217500 1.218900
-1.196200 1.213600
-1.174800 1.213900
-1.153500 1.209900
-1.132100 1.200700
-1.110800 1.186900
-1.089400 1.173900
-1.068100 1.161700
-1.046700 1.150200
-1.025400 1.163900
-1.004000 1.112100
-0.982700 1.079700
-0.961300 1.085500
-0.940000 1.092000
-0.918700 1.118500
-0.897300 1.125800
-0.876000 1.144700
-0.854600 1.156700
-0.833300 1.162500
-0.811900 1.169200
-0.790600 1.178700
-0.769200 1.187800
-0.747900 1.196600
-0.726500 1.205000
-0.705200 1.212900
-0.683800 1.214100
-0.662500 1.228000
-0.641200 1.227200
-0.619800 1.221200
-0.598500 1.215700
-0.577100 1.211000
-0.555800 1.206500
-0.534400 1.203200
-0.513100 1.202600
-0.491700 1.204700
-0.470400 1.211600
-0.449000 1.221700
-0.427700 1.233100
-0.406300 1.245700
-0.385000 1.259700
-0.363700 1.277400
-0.342300 1.300600
-0.321000 1.326200
-0.299600 1.404400
-0.278300 1.422500
-0.256900 1.443600
-0.235600 1.466900
-0.214200 1.501400
-0.192900 1.529000
-0.171500 1.551700
-0.150200 1.539200
-0.128800 1.575000
-0.107500 1.572800
-0.086200 1.570800
-0.064800 1.579500
-0.043500 1.610700
-0.022100 1.575900
-0.000800 1.505600
0.020600 1.463100
0.041900 1.437800
0.063300 1.417600
0.084600 1.399000
0.106000 1.383400
0.127300 1.368400
0.148700 1.352000
0.170000 1.338800
0.191300 1.332700
0.212700 1.329600
0.234000 1.292800
0.255400 1.270400
0.276700 1.246300
0.298100 1.219900
0.319400 1.193500
0.340800 1.172900
0.362100 1.158900
0.383500 1.150400
0.404800 1.139600
0.426200 1.176300
0.447500 1.126300
0.468800 1.105700
0.490200 1.109400
0.511500 1.112400
0.532900 1.095100
0.554200 1.082500
0.575600 1.044100
0.596900 1.023500
0.618300 1.007400
0.639600 0.994200
0.661000 0.983800
0.682300 0.970300
0.703700 0.973100
0.725000 0.981000
0.746300 0.994600
0.767700 1.004100
0.789000 1.025000
0.810400 1.049400
0.831700 1.075100
0.853100 1.097400
0.874400 1.122900
0.895800 1.159400
0.917100 1.198900
0.938500 1.267300
0.959800 1.349400
0.981200 1.409100
1.002500 1.436000
1.023800 1.448600
1.045200 1.488900
1.066500 1.514800
1.087900 1.526900
1.109200 1.526700
1.130600 1.522900
1.151900 1.531500
1.173300 1.553000
1.194600 1.567200
1.216000 1.599000
1.237300 1.629700
1.258700 1.659500
1.280000 1.675700
1.301300 1.646800
1.322700 1.632400
1.344000 1.625800
1.365400 1.626700
1.386700 1.621900
1.408100 1.612700
1.429400 1.603500
1.450800 1.603600
1.472100 1.617700
1.493500 1.632500
1.514800 1.663200
1.536200 1.669600
1.557500 1.640300
1.578800 1.589000
1.600200 1.553600
1.621500 1.563100
1.642900 1.522300
1.664200 1.496300
1.685600 1.476000
1.706900 1.457600
1.728300 1.452700
1.749600 1.454400
1.771000 1.460800
1.792300 1.467700
1.813600 1.481600
1.835000 1.498000
1.856300 1.515800
1.877700 1.520400
1.899000 1.531700
1.920400 1.738800
1.941700 1.504800
1.963100 1.510200
1.984400 1.520900
2.005800 1.524600
2.027100 1.526300
2.048500 1.529600
2.069800 1.539300
2.091100 1.488300
2.112500 1.483300
2.133800 1.473000
2.155200 1.453000
2.176500 1.447600
2.197900 1.441000
2.219200 1.434500
2.240600 1.430000
2.261900 1.424900
2.283300 1.418200
2.304600 1.412800
2.326000 1.409900
2.347300 1.409500
2.368600 1.411100
2.390000 1.401000
2.411300 1.387800
2.432700 1.382100
2.454000 1.386200
2.475400 1.381100
2.496700 1.375300
2.518100 1.372700
2.539400 1.371800
2.560800 1.367400
2.582100 1.368100
2.603500 1.374900
2.624800 1.387400
2.646100 1.401900
2.667500 1.414100
2.688800 1.424000
2.710200 1.423400
2.731500 1.431300
2.752900 1.441700
2.774200 1.459300
2.795600 1.463200
2.816900 1.510900
2.838300 1.469900
2.859600 1.470800
2.881000 1.481300
2.902300 1.493100
2.923600 1.503400
2.945000 1.514700
2.966300 1.529400
2.987700 1.553100
3.009000 1.585900
3.030400 1.618200
3.051700 1.653400
3.073100 1.694100
3.094400 1.743200
3.115800 1.782600
3.137100 1.809900
3.158500 1.844400
3.179800 1.849200
3.201100 1.828700
3.222500 1.818700
3.243800 1.808600
3.265200 1.798100
3.286500 1.786400
3.307900 1.776100
3.329200 1.775800
3.350600 1.803600
3.371900 1.805800
3.393300 1.809400
3.414600 1.808600
3.436000 1.802400
3.457300 1.793900
3.478600 1.778700
3.500000 1.760200
3.521300 1.738300
3.542700 1.723700
3.564000 1.689200
3.585400 1.665600
3.606700 1.648900
3.628100 1.635700
3.649400 1.626300
3.670800 1.629300
3.692100 1.599700
3.713500 1.581300
3.734800 1.566100
3.756100 1.553700
3.777500 1.548300
3.798800 1.545600
3.820200 1.545000
3.841500 1.592900
3.862900 1.570000
3.884200 1.567900
3.905600 1.559800
3.926900 1.548900
3.948300 1.522600
3.969600 1.506300
3.991000 1.491400
4.012300 1.500400
4.033600 1.497900
4.055000 1.499500
4.076300 1.503900
4.097700 1.506400
4.119000 1.505300
4.140400 1.479900
4.161700 1.482200
4.183100 1.485700
4.204400 1.489000
4.225800 1.492200
4.247100 1.495800
4.268500 1.500900
4.289800 1.510000
4.311100 1.537300
4.332500 1.551500
4.353800 1.565700
4.375200 1.581500
4.396500 1.598300
4.417900 1.615900
4.439200 1.630700
4.460600 1.649800
4.481900 1.675500
4.503300 1.704600
4.524600 1.739700
4.546000 1.782700
4.567300 1.807300
4.588600 1.834600
4.610000 1.856100
4.631300 1.864300
4.652700 1.867500
4.674000 1.872600
4.695400 1.867000
4.716700 1.847800
4.738100 1.820700
4.759400 1.790500
4.780800 1.770300
4.802100 1.751200
4.823500 1.733000
4.844800 1.723900
4.866100 1.733300
4.887500 1.748500
4.908800 1.744800
4.930200 1.735200
4.951500 1.726700
4.972900 1.717700
4.994200 1.707200
5.015600 1.722200
5.036900 1.664600
5.058300 1.650100
5.079600 1.638200
5.101000 1.628700
5.122300 1.634800
5.143600 1.642600
5.165000 1.703800
5.186300 1.709000
5.207700 1.726200
5.229000 1.751800
5.250400 1.774600
5.271700 1.795600
5.293100 1.816700
5.314400 1.844900
5.335800 1.877400
5.357100 1.896100
5.378500 1.932700
5.399800 1.941900
5.421100 1.953200
5.442500 1.916700
5.463800 1.931800
5.485200 1.942500
5.506500 1.953800
5.527900 1.970000
5.549200 2.014500
5.570600 2.036600
5.591900 2.052500
5.613300 2.077500
5.634600 2.107700
5.656000 2.175000
5.677300 2.177200
5.698600 2.160100
5.720000 2.149500
5.741300 2.143400
5.762700 2.137300
5.784000 2.129500
5.805400 2.109100
5.826700 2.077700
5.848100 2.040200
5.869400 2.011000
5.890800 1.988000
5.912100 1.931400
5.933500 1.877000
5.954800 1.826500
5.976100 1.769200
5.997500 1.704600
6.018800 1.656000
6.040200 1.603700
6.061500 1.567200
6.082900 1.533800
6.104200 1.487200
6.125600 1.480000
6.146900 1.412100
6.168300 1.415800
6.189600 1.436500
6.211000 1.499500
6.232300 1.533100
6.253600 1.531400
6.275000 1.547900
6.296300 1.573900
6.317700 1.604500
6.339000 1.657500
6.360400 1.698200
6.381700 1.737600
6.403100 1.740900
6.424400 1.771400
6.445800 1.798000
6.467100 1.797400
6.488400 1.803200
6.509800 1.819900
6.531100 1.836600
6.552500 1.856400
6.573800 1.953000
6.595200 1.869400
6.616500 1.882800
6.637900 1.897200
6.659200 1.914900
6.680600 1.934700
6.701900 1.950500
6.723300 1.961400
6.744600 1.967900
6.765900 1.972000
6.787300 2.013100
6.808600 2.009300
6.830000 2.003800
6.851300 1.996900
6.872700 2.003700
6.894000 2.076300
6.915400 2.071100
6.936700 2.054500
6.958100 1.968200
6.979400 1.972500
7.000800 1.916700
7.022100 2.053800
7.043400 2.045000
7.064800 2.060700
7.086100 2.085900
7.107500 2.131400
7.128800 2.175200
7.150200 2.208700
7.171500 2.251900
7.192900 2.288000
7.214200 2.305800
7.235600 2.320000
7.256900 2.330000
7.278300 2.329200
7.299600 2.336400
7.320900 2.328600
7.342300 2.302600
7.363600 2.299400
7.385000 2.298800
7.406300 2.316400
7.427700 2.359900
7.449000 2.364200
7.470400 2.339400
7.491700 2.312200
7.513100 2.265900
7.534400 2.212000
7.555800 2.152500
7.577100 2.124000
7.598400 2.138400
7.619800 2.197900
7.641100 2.269000
7.662500 2.243900
7.683800 2.253600
7.705200 2.250200
7.726500 2.241200
7.747900 2.216800
7.769200 2.208200
7.790600 2.211000
7.811900 2.173800
7.833300 2.167300
7.854600 2.192000
7.875900 2.217500
7.897300 2.249700
7.918600 2.315500
7.940000 2.334000
7.961300 2.340000
7.982700 2.353500
8.004000 2.365400
8.025400 2.334600
8.046700 2.298200
8.068100 2.257400
8.089400 2.209100
8.110800 2.154500
8.132100 2.088400
8.153400 2.049200
8.174800 2.049500
8.196100 2.068600
8.217500 2.097600
8.238800 2.109100
8.260200 2.115500
8.281500 2.117600
8.302900 2.115100
8.324200 2.117200
8.345600 2.134200
8.366900 2.171000
8.388300 2.232200
8.409600 2.229800
8.430900 2.215700
8.452300 2.199200
8.473600 2.122500
8.495000 2.153000
8.516300 2.182000
8.537700 2.200900
8.559000 2.213100
8.580400 2.231000
8.601700 2.253800
8.623100 2.277700
8.644400 2.305000
8.665800 2.315500
8.687100 2.342000
8.708400 2.368400
8.729800 2.387500
8.751100 2.393800
8.772500 2.421400
8.793800 2.437600
8.815200 2.464200
8.836500 2.520100
8.857900 2.420600
8.879200 2.352700
8.900600 2.295000
8.921900 2.251200
8.943300 2.218100
8.964600 2.177600
8.985900 2.144200
9.007300 2.128100
9.028600 2.125200
9.050000 2.132300
9.071300 2.142300
9.092700 2.152800
9.114000 2.183300
9.135400 2.393100
9.156700 2.364000
9.178100 2.318800
9.199400 2.281600
9.220800 2.246700
9.242100 2.220200
9.263400 2.198300
9.284800 2.234900
9.306100 2.279900
9.327500 2.331200
9.348800 2.357400
9.370200 2.357200
9.391500 2.319300
9.412900 2.281300
9.434200 2.232600
9.455600 2.231100
9.476900 2.196000
9.498300 2.163500
9.519600 2.141300
9.540900 2.130800
9.562300 2.122600
9.583600 2.146700
9.605000 2.173600
9.626300 2.206900
9.647700 2.245300
9.669000 2.189300
9.690400 2.212800
9.711700 2.238800
9.733100 2.226700
9.754400 2.233700
9.775800 2.242000
9.797100 2.274700
9.818400 2.306200
9.839800 2.318300
9.861100 2.316300
9.882500 2.335200
9.903800 2.370600
9.925200 2.352200
9.946500 2.348800
9.967900 2.346100
9.989200 2.345800
10.010600 2.347100
10.031900 2.334000
10.053300 2.320200
10.074600 2.314100
10.095900 2.314400
10.117300 2.313800
10.138600 2.312100
10.160000 2.328000
10.181300 2.315700
10.202700 2.299300
10.224000 2.274500
10.245400 2.247200
10.266700 2.221600
10.288100 2.205700
10.309400 2.191700
10.330800 2.178200
10.352100 2.175100
10.373400 2.186800
10.394800 2.234900
10.416100 2.225600
10.437500 2.200600
10.458800 2.193700
10.480200 2.187500
10.501500 2.179800
10.522900 2.170600
10.544200 2.160100
10.565600 2.147600
10.586900 2.135000
10.608300 2.126200
10.629600 2.139500
10.650900 2.161800
10.672300 2.159700
10.693600 2.133900
10.715000 2.145200
10.736300 2.161100
10.757700 2.157400
10.779000 2.155900
10.800400 2.222200
10.821700 2.236900
10.843100 2.238500
10.864400 2.228400
10.885700 2.213700
10.907100 2.201600
10.928400 2.176000
10.949800 2.152400
10.971100 2.155400
10.992500 2.172400
11.013800 2.195500
11.035200 2.219200
11.056500 2.264600
11.077900 2.217800
11.099200 2.187900
11.120600 2.183800
11.141900 2.165000
11.163200 2.154300
11.184600 2.146600
11.205900 2.140200
11.227300 2.240400
11.248600 2.166100
11.270000 2.166600
11.291300 2.179900
11.312700 2.176900
11.334000 2.145600
11.355400 2.089200
11.376700 2.026500
11.398100 1.969100
11.419400 1.914100
11.440700 1.887800
11.462100 1.872500
11.483400 1.859300
11.504800 1.841500
11.526100 1.785100
11.547500 1.750100
11.568800 1.737200
11.590200 1.723500
11.611500 1.710700
11.632900 1.703600
11.654200 1.693800
11.675600 1.665900
11.696900 1.636400
11.718200 1.608500
11.739600 1.602500
11.760900 1.593200
11.782300 1.583200
11.803600 1.574000
11.825000 1.565000
11.846300 1.566100
11.867700 1.581200
11.889000 1.603900
11.910400 1.625800
11.931700 1.640500
11.953100 1.640600
11.974400 1.621100
11.995700 1.612700
12.017100 1.612000
12.038400 1.615700
12.059800 1.624800
12.081100 1.620700
12.102500 1.624400
12.123800 1.627000
12.145200 1.632600
12.166500 1.635700
12.187900 1.669000
12.209200 1.701800
12.230600 1.752700
12.251900 1.789200
12.273200 1.817300
12.294600 1.856900
12.315900 1.890400
12.337300 1.909500
12.358600 1.935000
12.380000 1.938500
12.401300 1.924300
12.422700 1.917400
12.444000 1.914100
12.465400 1.917400
12.486700 1.931200
12.508100 1.927900
12.529400 1.966300
12.550700 2.015500
12.572100 2.062800
12.593400 2.118400
12.614800 2.172200
12.636100 2.200200
12.657500 2.194900
12.678800 2.194800
12.700200 2.199200
12.721500 2.199300
12.742900 2.213000
12.764200 2.216700
12.785600 2.207300
12.806900 2.213500
12.828200 2.208800
12.849600 2.214000
12.870900 2.224000
12.892300 2.239900
12.913600 2.255500
12.935000 2.262500
12.956300 2.268200
12.977700 2.282000
12.999000 2.308800
13.020400 2.347300
13.041700 2.339500
13.063100 2.275200
13.084400 2.223900
13.105700 2.160000
13.127100 2.120100
13.148400 2.076000
13.169800 2.051000
13.191100 2.023700
13.212500 2.001000
13.233800 2.006900
13.255200 2.017000
13.276500 2.003300
13.297900 1.993700
13.319200 2.004400
13.340600 2.078000
13.361900 2.083300
13.383200 2.082900
13.404600 2.019200
13.425900 2.025800
13.447300 2.046900
13.468600 2.072500
13.490000 2.094300
13.511300 2.109400
13.532700 2.116400
13.554000 2.118500
13.575400 2.120400
13.596700 2.127400
13.618100 2.142000
13.639400 2.152100
13.660700 2.165000
13.682100 2.203600
13.703400 2.256700
13.724800 2.320600
13.746100 2.385700
13.767500 2.463400
13.788800 2.593700
13.810200 2.696800
13.831500 2.755000
13.852900 2.813000
13.874200 2.855800
13.895600 2.895800
13.916900 2.901800
13.938200 2.890300
13.959600 2.878200
13.980900 2.859200
14.002300 2.781600
14.023600 2.721900
14.045000 2.667600
14.066300 2.629200
14.087700 2.594300
14.109000 2.566200
14.130400 2.542500
14.151700 2.519600
14.173100 2.526300
14.194400 2.501900
14.215700 2.473400
14.237100 2.470800
14.258400 2.494100
14.279800 2.484500
14.301100 2.507800
14.322500 2.568400
14.343800 2.618200
14.365200 2.627300
14.386500 2.699000
14.407900 2.793900
14.429200 2.840300
14.450600 2.838400
14.471900 2.980200
14.493200 3.089400
14.514600 3.105700
14.535900 3.036600
14.557300 3.061800
14.578600 3.075400
14.600000 3.092300
14.621300 3.090800
14.642700 3.098600
14.664000 3.076700
14.685400 3.068800
14.706700 3.037200
14.728100 2.970600
14.749400 2.927200
14.770700 2.898700
14.792100 2.862500
14.813400 2.816500
14.834800 2.768500
14.856100 2.687100
14.877500 2.653400
14.898800 2.619500
14.920200 2.589500
14.941500 2.626900
14.962900 2.623600
14.984200 2.633700
15.005600 2.662900
15.026900 2.697400
15.048200 2.719500
15.069600 2.736000
15.090900 2.769400
15.112300 2.791400
15.133600 2.894700
15.155000 2.978300
15.176300 3.026100
15.197700 3.047400
15.219000 3.122700
15.240400 3.186500
15.261700 3.238500
15.283100 3.289100
15.304400 3.315600
15.325700 3.335800
15.347100 3.349600
15.368400 3.357000
15.389800 3.351000
15.411100 3.340900
15.432500 3.333300
15.453800 3.354100
15.475200 3.294000
15.496500 3.299000
15.517900 3.330400
15.539200 3.340300
15.560500 3.307000
15.581900 3.176600
15.603200 3.065700
15.624600 2.917600
15.645900 2.724300
15.667300 2.615200
15.688600 2.547600
15.710000 2.507000
15.731300 2.464400
15.752700 2.432300
15.774000 2.426400
15.795400 2.432400
15.816700 2.516800
15.838000 2.640400
15.859400 2.766600
15.880700 2.752900
15.902100 2.654700
15.923400 2.629700
15.944800 2.618400
15.966100 2.589500
15.987500 2.577200
16.008800 2.567500
16.030200 2.603200
16.051500 2.645200
16.072900 2.689400
16.094200 2.734700
16.115500 2.763500
16.136900 2.790800
16.158200 2.785500
16.179600 2.778700
16.200900 2.770700
16.222300 2.767100
16.243600 2.756500
16.265000 2.744800
16.286300 2.737500
16.307700 2.729300
16.329000 2.719800
16.350400 2.739900
16.371700 2.674400
16.393000 2.664500
16.414400 2.591400
16.435700 2.526400
16.457100 2.564200
16.478400 2.551600
16.499800 2.548400
16.521100 2.543000
16.542500 2.529900
16.563800 2.465800
16.585200 2.422200
16.606500 2.386300
16.627900 2.393800
16.649200 2.455100
16.670500 2.476700
16.691900 2.655400
16.713200 2.704200
16.734600 2.799500
16.755900 2.911200
16.777300 3.116200
16.798600 3.259600
16.820000 3.419100
16.841300 3.490400
16.862700 3.558900
16.884000 3.601400
16.905400 3.643700
16.926700 3.667000
16.948000 3.632800
16.969400 3.606100
16.990700 3.578900
17.012100 3.560800
17.033400 3.532200
17.054800 3.403800
17.076100 3.246300
17.097500 3.078100
17.118800 2.895100
17.140200 2.633200
17.161500 2.452800
17.182900 2.284100
17.204200 2.210300
17.225500 2.340600
17.246900 2.220200
17.268200 2.204500
17.289600 2.257800
17.310900 2.234700
17.332300 2.213000
17.353600 2.218200
17.375000 2.230400
17.396300 2.251300
17.417700 2.285200
17.439000 2.331100
17.460400 2.384800
17.481700 2.446400
17.503000 2.514300
17.524400 2.498100
17.545700 2.506400
17.567100 2.564200
17.588400 2.586600
17.609800 2.585400
17.631100 2.549500
17.652500 2.466500
17.673800 2.364400
17.695200 2.386400
17.716500 2.304800
17.737900 2.212800
17.759200 2.179400
17.780500 2.143300
17.801900 2.164400
17.823200 2.257100
17.844600 2.240200
17.865900 2.199400
17.887300 2.176200
17.908600 2.175800
17.930000 2.188300
17.951300 2.224800
17.972700 2.252000
17.994000 2.276600
18.015400 2.357700
18.036700 2.514500
18.058000 2.509400
18.079400 2.512100
18.100700 2.529500
18.122100 2.543100
18.143400 2.559900
18.164800 2.569100
18.186100 2.567100
18.207500 2.557300
18.228800 2.545700
18.250200 2.506300
18.271500 2.454300
18.292900 2.406600
18.314200 2.342900
18.335500 2.278100
18.356900 2.215100
18.378200 2.155700
18.399600 2.098400
18.420900 2.054300
18.442300 2.015000
18.463600 1.978500
18.485000 1.949100
18.506300 2.044700
18.527700 1.980100
18.549000 1.974800
18.570400 1.979800
18.591700 2.011100
18.613000 2.058800
18.634400 2.173900
18.655700 2.323300
18.677100 2.449500
18.698400 2.537600
18.719800 2.522300
18.741100 2.543500
18.762500 2.589500
18.783800 2.643100
18.805200 2.719300
18.826500 2.820800
18.847900 2.849900
18.869200 2.863400
18.890500 2.835900
18.911900 2.799400
18.933200 2.745100
18.954600 2.685700
18.975900 2.741000
18.997300 2.754500
19.018600 2.718500
19.040000 2.776900
19.061300 2.674200
19.082700 2.693600
19.104000 2.617100
19.125400 2.588000
19.146700 2.598600
19.168000 2.619700
19.189400 2.643000
19.210700 2.641200
19.232100 2.640900
19.253400 2.642800
19.274800 2.957700
19.296100 2.656100
19.317500 2.670000
19.338800 2.783000
19.360200 2.688300
19.381500 2.688500
19.402900 2.718700
19.424200 2.751900
19.445500 2.778800
19.466900 2.778200
19.488200 2.761500
19.509600 2.741100
19.530900 2.721100
19.552300 2.659400
19.573600 2.660200
19.595000 2.701300
19.616300 2.600200
19.637700 2.525200
19.659000 2.426400
19.680400 2.323900
19.701700 2.151900
19.723000 2.041200
19.744400 1.956700
19.765700 1.917600
19.787100 1.917700
19.808400 1.797600
19.829800 1.730900
19.851100 1.752700
19.872500 1.778800
19.893800 1.851600
19.915200 2.199900
19.936500 2.012900
19.957900 2.048700
19.979200 2.087700
20.000500 2.138900
20.021900 2.197400
20.043200 2.250400
20.064600 2.353100
20.085900 2.461400
20.107300 2.607800
20.128600 2.848200
20.150000 2.803900
20.171300 2.834000
20.192700 2.877400
20.214000 2.918400
20.235300 2.960800
20.256700 3.013900
20.278000 3.061700
20.299400 3.106700
20.320700 3.172300
20.342100 3.122300
20.363400 3.122100
20.384800 3.166900
20.406100 3.278600
20.427500 3.435000
20.448800 3.538400
20.470200 3.314000
20.491500 3.197600
20.512800 3.122400
20.534200 3.075700
20.555500 3.080400
20.576900 3.094600
20.598200 3.155000
20.619600 3.049100
20.640900 3.063100
20.662300 3.068200
20.683600 3.067000
20.705000 3.075800
20.726300 3.046100
20.747700 3.047000
20.769000 3.049000
20.790300 3.052100
20.811700 3.124400
20.833000 3.256500
20.854400 3.141700
20.875700 3.102700
20.897100 3.059000
20.918400 2.998700
20.939800 2.951600
20.961100 2.969100
20.982500 3.018400
21.003800 3.032900
21.025200 2.946800
21.046500 2.953700
21.067800 2.965500
21.089200 2.967500
21.110500 2.962200
21.131900 2.961000
21.153200 2.988200
21.174600 2.914100
21.195900 2.898700
21.217300 2.884400
21.238600 2.856000
21.260000 2.851100
21.281300 2.866300
21.302700 2.984500
21.324000 2.933800
21.345300 2.921300
21.366700 2.939400
21.388000 2.997200
21.409400 2.944600
21.430700 2.912500
21.452100 2.929800
21.473400 2.848000
21.494800 2.835100
21.516100 2.830000
21.537500 2.812600
21.558800 2.817100
21.580200 2.842200
21.601500 2.871500
21.622800 2.881600
21.644200 2.852600
21.665500 2.865700
21.686900 2.898300
21.708200 2.956000
21.729600 3.065200
21.750900 3.107900
21.772300 3.068000
21.793600 2.990400
21.815000 2.902800
21.836300 2.824000
21.857700 2.764400
21.879000 2.683900
21.900300 2.643300
21.921700 2.616000
21.943000 2.593800
21.964400 2.588000
21.985700 2.588600
22.007100 2.597900
22.028400 2.619400
22.049800 2.653300
22.071100 2.671500
22.092500 2.705800
22.113800 2.717300
22.135200 2.727100
22.156500 2.802900
22.177800 2.836200
22.199200 2.784100
22.220500 2.743500
22.241900 2.711900
22.263200 2.679800
22.284600 2.646800
22.305900 2.628200
22.327300 2.629900
22.348600 2.700800
22.370000 2.754000
22.391300 2.768000
22.412700 2.753900
22.434000 2.670800
22.455300 2.576200
22.476700 2.506100
22.498000 2.459000
22.519400 2.352700
22.540700 2.130300
22.562100 2.050100
22.583400 1.976400
22.604800 1.908000
22.626100 1.837400
22.647500 1.773300
22.668800 1.827700
22.690200 1.712900
22.711500 1.629400
22.732800 1.565100
22.754200 1.501800
22.775500 1.437100
22.796900 1.372700
22.818200 1.307000
22.839600 1.242400
22.860900 1.218300
22.882300 1.139500
22.903600 1.066900
22.925000 0.995100
22.946300 0.902900
22.967700 0.851900
22.989000 0.801700
23.010300 0.747100
23.031700 0.695100
23.053000 0.644200
23.074400 0.597300
23.095700 0.557000
23.117100 0.522100
23.138400 0.492800
23.159800 0.467200
23.181100 0.444600
23.202500 0.424800
23.223800 0.406800
23.245200 0.390100
23.266500 0.374800
23.287800 0.360700
23.309200 0.349400
23.330500 0.338900
23.351900 0.329000
23.373200 0.319800
23.394600 0.310400
23.415900 0.301100
23.437300 0.292900
23.458600 0.285800
23.480000 0.280200
23.501300 0.275500
23.522700 0.271300
23.544000 0.267200
23.565300 0.263100
23.586700 0.259100
23.608000 0.255200
23.629400 0.251400
23.650700 0.247700
23.672100 0.244000
23.693400 0.240400
23.714800 0.236900
23.736100 0.233500
23.757500 0.230200
23.778800 0.227000
23.800200 0.224000
23.821500 0.221400
23.842800 0.218800
23.864200 0.216100
23.885500 0.213500
23.906900 0.211000
23.928200 0.208600
23.949600 0.206100
23.970900 0.203700
23.992300 0.202600
24.013600 0.203500
24.035000 0.202300
24.056300 0.199800
24.077700 0.197300
24.099000 0.194800
24.120300 0.192400
24.141700 0.189900
24.163000 0.187400
24.184400 0.184600
24.205700 0.181600
24.227100 0.178600
24.248400 0.175800
24.269800 0.173000
24.291100 0.170400
24.312500 0.167700
24.333800 0.165200
24.355200 0.162700
24.376500 0.160400
24.397800 0.158600
24.419200 0.159300
24.440500 0.159400
24.461900 0.157000
24.483200 0.153600
24.504600 0.150100
24.525900 0.146500
24.547300 0.142800
24.568600 0.138900
24.590000 0.135400
24.611300 0.132200
24.632700 0.128600
24.654000 0.124700
24.675300 0.122200
24.696700 0.119600
24.718000 0.116900
24.739400 0.114100
24.760700 0.111200
24.782100 0.108000
24.803400 0.104700
24.824800 0.101100
24.846100 0.098000
24.867500 0.095800
24.888800 0.093600
24.910100 0.091500
24.931500 0.089400
24.952800 0.087300
24.974200 0.085200
24.995500 0.083200
25.016900 0.081200
25.038200 0.092700
25.059600 0.102200
25.080900 0.109000
25.102300 0.109600
25.123600 0.105500
25.145000 0.098200
25.166300 0.087900
25.187600 0.088300
25.209000 0.089800
25.230300 0.084700
25.251700 0.073000
25.273000 0.063300
25.294400 0.057500
25.315700 0.051800
25.337100 0.046100
25.358400 0.040400
25.379800 0.035000
25.401100 0.029900
25.422500 0.025000
25.443800 0.022100
25.465100 0.019300
25.486500 0.017100
25.507800 0.016500
25.529200 0.015900
25.550500 0.015400
25.571900 0.014900
25.593200 0.014300
25.614600 0.013800
25.635900 0.013300
25.657300 0.012800
25.678600 0.012300
25.700000 0.011900
25.721300 0.011400
25.742600 0.010900
25.764000 0.010500
25.785300 0.010000
25.806700 0.009600
25.828000 0.009200
25.849400 0.008800
25.870700 0.008300
25.892100 0.007900
25.913400 0.007600
25.934800 0.007200
25.956100 0.006800
25.977500 0.006400
25.998800 0.006100
26.020100 0.005800
26.041500 0.005400
26.062800 0.005100
26.084200 0.004800
26.105500 0.004500
26.126900 0.004200
26.148200 0.003900
26.169600 0.003600
26.190900 0.003300
26.212300 0.003100
26.233600 0.002800
26.255000 0.002600
26.276300 0.002300
26.297600 0.002100
26.319000 0.001900
26.340300 0.001700
26.361700 0.001500
26.383000 0.001300
26.404400 0.001100
26.425700 0.001000
26.447100 0.000800
26.468400 0.000600
26.489800 0.000500
26.511100 0.000400
26.532500 0.000200
26.553800 0.000100
26.575100 0.000000
26.596500 0.000000
26.617800 0.000000
26.639200 0.000000
26.660500 0.000000
26.681900 0.000000
26.703200 0.000000
26.724600 0.000000
26.745900 0.000000
26.767300 0.000000
26.788600 0.000000
26.810000 0.000000
26.831300 0.000000
26.852600 0.000000
26.874000 0.000000
26.895300 0.000000
26.916700 0.000000
26.938000 0.000000
26.959400 0.000000
26.980700 0.000000
27.002100 0.000000
27.023400 0.000000
27.044800 0.000000
27.066100 0.000000
27.087500 0.000000
27.108800 0.000000
27.130100 0.000000
27.151500 0.000000
27.172800 0.000000
27.194200 0.000000
27.215500 0.000000
27.236900 0.000000
27.258200 0.000000
27.279600 0.000000
27.300900 0.000000
27.322300 0.000000
27.343600 0.000000
27.365000 0.000000
27.386300 0.000000
27.407600 0.000000
27.429000 0.000000
27.450300 0.000000
27.471700 0.000000
27.493000 0.000000
27.514400 0.000000
27.535700 0.000000
27.557100 0.000000
27.578400 0.000000
27.599800 0.000000
27.621100 0.000000
27.642500 0.000000
27.663800 0.000000
27.685100 0.000000
27.706500 0.000000
27.727800 0.000000
27.749200 0.000000
27.770500 0.000000
27.791900 0.000000
27.813200 0.000000
27.834600 0.000000
27.855900 0.000000
27.877300 0.000000
27.898600 0.000000
27.920000 0.000000
27.941300 0.000000
27.962600 0.000000
27.984000 0.000000
28.005300 0.000000
28.026700 0.000000
28.048000 0.000000
28.069400 0.000000
28.090700 0.000000
28.112100 0.000000
28.133400 0.000000
28.154800 0.000000
28.176100 0.000000
28.197500 0.000000
28.218800 0.000000
28.240100 0.000000
28.261500 0.000000
28.282800 0.000000
28.304200 0.000000
28.325500 0.000000
28.346900 0.000000
28.368200 0.000000
28.389600 0.000000
28.410900 0.000000
28.432300 0.000000
28.453600 0.000000
28.475000 0.000000
28.496300 0.000000
28.517600 0.000000
e
