set title 'mp-1184781 - Density of States'
set xlabel 'Energy (eV)'
set ylabel 'DOS (states/eV)'
set grid
set xrange [-10:10]
set yrange [0:163.895]
set xzeroaxis lt -1
set terminal png size 800,600
set output 'mp-1184781_dos_gnuplot.png'
plot '-' using 1:2 with lines title 'DOS'
-20.650500 0.000000
-20.617900 0.000000
-20.585300 0.000000
-20.552600 0.000000
-20.520000 0.000000
-20.487400 0.000000
-20.454700 0.000000
-20.422100 0.000000
-20.389500 0.000000
-20.356800 0.000000
-20.324200 0.000000
-20.291600 0.000000
-20.259000 0.000000
-20.226300 0.000000
-20.193700 0.000000
-20.161100 0.000000
-20.128400 0.000000
-20.095800 0.000000
-20.063200 0.000000
-20.030500 0.000000
-19.997900 0.000000
-19.965300 0.000000
-19.932600 0.000000
-19.900000 0.000000
-19.867400 0.000000
-19.834800 0.000000
-19.802100 0.000000
-19.769500 0.000000
-19.736900 0.000000
-19.704200 0.000000
-19.671600 0.000000
-19.639000 0.000000
-19.606300 0.000000
-19.573700 0.000000
-19.541100 0.000000
-19.508500 0.000000
-19.475800 0.000000
-19.443200 0.000000
-19.410600 0.000000
-19.377900 0.000000
-19.345300 0.000000
-19.312700 0.000000
-19.280000 0.000000
-19.247400 0.000000
-19.214800 0.000000
-19.182100 0.000000
-19.149500 0.000000
-19.116900 0.000000
-19.084300 0.000000
-19.051600 0.000000
-19.019000 0.000000
-18.986400 0.000000
-18.953700 0.000000
-18.921100 0.000000
-18.888500 0.000000
-18.855800 0.000000
-18.823200 0.000000
-18.790600 0.000000
-18.757900 0.000000
-18.725300 0.000000
-18.692700 0.000000
-18.660100 0.000000
-18.627400 0.000000
-18.594800 0.000000
-18.562200 0.000000
-18.529500 0.000000
-18.496900 0.000000
-18.464300 0.000000
-18.431600 0.000000
-18.399000 0.000000
-18.366400 0.000000
-18.333800 0.000000
-18.301100 0.000000
-18.268500 0.000000
-18.235900 0.000000
-18.203200 0.000000
-18.170600 0.000000
-18.138000 0.000000
-18.105300 0.000000
-18.072700 0.000000
-18.040100 0.000000
-18.007400 0.000000
-17.974800 0.000000
-17.942200 0.000000
-17.909600 0.000000
-17.876900 0.000000
-17.844300 0.000000
-17.811700 0.000000
-17.779000 0.000000
-17.746400 0.000000
-17.713800 0.000000
-17.681100 25.437100
-17.648500 320.814300
-17.615900 172.036900
-17.583200 118.574700
-17.550600 0.000000
-17.518000 0.000000
-17.485400 0.000000
-17.452700 0.000000
-17.420100 0.000000
-17.387500 0.000000
-17.354800 0.000000
-17.322200 0.000000
-17.289600 0.000000
-17.256900 0.000000
-17.224300 0.000000
-17.191700 0.000000
-17.159100 0.000000
-17.126400 0.000000
-17.093800 0.000000
-17.061200 0.000000
-17.028500 0.000000
-16.995900 0.000000
-16.963300 0.000000
-16.930600 0.000000
-16.898000 0.000000
-16.865400 0.000000
-16.832700 0.000000
-16.800100 0.000000
-16.767500 0.000000
-16.734900 0.000000
-16.702200 0.000000
-16.669600 0.000000
-16.637000 0.000000
-16.604300 0.000000
-16.571700 0.000000
-16.539100 0.000000
-16.506400 0.000000
-16.473800 0.000000
-16.441200 0.000000
-16.408500 0.000000
-16.375900 0.000000
-16.343300 0.000000
-16.310700 0.000000
-16.278000 0.000000
-16.245400 0.000000
-16.212800 0.000000
-16.180100 0.000000
-16.147500 0.000000
-16.114900 0.000000
-16.082200 0.000000
-16.049600 0.000000
-16.017000 0.000000
-15.984400 0.000000
-15.951700 0.000000
-15.919100 0.000000
-15.886500 0.000000
-15.853800 0.000000
-15.821200 0.000000
-15.788600 0.000000
-15.755900 0.000000
-15.723300 0.000000
-15.690700 0.000000
-15.658000 0.000000
-15.625400 0.000000
-15.592800 0.000000
-15.560200 0.000000
-15.527500 0.000000
-15.494900 0.000000
-15.462300 0.000000
-15.429600 0.000000
-15.397000 0.000000
-15.364400 0.000000
-15.331700 0.000000
-15.299100 0.000000
-15.266500 0.000000
-15.233800 0.000000
-15.201200 0.000000
-15.168600 0.000000
-15.136000 0.000000
-15.103300 0.000000
-15.070700 0.000000
-15.038100 0.000000
-15.005400 0.000000
-14.972800 0.000000
-14.940200 0.000000
-14.907500 0.000000
-14.874900 0.000000
-14.842300 0.000000
-14.809600 0.000000
-14.777000 0.000000
-14.744400 0.000000
-14.711800 0.000000
-14.679100 0.000000
-14.646500 0.000000
-14.613900 0.000000
-14.581200 0.000000
-14.548600 0.000000
-14.516000 0.000000
-14.483300 0.000000
-14.450700 0.000000
-14.418100 0.000000
-14.385500 0.000000
-14.352800 0.000000
-14.320200 0.000000
-14.287600 0.000000
-14.254900 0.000000
-14.222300 0.000000
-14.189700 0.000000
-14.157000 0.000000
-14.124400 0.000000
-14.091800 0.000000
-14.059100 0.000000
-14.026500 0.000000
-13.993900 0.000000
-13.961300 0.000000
-13.928600 0.000000
-13.896000 0.000000
-13.863400 0.000000
-13.830700 0.000000
-13.798100 0.000000
-13.765500 0.000000
-13.732800 0.000000
-13.700200 0.000000
-13.667600 0.000000
-13.634900 0.000000
-13.602300 0.000000
-13.569700 0.000000
-13.537100 0.000000
-13.504400 0.000000
-13.471800 0.000000
-13.439200 0.000000
-13.406500 0.000000
-13.373900 0.000000
-13.341300 0.000000
-13.308600 0.000000
-13.276000 0.000000
-13.243400 0.000000
-13.210800 0.000000
-13.178100 0.000000
-13.145500 0.000000
-13.112900 0.000000
-13.080200 0.000000
-13.047600 0.000000
-13.015000 0.000000
-12.982300 0.000000
-12.949700 0.000000
-12.917100 0.000000
-12.884400 0.000000
-12.851800 0.000000
-12.819200 0.000000
-12.786600 0.000000
-12.753900 0.000000
-12.721300 0.000000
-12.688700 0.000000
-12.656000 0.000000
-12.623400 0.000000
-12.590800 0.000000
-12.558100 0.000000
-12.525500 0.000000
-12.492900 0.000000
-12.460200 0.000000
-12.427600 0.000000
-12.395000 0.000000
-12.362400 0.000000
-12.329700 0.000000
-12.297100 0.000000
-12.264500 0.000000
-12.231800 0.000000
-12.199200 0.000000
-12.166600 0.000000
-12.133900 0.000000
-12.101300 0.000000
-12.068700 0.000000
-12.036100 0.000000
-12.003400 0.000000
-11.970800 0.000000
-11.938200 0.000000
-11.905500 0.000000
-11.872900 0.000000
-11.840300 0.000000
-11.807600 0.000000
-11.775000 0.000000
-11.742400 0.000000
-11.709700 0.000000
-11.677100 0.000000
-11.644500 0.000000
-11.611900 0.000000
-11.579200 0.000000
-11.546600 0.000000
-11.514000 0.000000
-11.481300 0.000000
-11.448700 0.000000
-11.416100 0.000000
-11.383400 0.000000
-11.350800 0.000000
-11.318200 0.000000
-11.285500 0.000000
-11.252900 0.000000
-11.220300 0.000000
-11.187700 0.000000
-11.155000 0.000000
-11.122400 0.000000
-11.089800 0.000000
-11.057100 0.000000
-11.024500 0.000000
-10.991900 0.000000
-10.959200 0.000000
-10.926600 0.000000
-10.894000 0.000000
-10.861400 0.000000
-10.828700 0.000000
-10.796100 0.000000
-10.763500 0.000000
-10.730800 0.000000
-10.698200 0.000000
-10.665600 0.000000
-10.632900 0.000000
-10.600300 0.000000
-10.567700 0.000000
-10.535000 0.000000
-10.502400 0.000000
-10.469800 0.000000
-10.437200 0.000000
-10.404500 0.000000
-10.371900 0.000000
-10.339300 0.000000
-10.306600 0.000000
-10.274000 0.000000
-10.241400 0.000000
-10.208700 0.000000
-10.176100 0.000000
-10.143500 0.000000
-10.110800 0.000000
-10.078200 0.000000
-10.045600 0.000000
-10.013000 0.000000
-9.980300 0.000000
-9.947700 0.000000
-9.915100 0.000000
-9.882400 0.000000
-9.849800 0.000000
-9.817200 0.000000
-9.784500 0.000000
-9.751900 0.000000
-9.719300 0.000000
-9.686700 0.000000
-9.654000 0.000000
-9.621400 0.000000
-9.588800 0.000000
-9.556100 0.000000
-9.523500 0.000000
-9.490900 0.000000
-9.458200 0.000000
-9.425600 0.000000
-9.393000 0.000000
-9.360300 0.000000
-9.327700 0.000000
-9.295100 0.000000
-9.262500 0.000000
-9.229800 0.000000
-9.197200 0.000000
-9.164600 0.000000
-9.131900 0.000000
-9.099300 0.000000
-9.066700 0.000000
-9.034000 0.000000
-9.001400 0.000000
-8.968800 0.000000
-8.936100 0.000000
-8.903500 0.000000
-8.870900 0.000000
-8.838300 0.000000
-8.805600 0.000000
-8.773000 0.000000
-8.740400 0.000000
-8.707700 0.000000
-8.675100 0.000000
-8.642500 0.000000
-8.609800 0.000000
-8.577200 0.000000
-8.544600 0.000000
-8.512000 0.000000
-8.479300 0.000000
-8.446700 0.000000
-8.414100 0.000000
-8.381400 0.000000
-8.348800 0.000000
-8.316200 0.000000
-8.283500 0.000000
-8.250900 0.000000
-8.218300 15.808700
-8.185600 48.336100
-8.153000 148.995400
-8.120400 29.081900
-8.087800 0.000000
-8.055100 0.000000
-8.022500 0.000000
-7.989900 0.000000
-7.957200 0.000000
-7.924600 0.000000
-7.892000 0.000000
-7.859300 0.000000
-7.826700 0.000000
-7.794100 0.000000
-7.761400 0.000000
-7.728800 0.000000
-7.696200 0.000000
-7.663600 0.000000
-7.630900 0.000000
-7.598300 0.000000
-7.565700 0.000000
-7.533000 0.000000
-7.500400 0.000000
-7.467800 0.000000
-7.435100 0.000000
-7.402500 0.000000
-7.369900 0.000000
-7.337300 0.000000
-7.304600 0.000000
-7.272000 0.000000
-7.239400 0.000000
-7.206700 0.000000
-7.174100 0.000000
-7.141500 0.000000
-7.108800 0.000000
-7.076200 0.000000
-7.043600 0.000000
-7.010900 0.000000
-6.978300 0.000000
-6.945700 0.000000
-6.913100 0.000000
-6.880400 0.000000
-6.847800 0.000000
-6.815200 0.000000
-6.782500 0.000000
-6.749900 0.000000
-6.717300 0.000000
-6.684600 0.000000
-6.652000 0.000000
-6.619400 0.000000
-6.586700 0.000000
-6.554100 0.000000
-6.521500 0.000000
-6.488900 0.000000
-6.456200 0.000000
-6.423600 0.000000
-6.391000 0.000000
-6.358300 0.000000
-6.325700 0.000000
-6.293100 0.000000
-6.260400 0.000000
-6.227800 0.000000
-6.195200 0.000000
-6.162500 0.000000
-6.129900 0.000000
-6.097300 0.000000
-6.064700 0.000000
-6.032000 0.000000
-5.999400 0.000000
-5.966800 0.000000
-5.934100 0.000000
-5.901500 0.000000
-5.868900 0.000000
-5.836200 0.000000
-5.803600 0.000000
-5.771000 0.000000
-5.738400 0.000000
-5.705700 0.000000
-5.673100 0.000000
-5.640500 0.000000
-5.607800 0.000000
-5.575200 0.000000
-5.542600 0.000000
-5.509900 0.000000
-5.477300 0.000000
-5.444700 0.000200
-5.412000 0.037400
-5.379400 0.124200
-5.346800 0.178300
-5.314200 0.201600
-5.281500 0.229900
-5.248900 0.248900
-5.216300 0.279600
-5.183600 0.312000
-5.151000 0.337400
-5.118400 0.348500
-5.085700 0.365100
-5.053100 0.379500
-5.020500 0.394000
-4.987800 0.408500
-4.955200 0.425700
-4.922600 0.443600
-4.890000 0.462400
-4.857300 0.482900
-4.824700 0.499800
-4.792100 0.510000
-4.759400 0.518400
-4.726800 0.528600
-4.694200 0.541400
-4.661500 0.554000
-4.628900 0.566500
-4.596300 0.579000
-4.563700 0.592600
-4.531000 0.607200
-4.498400 0.622200
-4.465800 0.635900
-4.433100 0.650800
-4.400500 0.665900
-4.367900 0.680600
-4.335200 0.693800
-4.302600 0.707800
-4.270000 0.723000
-4.237300 0.746800
-4.204700 0.767600
-4.172100 0.782800
-4.139500 0.791900
-4.106800 0.818700
-4.074200 0.806400
-4.041600 0.810400
-4.008900 0.811400
-3.976300 0.810700
-3.943700 0.811300
-3.911000 0.813000
-3.878400 0.815700
-3.845800 0.819500
-3.813100 0.827400
-3.780500 0.835700
-3.747900 0.842200
-3.715300 0.848000
-3.682600 0.857700
-3.650000 0.869600
-3.617400 0.883600
-3.584700 0.895600
-3.552100 0.947700
-3.519500 0.979300
-3.486800 1.003800
-3.454200 1.021100
-3.421600 1.039800
-3.389000 1.068200
-3.356300 1.034700
-3.323700 1.040500
-3.291100 1.056200
-3.258400 1.063600
-3.225800 1.116800
-3.193200 1.175800
-3.160500 1.051500
-3.127900 0.960800
-3.095300 0.912300
-3.062600 0.876100
-3.030000 0.857600
-2.997400 0.843400
-2.964800 0.819600
-2.932100 0.776500
-2.899500 0.766400
-2.866900 0.768500
-2.834200 0.771600
-2.801600 0.781200
-2.769000 0.786200
-2.736300 0.773700
-2.703700 0.781800
-2.671100 0.817300
-2.638400 0.967200
-2.605800 1.068300
-2.573200 1.169500
-2.540600 1.272300
-2.507900 1.275100
-2.475300 1.287100
-2.442700 1.281500
-2.410000 1.291500
-2.377400 1.278300
-2.344800 1.271800
-2.312100 1.265000
-2.279500 1.238000
-2.246900 1.251900
-2.214300 1.304000
-2.181600 1.218600
-2.149000 1.212100
-2.116400 1.209200
-2.083700 1.204100
-2.051100 1.194400
-2.018500 1.179600
-1.985800 1.163400
-1.953200 1.148300
-1.920600 1.101100
-1.887900 1.088100
-1.855300 1.097600
-1.822700 1.161900
-1.790100 1.194800
-1.757400 1.212800
-1.724800 1.219200
-1.692200 1.273500
-1.659500 1.278300
-1.626900 1.316700
-1.594300 1.365000
-1.561600 1.391600
-1.529000 1.431200
-1.496400 1.432900
-1.463700 1.456500
-1.431100 1.501600
-1.398500 1.547200
-1.365900 1.583700
-1.333200 1.663600
-1.300600 1.721200
-1.268000 1.826300
-1.235300 1.999300
-1.202700 1.880200
-1.170100 1.737000
-1.137400 1.736700
-1.104800 1.748100
-1.072200 1.754300
-1.039600 1.773400
-1.006900 1.800300
-0.974300 1.824900
-0.941700 1.852200
-0.909000 1.820800
-0.876400 1.830600
-0.843800 1.853100
-0.811100 1.924300
-0.778500 1.981600
-0.745900 2.033600
-0.713200 2.104300
-0.680600 2.220500
-0.648000 2.292500
-0.615400 2.271000
-0.582700 2.079000
-0.550100 1.817000
-0.517500 1.575700
-0.484800 1.459200
-0.452200 1.434700
-0.419600 1.450600
-0.386900 1.416900
-0.354300 1.270700
-0.321700 1.186500
-0.289000 1.107200
-0.256400 1.016600
-0.223800 1.006000
-0.191200 0.938400
-0.158500 0.707100
-0.125900 0.527000
-0.093300 0.459500
-0.060600 0.437200
-0.028000 0.424700
0.004600 0.411400
0.037300 0.397400
0.069900 0.385600
0.102500 0.373900
0.135100 0.362400
0.167800 0.351600
0.200400 0.343100
0.233000 0.335200
0.265700 0.327400
0.298300 0.336600
0.330900 0.350100
0.363600 0.366300
0.396200 0.386700
0.428800 0.411700
0.461500 0.461800
0.494100 0.502200
0.526700 0.513300
0.559300 0.515900
0.592000 0.535800
0.624600 0.561600
0.657200 0.590100
0.689900 0.628400
0.722500 0.667500
0.755100 0.905300
0.787800 0.917500
0.820400 0.939000
0.853000 0.933200
0.885700 0.931100
0.918300 0.937800
0.950900 0.948900
0.983500 0.971900
1.016200 1.008400
1.048800 1.015700
1.081400 1.046800
1.114100 1.104500
1.146700 1.192100
1.179300 1.380100
1.212000 1.510500
1.244600 1.940000
1.277200 1.858100
1.309900 1.701200
1.342500 1.681700
1.375100 1.659200
1.407700 1.703600
1.440400 1.504700
1.473000 1.481000
1.505600 1.451600
1.538300 1.421300
1.570900 1.397300
1.603500 1.402500
1.636200 1.411500
1.668800 1.531600
1.701400 1.328300
1.734000 1.209100
1.766700 1.150300
1.799300 1.118000
1.831900 1.107800
1.864600 1.133600
1.897200 1.107200
1.929800 1.043800
1.962500 1.040000
1.995100 1.022400
2.027700 1.015400
2.060400 1.020000
2.093000 0.999800
2.125600 0.980200
2.158200 0.985600
2.190900 0.975100
2.223500 0.969000
2.256100 0.967300
2.288800 0.980700
2.321400 1.003700
2.354000 1.045300
2.386700 1.245700
2.419300 1.317100
2.451900 1.384300
2.484600 1.351800
2.517200 1.175600
2.549800 1.026000
2.582400 0.972800
2.615100 0.968600
2.647700 0.949400
2.680300 0.930000
2.713000 0.914100
2.745600 0.909800
2.778200 0.912900
2.810900 0.924300
2.843500 0.949600
2.876100 0.987600
2.908700 1.041200
2.941400 1.107500
2.974000 1.204300
3.006600 1.269900
3.039300 1.243900
3.071900 1.253700
3.104500 1.281300
3.137200 1.305400
3.169800 1.294200
3.202400 1.294700
3.235100 1.317900
3.267700 1.374800
3.300300 1.354800
3.332900 1.441200
3.365600 1.405000
3.398200 1.416000
3.430800 1.428400
3.463500 1.450700
3.496100 1.485400
3.528700 1.522900
3.561400 1.564300
3.594000 1.612500
3.626600 1.678700
3.659300 1.755900
3.691900 1.840000
3.724500 1.936900
3.757100 2.048400
3.789800 2.084400
3.822400 2.103100
3.855000 2.187700
3.887700 2.279600
3.920300 2.286600
3.952900 2.316700
3.985600 2.358200
4.018200 2.359800
4.050800 2.383400
4.083400 2.382100
4.116100 2.393700
4.148700 2.405900
4.181300 2.422100
4.214000 2.407400
4.246600 2.406700
4.279200 2.389800
4.311900 2.370000
4.344500 2.312400
4.377100 2.337700
4.409800 2.229200
4.442400 2.131600
4.475000 2.072000
4.507600 1.931500
4.540300 1.926700
4.572900 1.997100
4.605500 1.953500
4.638200 1.920000
4.670800 1.893500
4.703400 1.869700
4.736100 1.823800
4.768700 1.839500
4.801300 1.761900
4.834000 1.730300
4.866600 1.720900
4.899200 1.691000
4.931800 1.680500
4.964500 1.687600
4.997100 1.711200
5.029700 1.736000
5.062400 1.755700
5.095000 1.764100
5.127600 1.779700
5.160300 1.795700
5.192900 1.818300
5.225500 1.811000
5.258100 1.781700
5.290800 1.749500
5.323400 1.730600
5.356000 1.723800
5.388700 1.722500
5.421300 1.749300
5.453900 1.880800
5.486600 1.891800
5.519200 1.908300
5.551800 1.921600
5.584500 1.936300
5.617100 1.943600
5.649700 1.934200
5.682300 1.927200
5.715000 1.928700
5.747600 1.938500
5.780200 1.925800
5.812900 1.912400
5.845500 1.902000
5.878100 1.896400
5.910800 1.896200
5.943400 1.945700
5.976000 2.008100
6.008700 2.033700
6.041300 2.074600
6.073900 2.096000
6.106500 2.097900
6.139200 2.021900
6.171800 1.952900
6.204400 1.900200
6.237100 1.849700
6.269700 1.806900
6.302300 1.771100
6.335000 1.735900
6.367600 1.699000
6.400200 1.669000
6.432800 1.651900
6.465500 1.642800
6.498100 1.637300
6.530700 1.706000
6.563400 1.714900
6.596000 1.731400
6.628600 1.745600
6.661300 1.772300
6.693900 1.813100
6.726500 1.867100
6.759200 1.944400
6.791800 2.052700
6.824400 2.146800
6.857000 2.231000
6.889700 2.294200
6.922300 2.278400
6.954900 2.197800
6.987600 2.246500
7.020200 2.324500
7.052800 2.359800
7.085500 2.298300
7.118100 2.194900
7.150700 2.124700
7.183400 2.120400
7.216000 2.104000
7.248600 2.107400
7.281200 2.132800
7.313900 2.170300
7.346500 2.216300
7.379100 2.275300
7.411800 2.293200
7.444400 2.239800
7.477000 2.192300
7.509700 2.139800
7.542300 2.122900
7.574900 1.996300
7.607500 1.901100
7.640200 1.843700
7.672800 1.786500
7.705400 1.766600
7.738100 1.836500
7.770700 1.779800
7.803300 1.731400
7.836000 1.759100
7.868600 1.840800
7.901200 1.997700
7.933900 2.096400
7.966500 2.212700
7.999100 2.357800
8.031700 2.367100
8.064400 2.522300
8.097000 2.779200
8.129600 2.997900
8.162300 3.007400
8.194900 2.998800
8.227500 3.107200
8.260200 3.064900
8.292800 3.021200
8.325400 2.854500
8.358100 2.786100
8.390700 2.753000
8.423300 2.755200
8.455900 2.762600
8.488600 2.490300
8.521200 2.380500
8.553800 2.258100
8.586500 2.057900
8.619100 1.983700
8.651700 2.076500
8.684400 2.115100
8.717000 2.186300
8.749600 2.249000
8.782200 2.278000
8.814900 2.374300
8.847500 2.420600
8.880100 2.500400
8.912800 2.388100
8.945400 2.386000
8.978000 2.383100
9.010700 2.437300
9.043300 2.578600
9.075900 2.778400
9.108600 2.730200
9.141200 2.698200
9.173800 2.653100
9.206400 2.642000
9.239100 2.604700
9.271700 2.555100
9.304300 2.584900
9.337000 2.648900
9.369600 2.644900
9.402200 2.590200
9.434900 2.527300
9.467500 2.384800
9.500100 2.249900
9.532800 2.134700
9.565400 2.006700
9.598000 1.902300
9.630600 1.842800
9.663300 1.815100
9.695900 1.816300
9.728500 1.805300
9.761200 1.856100
9.793800 1.911700
9.826400 1.972800
9.859100 2.026700
9.891700 2.087000
9.924300 2.154600
9.957000 2.220800
9.989600 2.302700
10.022200 2.392100
10.054800 2.541800
10.087500 2.551800
10.120100 2.540500
10.152700 2.576000
10.185400 2.661000
10.218000 2.752700
10.250600 2.835400
10.283300 2.881000
10.315900 2.827200
10.348500 2.716100
10.381100 2.613700
10.413800 2.506800
10.446400 2.455300
10.479000 2.416900
10.511700 2.394300
10.544300 2.381800
10.576900 2.370200
10.609600 2.364500
10.642200 2.379700
10.674800 2.399700
10.707500 2.339200
10.740100 2.336000
10.772700 2.339600
10.805300 2.346300
10.838000 2.439900
10.870600 2.502000
10.903200 2.424200
10.935900 2.391800
10.968500 2.306100
11.001100 2.270900
11.033800 2.380700
11.066400 2.425100
11.099000 2.366600
11.131700 2.340400
11.164300 2.340300
11.196900 2.375700
11.229500 2.544500
11.262200 2.481400
11.294800 2.457900
11.327400 2.408700
11.360100 2.454300
11.392700 2.282100
11.425300 2.225600
11.458000 2.163500
11.490600 2.131200
11.523200 2.110100
11.555800 2.090500
11.588500 2.069500
11.621100 2.070700
11.653700 2.073100
11.686400 2.027900
11.719000 1.993500
11.751600 1.988000
11.784300 1.979300
11.816900 1.969000
11.849500 1.996000
11.882200 1.847300
11.914800 1.785500
11.947400 1.728500
11.980000 1.698000
12.012700 1.686800
12.045300 1.723100
12.077900 1.745800
12.110600 1.747900
12.143200 1.767600
12.175800 1.796800
12.208500 1.828700
12.241100 1.860300
12.273700 1.920100
12.306400 1.919500
12.339000 1.955500
12.371600 2.042600
12.404200 2.095000
12.436900 2.109800
12.469500 2.004700
12.502100 1.986100
12.534800 1.965300
12.567400 1.964000
12.600000 1.926900
12.632700 1.898200
12.665300 1.885000
12.697900 1.894800
12.730500 1.897200
12.763200 1.952500
12.795800 1.915800
12.828400 1.869000
12.861100 1.729300
12.893700 1.662800
12.926300 1.621300
12.959000 1.603100
12.991600 1.568800
13.024200 1.593900
13.056900 1.626900
13.089500 1.704000
13.122100 1.584100
13.154700 1.515100
13.187400 1.440000
13.220000 1.447300
13.252600 1.467900
13.285300 1.495500
13.317900 1.518700
13.350500 1.583000
13.383200 1.650100
13.415800 1.717800
13.448400 1.760900
13.481100 1.779000
13.513700 1.791300
13.546300 1.802500
13.578900 1.813800
13.611600 1.828000
13.644200 1.845100
13.676800 1.864300
13.709500 1.883200
13.742100 1.918800
13.774700 1.915200
13.807400 1.942300
13.840000 2.019500
13.872600 2.025300
13.905200 2.030000
13.937900 2.040000
13.970500 2.000000
14.003100 1.935900
14.035800 1.829800
14.068400 1.723900
14.101000 1.681000
14.133700 1.680900
14.166300 1.694200
14.198900 1.726500
14.231600 1.693300
14.264200 1.692000
14.296800 1.704000
14.329400 1.723600
14.362100 1.745200
14.394700 1.764400
14.427300 1.742500
14.460000 1.850500
14.492600 1.912500
14.525200 1.948700
14.557900 1.979700
14.590500 2.012500
14.623100 2.046200
14.655800 2.078900
14.688400 2.107700
14.721000 2.125100
14.753600 2.252400
14.786300 2.094100
14.818900 2.060100
14.851500 2.132000
14.884200 2.168800
14.916800 2.161000
14.949400 2.119800
14.982100 2.192100
15.014700 2.209700
15.047300 2.146600
15.079900 2.081400
15.112600 2.083400
15.145200 2.091100
15.177800 2.147400
15.210500 2.180400
15.243100 2.169900
15.275700 2.165900
15.308400 2.185300
15.341000 2.207800
15.373600 2.253400
15.406300 2.008000
15.438900 1.981100
15.471500 1.970100
15.504100 1.981600
15.536800 2.003900
15.569400 2.039600
15.602000 2.096300
15.634700 2.161500
15.667300 2.220600
15.699900 2.292600
15.732600 2.358400
15.765200 2.377800
15.797800 2.336300
15.830500 2.299700
15.863100 2.263300
15.895700 2.236100
15.928300 2.243700
15.961000 2.208800
15.993600 2.165600
16.026200 2.174400
16.058900 2.189400
16.091500 2.221900
16.124100 2.249900
16.156800 2.217100
16.189400 2.310200
16.222000 2.264400
16.254600 2.219500
16.287300 2.226100
16.319900 2.246900
16.352500 2.246000
16.385200 2.272400
16.417800 2.358400
16.450400 2.380000
16.483100 2.418800
16.515700 2.484200
16.548300 2.560300
16.581000 2.590600
16.613600 2.615900
16.646200 2.650500
16.678800 2.648300
16.711500 2.640300
16.744100 2.665700
16.776700 2.700500
16.809400 2.759700
16.842000 2.818400
16.874600 2.824400
16.907300 2.812000
16.939900 2.740900
16.972500 2.665900
17.005200 2.620200
17.037800 2.580200
17.070400 2.575500
17.103000 2.639700
17.135700 2.695500
17.168300 2.711400
17.200900 2.656200
17.233600 2.648800
17.266200 2.671800
17.298800 2.785200
17.331500 2.872400
17.364100 2.898100
17.396700 2.889200
17.429400 2.922200
17.462000 2.908500
17.494600 2.897300
17.527200 2.944700
17.559900 3.047700
17.592500 3.076900
17.625100 3.073400
17.657800 3.065300
17.690400 3.047600
17.723000 3.094400
17.755700 3.178400
17.788300 3.244800
17.820900 3.068100
17.853500 2.946600
17.886200 2.893500
17.918800 2.793100
17.951400 2.852700
17.984100 2.774700
18.016700 2.779300
18.049300 2.789700
18.082000 2.783000
18.114600 2.879100
18.147200 2.920100
18.179900 3.023300
18.212500 3.088200
18.245100 3.099500
18.277700 3.068000
18.310400 3.040100
18.343000 2.914400
18.375600 2.756800
18.408300 2.776800
18.440900 2.758600
18.473500 2.638800
18.506200 2.432500
18.538800 2.325100
18.571400 2.218600
18.604100 2.309700
18.636700 2.544100
18.669300 2.477700
18.701900 2.334600
18.734600 2.426300
18.767200 2.501000
18.799800 2.584200
18.832500 2.674200
18.865100 2.769200
18.897700 2.868000
18.930400 3.023600
18.963000 3.168000
18.995600 3.266300
19.028200 3.310000
19.060900 3.259100
19.093500 3.378700
19.126100 3.154300
19.158800 2.946600
19.191400 2.726300
19.224000 2.625900
19.256700 2.566600
19.289300 2.509500
19.321900 2.465900
19.354600 2.501300
19.387200 2.513800
19.419800 2.519900
19.452400 2.460800
19.485100 2.447900
19.517700 2.435000
19.550300 2.392400
19.583000 2.343300
19.615600 2.290600
19.648200 2.256000
19.680900 2.214500
19.713500 2.164200
19.746100 2.134700
19.778800 2.149700
19.811400 2.169700
19.844000 2.251500
19.876600 2.353100
19.909300 1.975500
19.941900 2.040100
19.974500 2.168900
20.007200 2.278900
20.039800 2.297700
20.072400 2.376700
20.105100 2.425500
20.137700 2.486500
20.170300 2.387800
20.202900 2.435200
20.235600 2.528300
20.268200 2.479800
20.300800 2.450900
20.333500 2.435900
20.366100 2.436600
20.398700 2.435500
20.431400 2.369200
20.464000 2.252500
20.496600 2.203100
20.529300 2.226900
20.561900 2.351300
20.594500 2.576200
20.627100 2.785400
20.659800 2.853100
20.692400 2.759900
20.725000 3.166700
20.757700 2.895600
20.790300 2.880100
20.822900 2.743000
20.855600 2.723800
20.888200 2.844500
20.920800 2.964000
20.953500 3.032600
20.986100 3.082600
21.018700 3.111300
21.051300 3.108600
21.084000 3.059100
21.116600 3.212700
21.149200 3.236700
21.181900 3.302300
21.214500 3.336500
21.247100 3.344900
21.279800 3.291400
21.312400 3.236200
21.345000 3.173000
21.377600 3.133600
21.410300 3.089700
21.442900 3.168600
21.475500 3.173100
21.508200 3.155700
21.540800 3.072100
21.573400 3.024100
21.606100 3.016000
21.638700 3.072800
21.671300 3.165400
21.704000 3.225600
21.736600 3.184800
21.769200 3.196200
21.801800 3.197800
21.834500 3.193900
21.867100 3.159700
21.899700 3.125300
21.932400 3.082300
21.965000 3.035100
21.997600 2.995700
22.030300 2.908800
22.062900 2.795900
22.095500 2.737800
22.128200 2.726200
22.160800 2.707900
22.193400 2.738900
22.226000 2.830900
22.258700 2.962700
22.291300 3.084100
22.323900 3.259800
22.356600 3.327400
22.389200 3.339800
22.421800 3.345800
22.454500 3.313500
22.487100 3.288200
22.519700 3.269200
22.552300 3.231600
22.585000 3.314700
22.617600 3.194300
22.650200 3.228300
22.682900 3.280200
22.715500 3.324000
22.748100 3.367800
22.780800 3.441700
22.813400 3.524100
22.846000 3.578400
22.878700 3.651100
22.911300 3.704900
22.943900 3.692800
22.976500 3.586200
23.009200 3.397800
23.041800 3.197500
23.074400 3.095600
23.107100 3.126100
23.139700 3.150800
23.172300 3.129000
23.205000 2.980500
23.237600 2.931900
23.270200 2.997700
23.302900 3.065100
23.335500 3.132200
23.368100 3.178700
23.400700 3.253500
23.433400 3.333400
23.466000 3.348800
23.498600 3.362300
23.531300 3.389100
23.563900 3.401200
23.596500 3.390200
23.629200 3.295700
23.661800 3.247600
23.694400 3.264100
23.727000 3.327800
23.759700 3.391200
23.792300 3.482000
23.824900 3.507300
23.857600 3.528000
23.890200 3.541200
23.922800 3.561000
23.955500 3.545300
23.988100 3.479400
24.020700 3.346600
24.053400 3.214000
24.086000 3.073300
24.118600 2.948400
24.151200 2.879300
24.183900 2.846100
24.216500 2.896800
24.249100 2.965600
24.281800 3.093800
24.314400 3.299800
24.347000 3.423100
24.379700 3.474000
24.412300 3.479600
24.444900 3.466400
24.477600 3.499600
24.510200 3.502200
24.542800 3.527700
24.575400 3.366200
24.608100 3.237000
24.640700 3.098800
24.673300 2.962900
24.706000 2.966000
24.738600 2.855500
24.771200 2.778900
24.803900 2.809800
24.836500 2.982800
24.869100 3.096600
24.901700 3.233900
24.934400 3.355800
24.967000 3.480200
24.999600 3.550200
25.032300 3.481600
25.064900 3.455100
25.097500 3.364600
25.130200 3.399400
25.162800 3.440200
25.195400 3.480800
25.228100 3.447300
25.260700 3.388500
25.293300 3.318900
25.325900 3.261700
25.358600 3.213300
25.391200 3.159900
25.423800 3.134200
25.456500 3.147800
25.489100 3.214100
25.521700 3.279800
25.554400 3.325700
25.587000 3.396900
25.619600 3.464600
25.652300 3.591100
25.684900 3.601000
25.717500 3.617300
25.750100 3.744400
25.782800 3.679400
25.815400 3.638100
25.848000 3.603300
25.880700 3.603100
25.913300 3.606500
25.945900 3.546900
25.978600 3.476300
26.011200 3.466600
26.043800 3.473900
26.076500 3.499900
26.109100 3.561500
26.141700 3.594700
26.174300 3.608100
26.207000 3.480400
26.239600 3.404500
26.272200 3.370200
26.304900 3.346800
26.337500 3.303100
26.370100 3.290100
26.402800 3.291700
26.435400 3.224200
26.468000 3.203300
26.500600 3.193800
26.533300 3.215200
26.565900 3.291200
26.598500 3.415100
26.631200 3.454100
26.663800 3.440900
26.696400 3.406500
26.729100 3.476200
26.761700 3.531800
26.794300 3.545800
26.827000 3.622000
26.859600 3.581900
26.892200 3.558100
26.924800 3.547800
26.957500 3.520400
26.990100 3.536700
27.022700 3.549700
27.055400 3.543300
27.088000 3.552000
27.120600 3.482300
27.153300 3.422400
27.185900 3.397200
27.218500 3.462700
27.251200 3.416600
27.283800 3.424500
27.316400 3.393500
27.349000 3.286600
27.381700 3.309100
27.414300 3.333600
27.446900 3.362500
27.479600 3.386700
27.512200 3.415500
27.544800 3.442600
27.577500 3.525100
27.610100 3.644200
27.642700 3.743800
27.675300 3.807200
27.708000 3.799900
27.740600 3.787000
27.773200 3.748800
27.805900 3.715300
27.838500 3.678100
27.871100 3.693100
27.903800 3.710000
27.936400 3.733000
27.969000 3.812300
28.001700 3.934900
28.034300 4.076900
28.066900 4.092100
28.099500 4.046800
28.132200 4.135100
28.164800 4.072600
28.197400 3.895600
28.230100 3.926300
28.262700 3.948000
28.295300 3.880600
28.328000 3.826600
28.360600 3.807800
28.393200 3.738000
28.425900 3.980700
28.458500 3.738700
28.491100 3.644500
28.523700 3.555800
28.556400 3.513300
28.589000 3.503300
28.621600 3.515700
28.654300 3.526200
28.686900 3.591900
28.719500 3.704300
28.752200 3.907900
28.784800 3.921300
28.817400 3.909500
28.850000 3.879200
28.882700 3.972100
28.915300 4.072500
28.947900 4.140500
28.980600 3.865900
29.013200 3.790300
29.045800 3.746200
29.078500 3.655400
29.111100 3.583500
29.143700 3.549200
29.176400 3.547300
29.209000 3.618800
29.241600 3.728600
29.274200 3.906800
29.306900 3.987200
29.339500 4.049600
29.372100 4.229600
29.404800 4.219900
29.437400 4.106100
29.470000 4.054500
29.502700 4.068100
29.535300 3.941300
29.567900 3.766100
29.600600 3.596600
29.633200 3.522900
29.665800 3.485700
29.698400 3.452400
29.731100 3.428300
29.763700 3.624000
29.796300 3.549600
29.829000 3.435800
29.861600 3.465400
29.894200 3.507300
29.926900 3.569100
29.959500 3.661700
29.992100 3.848500
30.024700 4.039900
30.057400 4.130700
30.090000 4.003000
30.122600 3.836700
30.155300 3.719900
30.187900 3.633000
30.220500 3.595900
30.253200 3.498700
30.285800 3.433700
30.318400 3.373500
30.351100 3.302500
30.383700 3.244200
30.416300 3.216200
30.448900 3.219900
30.481600 3.271700
30.514200 3.397300
30.546800 3.470400
30.579500 3.550900
30.612100 3.624900
30.644700 3.676100
30.677400 3.765600
30.710000 3.644800
30.742600 3.594400
30.775300 3.570900
30.807900 3.575400
30.840500 3.600400
30.873100 3.596900
30.905800 3.576500
30.938400 3.555500
30.971000 3.476800
31.003700 3.500300
31.036300 3.507000
31.068900 3.530700
31.101600 3.569000
31.134200 3.612100
31.166800 3.702600
31.199400 3.689100
31.232100 3.667000
31.264700 3.671600
31.297300 3.629200
31.330000 3.614000
31.362600 3.672100
31.395200 3.610500
31.427900 3.487400
31.460500 3.402400
31.493100 3.304000
31.525800 3.257200
31.558400 3.266400
31.591000 3.310200
31.623600 3.320600
31.656300 3.337700
31.688900 3.313900
31.721500 3.325500
31.754200 3.430600
31.786800 3.550800
31.819400 3.521000
31.852100 3.571200
31.884700 3.557800
31.917300 3.479600
31.950000 3.394000
31.982600 3.292900
32.015200 3.303800
32.047800 3.345900
32.080500 3.442700
32.113100 3.602700
32.145700 3.569900
32.178400 3.442300
32.211000 3.424000
32.243600 3.308600
32.276300 3.238900
32.308900 3.177400
32.341500 3.160600
32.374100 3.174500
32.406800 3.183000
32.439400 3.174300
32.472000 3.222300
32.504700 3.208100
32.537300 3.384400
32.569900 3.546700
32.602600 3.731300
32.635200 3.893300
32.667800 3.943200
32.700500 3.982300
32.733100 3.928500
32.765700 3.885400
32.798300 3.928300
32.831000 3.978000
32.863600 3.957100
32.896200 3.922200
32.928900 3.996600
32.961500 4.019900
32.994100 3.987400
33.026800 3.892600
33.059400 3.782700
33.092000 3.750300
33.124700 3.751300
33.157300 3.638400
33.189900 3.513100
33.222500 3.383100
33.255200 3.357300
33.287800 3.371800
33.320400 3.419000
33.353100 3.850600
33.385700 4.276100
33.418300 4.504600
33.451000 4.711300
33.483600 4.537000
33.516200 4.463500
33.548900 4.500300
33.581500 4.576500
33.614100 4.503500
33.646700 6.196200
33.679400 4.073700
33.712000 3.799100
33.744600 3.494900
33.777300 3.264200
33.809900 3.206000
33.842500 3.113900
33.875200 3.082600
33.907800 3.038900
33.940400 3.278300
33.973000 3.642800
34.005700 4.125200
34.038300 4.096400
34.070900 4.001300
34.103600 3.877900
34.136200 3.862200
34.168800 3.648800
34.201500 3.621500
34.234100 3.702200
34.266700 3.915300
34.299400 3.995900
34.332000 3.971800
34.364600 4.025000
34.397200 4.127000
34.429900 4.074100
34.462500 4.065800
34.495100 4.092000
34.527800 4.124500
34.560400 4.086600
34.593000 4.074000
34.625700 4.044400
34.658300 3.932600
34.690900 3.805400
34.723600 3.722100
34.756200 3.666900
34.788800 3.611300
34.821400 3.676200
34.854100 3.783300
34.886700 3.926400
34.919300 3.971000
34.952000 3.967200
34.984600 3.980600
35.017200 4.026500
35.049900 4.085900
35.082500 4.209400
35.115100 4.275600
35.147700 4.340800
35.180400 4.207300
35.213000 4.098600
35.245600 3.939000
35.278300 3.818300
35.310900 3.716700
35.343500 3.775800
35.376200 3.772100
35.408800 3.804300
35.441400 3.837600
35.474100 3.682500
35.506700 3.636700
35.539300 3.587400
35.571900 3.551000
35.604600 3.522700
35.637200 3.528200
35.669800 3.509000
35.702500 3.486100
35.735100 3.538500
35.767700 3.520700
35.800400 3.457600
35.833000 3.473200
35.865600 3.502100
35.898300 3.575200
35.930900 3.654000
35.963500 3.803600
35.996100 3.863100
36.028800 3.890800
36.061400 3.909500
36.094000 3.932700
36.126700 3.932700
36.159300 3.890700
36.191900 3.974100
36.224600 3.878300
36.257200 3.751800
36.289800 3.647200
36.322400 3.625400
36.355100 3.677100
36.387700 3.749000
36.420300 3.862300
36.453000 3.943700
36.485600 4.003100
36.518200 3.758700
36.550900 3.741800
36.583500 3.751900
36.616100 3.780400
36.648800 3.815500
36.681400 3.929500
36.714000 4.143800
36.746600 4.275800
36.779300 4.298000
36.811900 4.245000
36.844500 4.190600
36.877200 4.158300
36.909800 4.064200
36.942400 4.030000
36.975100 3.974300
37.007700 4.008900
37.040300 4.074700
37.073000 4.243100
37.105600 4.284000
37.138200 4.368700
37.170800 4.470200
37.203500 4.495000
37.236100 4.455200
37.268700 4.391300
37.301400 4.199700
37.334000 4.026700
37.366600 3.957200
37.399300 3.944800
37.431900 4.000200
37.464500 4.075400
37.497100 4.212000
37.529800 4.331800
37.562400 4.331500
37.595000 4.325900
37.627700 4.300100
37.660300 4.155600
37.692900 4.069200
37.725600 4.015400
37.758200 3.964600
37.790800 3.917100
37.823500 3.860300
37.856100 3.862000
37.888700 3.861100
37.921300 3.802100
37.954000 3.829200
37.986600 3.898700
38.019200 3.928900
38.051900 3.897200
38.084500 3.929300
38.117100 4.077600
38.149800 4.033000
38.182400 4.046100
38.215000 4.044500
38.247700 3.762100
38.280300 3.672400
38.312900 3.681000
38.345500 3.756000
38.378200 3.805900
38.410800 3.908000
38.443400 4.010300
38.476100 4.113100
38.508700 4.189000
38.541300 4.283600
38.574000 4.264600
38.606600 4.369400
38.639200 4.348100
38.671800 4.335400
38.704500 4.369700
38.737100 4.341800
38.769700 4.309300
38.802400 4.341600
38.835000 4.347500
38.867600 4.364000
38.900300 4.378500
38.932900 4.330600
38.965500 4.293200
38.998200 4.325900
39.030800 4.491800
39.063400 4.829800
39.096000 4.482900
39.128700 4.516800
39.161300 4.581200
39.193900 4.411900
39.226600 4.433500
39.259200 4.235300
39.291800 4.066700
39.324500 3.934100
39.357100 3.808600
39.389700 3.663900
39.422400 3.572800
39.455000 3.473400
39.487600 3.350300
39.520200 3.315800
39.552900 3.351900
39.585500 3.397400
39.618100 3.420600
39.650800 3.456200
39.683400 3.511000
39.716000 3.551700
39.748700 3.618800
39.781300 3.624100
39.813900 3.519300
39.846500 3.432000
39.879200 3.320200
39.911800 3.244600
39.944400 3.152700
39.977100 3.017700
40.009700 2.878600
40.042300 2.743700
40.075000 2.861500
40.107600 3.072400
40.140200 2.831000
40.172900 2.625800
40.205500 2.468100
40.238100 2.429300
40.270700 2.429800
40.303400 2.499300
40.336000 2.542100
40.368600 2.651400
40.401300 2.766400
40.433900 2.445200
40.466500 2.298900
40.499200 2.245400
40.531800 2.163400
40.564400 2.065900
40.597100 1.967300
40.629700 1.924400
40.662300 1.944900
40.694900 1.970500
40.727600 1.887000
40.760200 1.731800
40.792800 1.552100
40.825500 1.396500
40.858100 1.267600
40.890700 1.180400
40.923400 1.132600
40.956000 1.099400
40.988600 1.061800
41.021200 1.008800
41.053900 0.976100
41.086500 0.916300
41.119100 0.823400
41.151800 0.747700
41.184400 0.700300
41.217000 0.660700
41.249700 0.609400
41.282300 0.508600
41.314900 0.482400
41.347600 0.513800
41.380200 0.612500
41.412800 0.491700
41.445400 0.407000
41.478100 0.326200
41.510700 0.249200
41.543300 0.176000
41.576000 0.104000
41.608600 0.037600
41.641200 0.000000
41.673900 0.000000
41.706500 0.000000
41.739100 0.000000
41.771800 0.000000
41.804400 0.000000
41.837000 0.000000
41.869600 0.000000
41.902300 0.000000
41.934900 0.000000
41.967500 0.000000
42.000200 0.000000
42.032800 0.000000
42.065400 0.000000
42.098100 0.000000
42.130700 0.000000
42.163300 0.000000
42.196000 0.000000
42.228600 0.000000
42.261200 0.000000
42.293800 0.000000
42.326500 0.000000
42.359100 0.000000
42.391700 0.000000
42.424400 0.000000
42.457000 0.000000
42.489600 0.000000
42.522300 0.000000
42.554900 0.000000
42.587500 0.000000
42.620100 0.000000
42.652800 0.000000
42.685400 0.000000
42.718000 0.000000
42.750700 0.000000
42.783300 0.000000
42.815900 0.000000
42.848600 0.000000
42.881200 0.000000
42.913800 0.000000
42.946500 0.000000
42.979100 0.000000
43.011700 0.000000
43.044300 0.000000
43.077000 0.000000
43.109600 0.000000
43.142200 0.000000
43.174900 0.000000
43.207500 0.000000
43.240100 0.000000
43.272800 0.000000
43.305400 0.000000
43.338000 0.000000
43.370700 0.000000
43.403300 0.000000
43.435900 0.000000
43.468500 0.000000
43.501200 0.000000
43.533800 0.000000
43.566400 0.000000
43.599100 0.000000
43.631700 0.000000
43.664300 0.000000
43.697000 0.000000
43.729600 0.000000
43.762200 0.000000
43.794800 0.000000
43.827500 0.000000
43.860100 0.000000
43.892700 0.000000
43.925400 0.000000
43.958000 0.000000
43.990600 0.000000
44.023300 0.000000
44.055900 0.000000
44.088500 0.000000
44.121200 0.000000
44.153800 0.000000
44.186400 0.000000
44.219000 0.000000
44.251700 0.000000
44.284300 0.000000
44.316900 0.000000
44.349600 0.000000
44.382200 0.000000
44.414800 0.000000
44.447500 0.000000
44.480100 0.000000
44.512700 0.000000
44.545400 0.000000
44.578000 0.000000
44.610600 0.000000
e
