set title 'mp-1229041 - Density of States'
set xlabel 'Energy (eV)'
set ylabel 'DOS (states/eV)'
set grid
set xrange [-10:10]
set yrange [0:16.862]
set xzeroaxis lt -1
set terminal png size 800,600
set output 'mp-1229041_dos_gnuplot.png'
plot '-' using 1:2 with lines title 'DOS'
-9.864300 0.000000
-9.844900 0.000000
-9.825600 0.000000
-9.806200 0.000000
-9.786800 0.000000
-9.767500 0.000000
-9.748100 0.000000
-9.728800 0.000000
-9.709400 0.000000
-9.690000 0.000000
-9.670700 0.000000
-9.651300 0.000000
-9.631900 0.000000
-9.612600 0.000000
-9.593200 0.000000
-9.573800 0.000000
-9.554500 0.000000
-9.535100 0.000000
-9.515700 0.000000
-9.496400 0.000000
-9.477000 0.000000
-9.457600 0.000000
-9.438300 0.000000
-9.418900 0.000000
-9.399500 0.000000
-9.380200 0.000000
-9.360800 0.000000
-9.341400 0.000000
-9.322100 0.000000
-9.302700 0.000000
-9.283300 0.000000
-9.264000 0.000000
-9.244600 0.000000
-9.225200 0.000000
-9.205900 0.000000
-9.186500 0.000000
-9.167200 0.000000
-9.147800 0.000000
-9.128400 0.000000
-9.109100 0.000000
-9.089700 0.000000
-9.070300 0.000000
-9.051000 0.000000
-9.031600 0.000000
-9.012200 0.000000
-8.992900 0.000000
-8.973500 0.000000
-8.954100 0.000000
-8.934800 0.000000
-8.915400 0.000000
-8.896000 0.000000
-8.876700 0.000000
-8.857300 0.000000
-8.837900 0.000000
-8.818600 0.000000
-8.799200 0.000000
-8.779800 0.000000
-8.760500 0.000000
-8.741100 0.000000
-8.721700 0.000000
-8.702400 0.000000
-8.683000 0.000000
-8.663600 0.000000
-8.644300 0.000000
-8.624900 0.000000
-8.605600 0.000000
-8.586200 0.000000
-8.566800 0.000000
-8.547500 0.000000
-8.528100 0.000000
-8.508700 0.000000
-8.489400 0.000000
-8.470000 0.000000
-8.450600 0.000000
-8.431300 0.000000
-8.411900 0.000000
-8.392500 0.000000
-8.373200 0.000000
-8.353800 0.000000
-8.334400 0.000000
-8.315100 0.000000
-8.295700 0.000000
-8.276300 0.000000
-8.257000 0.000000
-8.237600 0.000000
-8.218200 0.000000
-8.198900 0.000000
-8.179500 0.000000
-8.160100 0.000000
-8.140800 0.000000
-8.121400 0.000000
-8.102000 0.000300
-8.082700 0.038900
-8.063300 0.143100
-8.043900 0.349300
-8.024600 0.506700
-8.005200 0.577600
-7.985900 0.511400
-7.966500 0.463300
-7.947100 0.490700
-7.927800 0.631200
-7.908400 0.813900
-7.889000 0.968000
-7.869700 1.047400
-7.850300 1.056100
-7.830900 1.015200
-7.811600 0.970800
-7.792200 0.955100
-7.772800 0.972200
-7.753500 1.002700
-7.734100 1.033200
-7.714700 1.040200
-7.695400 1.036200
-7.676000 1.022400
-7.656600 1.015000
-7.637300 1.014100
-7.617900 1.021400
-7.598500 1.034500
-7.579200 1.042300
-7.559800 1.041100
-7.540400 1.036100
-7.521100 1.035300
-7.501700 1.041300
-7.482300 1.051200
-7.463000 1.080800
-7.443600 1.216700
-7.424300 1.427500
-7.404900 1.603000
-7.385500 1.623200
-7.366200 1.554100
-7.346800 1.501100
-7.327400 1.505400
-7.308100 1.536700
-7.288700 1.568100
-7.269300 1.599500
-7.250000 1.630600
-7.230600 1.646900
-7.211200 1.627900
-7.191900 1.598500
-7.172500 1.580900
-7.153100 1.587700
-7.133800 1.600500
-7.114400 1.613400
-7.095000 1.623900
-7.075700 1.632200
-7.056300 1.639300
-7.036900 1.646600
-7.017600 1.655000
-6.998200 1.666200
-6.978800 1.680800
-6.959500 1.691100
-6.940100 1.688700
-6.920700 1.682800
-6.901400 1.680600
-6.882000 1.687100
-6.862700 1.695900
-6.843300 1.705300
-6.823900 1.715900
-6.804600 1.728000
-6.785200 1.740600
-6.765800 1.752600
-6.746500 1.763700
-6.727100 1.775500
-6.707700 1.789000
-6.688400 1.803800
-6.669000 1.819200
-6.649600 1.835100
-6.630300 1.850800
-6.610900 1.865600
-6.591500 1.876400
-6.572200 1.882600
-6.552800 1.889300
-6.533400 1.898600
-6.514100 1.910500
-6.494700 1.922300
-6.475300 1.934300
-6.456000 1.953000
-6.436600 1.981600
-6.417200 2.026100
-6.397900 2.067800
-6.378500 2.103200
-6.359100 2.128500
-6.339800 2.153300
-6.320400 2.178000
-6.301000 2.215200
-6.281700 2.259100
-6.262300 2.308800
-6.243000 2.355200
-6.223600 2.481300
-6.204200 2.667400
-6.184900 3.007400
-6.165500 2.880800
-6.146100 2.719400
-6.126800 2.461700
-6.107400 2.460500
-6.088000 2.459100
-6.068700 2.456300
-6.049300 2.718600
-6.029900 2.766100
-6.010600 2.796800
-5.991200 2.614800
-5.971800 2.464200
-5.952500 2.312600
-5.933100 2.213100
-5.913700 2.186700
-5.894400 2.160400
-5.875000 2.134100
-5.855600 2.107800
-5.836300 2.053400
-5.816900 2.019600
-5.797500 1.998800
-5.778200 1.997600
-5.758800 2.001900
-5.739400 2.009900
-5.720100 1.998900
-5.700700 1.986900
-5.681400 1.970800
-5.662000 1.970600
-5.642600 1.970400
-5.623300 1.970200
-5.603900 1.969800
-5.584500 1.968900
-5.565200 2.045200
-5.545800 2.238000
-5.526400 2.439900
-5.507100 2.286200
-5.487700 2.048300
-5.468300 1.815900
-5.449000 1.784100
-5.429600 1.751900
-5.410200 1.719800
-5.390900 1.687700
-5.371500 1.654100
-5.352100 1.619000
-5.332800 1.566200
-5.313400 1.509100
-5.294000 1.454300
-5.274700 1.434500
-5.255300 1.414600
-5.235900 1.394700
-5.216600 1.374800
-5.197200 1.354900
-5.177800 1.329400
-5.158500 1.308700
-5.139100 1.288300
-5.119800 1.268200
-5.100400 1.250300
-5.081000 1.232500
-5.061700 1.213400
-5.042300 1.185000
-5.022900 1.151700
-5.003600 1.138500
-4.984200 1.125400
-4.964800 1.112700
-4.945500 1.100600
-4.926100 1.089400
-4.906700 1.074700
-4.887400 1.060300
-4.868000 1.046100
-4.848600 1.032000
-4.829300 1.017800
-4.809900 1.003900
-4.790500 0.990500
-4.771200 0.978500
-4.751800 0.965900
-4.732400 0.953200
-4.713100 0.940400
-4.693700 0.927100
-4.674300 0.909600
-4.655000 0.889200
-4.635600 0.877600
-4.616200 0.866500
-4.596900 0.855700
-4.577500 0.848800
-4.558100 0.850600
-4.538800 0.850400
-4.519400 0.849200
-4.500100 0.831300
-4.480700 0.813400
-4.461300 0.795900
-4.442000 0.778500
-4.422600 0.761000
-4.403200 0.743500
-4.383900 0.726000
-4.364500 0.722600
-4.345100 0.708900
-4.325800 0.823100
-4.306400 0.768200
-4.287000 0.715500
-4.267700 0.518300
-4.248300 0.506000
-4.228900 0.494300
-4.209600 0.480900
-4.190200 0.467400
-4.170800 0.453900
-4.151500 0.440400
-4.132100 0.426900
-4.112700 0.413600
-4.093400 0.400600
-4.074000 0.399600
-4.054600 0.373100
-4.035300 0.347900
-4.015900 0.324200
-3.996500 0.241500
-3.977200 0.238500
-3.957800 0.235600
-3.938500 0.232600
-3.919100 0.229600
-3.899700 0.226600
-3.880400 0.223700
-3.861000 0.220700
-3.841600 0.226600
-3.822300 0.233300
-3.802900 0.245500
-3.783500 0.236500
-3.764200 0.227500
-3.744800 0.218500
-3.725400 0.209500
-3.706100 0.200500
-3.686700 0.191600
-3.667300 0.182600
-3.648000 0.173600
-3.628600 0.164600
-3.609200 0.155700
-3.589900 0.146700
-3.570500 0.238400
-3.551100 0.198500
-3.531800 0.000000
-3.512400 0.000000
-3.493000 0.000000
-3.473700 0.000000
-3.454300 0.000000
-3.434900 0.000000
-3.415600 0.000000
-3.396200 0.000000
-3.376800 0.000000
-3.357500 0.000000
-3.338100 0.000000
-3.318800 0.000000
-3.299400 0.000000
-3.280000 0.000000
-3.260700 0.000000
-3.241300 0.000000
-3.221900 0.000000
-3.202600 0.000000
-3.183200 0.000000
-3.163800 0.000000
-3.144500 0.000000
-3.125100 0.000000
-3.105700 0.000000
-3.086400 0.000000
-3.067000 0.000000
-3.047600 0.000000
-3.028300 0.000000
-3.008900 0.000000
-2.989500 0.000000
-2.970200 0.000000
-2.950800 0.000000
-2.931400 0.000000
-2.912100 0.000000
-2.892700 0.000000
-2.873300 0.000000
-2.854000 0.000000
-2.834600 0.000000
-2.815200 0.000000
-2.795900 0.000000
-2.776500 0.000000
-2.757200 0.000000
-2.737800 0.000000
-2.718400 0.000000
-2.699100 0.000000
-2.679700 0.000000
-2.660300 0.000000
-2.641000 0.000000
-2.621600 0.000000
-2.602200 0.000000
-2.582900 0.000000
-2.563500 0.000000
-2.544100 0.000000
-2.524800 0.000000
-2.505400 0.000000
-2.486000 0.000000
-2.466700 0.000000
-2.447300 0.000000
-2.427900 0.000000
-2.408600 0.000000
-2.389200 0.000000
-2.369800 0.000000
-2.350500 0.000000
-2.331100 0.000000
-2.311700 0.000000
-2.292400 0.000000
-2.273000 0.000000
-2.253600 0.000000
-2.234300 0.000000
-2.214900 0.000000
-2.195600 0.000000
-2.176200 0.000000
-2.156800 0.000000
-2.137500 0.000000
-2.118100 0.000000
-2.098700 0.000000
-2.079400 0.000000
-2.060000 0.000000
-2.040600 0.000000
-2.021300 0.000000
-2.001900 0.000000
-1.982500 0.000000
-1.963200 0.000000
-1.943800 0.000000
-1.924400 0.000000
-1.905100 0.000000
-1.885700 0.000000
-1.866300 0.000000
-1.847000 0.000000
-1.827600 0.000000
-1.808200 0.000000
-1.788900 0.000000
-1.769500 0.000000
-1.750100 0.000000
-1.730800 0.000000
-1.711400 0.000000
-1.692000 0.000000
-1.672700 0.000000
-1.653300 0.000000
-1.633900 0.000000
-1.614600 0.000000
-1.595200 0.000000
-1.575900 0.000000
-1.556500 0.000000
-1.537100 0.000000
-1.517800 0.000000
-1.498400 0.000000
-1.479000 0.000000
-1.459700 0.000000
-1.440300 0.000000
-1.420900 0.000000
-1.401600 0.000000
-1.382200 0.000000
-1.362800 0.000000
-1.343500 0.000000
-1.324100 0.000000
-1.304700 0.000000
-1.285400 0.000000
-1.266000 0.000000
-1.246600 0.000000
-1.227300 0.000000
-1.207900 0.000000
-1.188500 0.000000
-1.169200 0.000000
-1.149800 0.000000
-1.130400 0.000000
-1.111100 0.000000
-1.091700 0.000000
-1.072300 0.000000
-1.053000 0.000000
-1.033600 0.000000
-1.014300 0.000000
-0.994900 0.000000
-0.975500 0.000000
-0.956200 0.000000
-0.936800 0.000000
-0.917400 0.000000
-0.898100 0.000000
-0.878700 0.000000
-0.859300 0.000000
-0.840000 0.000000
-0.820600 0.000000
-0.801200 0.000000
-0.781900 0.000000
-0.762500 0.666300
-0.743100 0.998100
-0.723800 0.678000
-0.704400 0.533100
-0.685000 0.565400
-0.665700 0.597700
-0.646300 0.634600
-0.626900 0.837800
-0.607600 0.992100
-0.588200 0.994000
-0.568800 1.027000
-0.549500 1.121100
-0.530100 1.220000
-0.510700 1.323900
-0.491400 1.420500
-0.472000 1.605100
-0.452700 1.834300
-0.433300 2.023400
-0.413900 2.194800
-0.394600 2.513300
-0.375200 2.566300
-0.355800 2.492500
-0.336500 2.611100
-0.317100 2.730000
-0.297700 2.847600
-0.278400 2.950800
-0.259000 3.046400
-0.239600 3.171800
-0.220300 3.281400
-0.200900 3.421300
-0.181500 3.615200
-0.162200 3.778100
-0.142800 3.949900
-0.123400 4.130500
-0.104100 4.305200
-0.084700 4.338000
-0.065300 4.351200
-0.046000 4.268300
-0.026600 4.104200
-0.007200 3.947900
0.012100 3.913500
0.031500 4.352900
0.050900 4.584000
0.070200 5.299500
0.089600 5.331200
0.109000 5.217100
0.128300 7.110400
0.147700 5.371900
0.167000 6.009300
0.186400 7.136700
0.205800 7.273400
0.225100 7.302900
0.244500 7.326000
0.263900 7.677500
0.283200 7.588400
0.302600 9.134800
0.322000 10.237700
0.341300 9.976500
0.360700 8.991500
0.380100 6.612500
0.399400 6.928100
0.418800 7.539200
0.438200 8.414900
0.457500 7.441900
0.476900 7.500900
0.496300 7.582800
0.515600 9.126100
0.535000 10.387100
0.554400 9.548600
0.573700 9.098700
0.593100 8.594500
0.612500 8.323400
0.631800 8.239500
0.651200 6.961000
0.670600 6.102900
0.689900 5.133300
0.709300 5.860000
0.728600 5.783100
0.748000 6.038400
0.767400 5.988600
0.786700 7.015200
0.806100 11.034400
0.825500 9.452800
0.844800 8.287900
0.864200 6.741300
0.883600 6.558400
0.902900 6.470200
0.922300 6.146400
0.941700 7.413000
0.961000 9.611300
0.980400 9.782500
0.999800 15.329300
1.019100 12.911500
1.038500 13.005300
1.057900 11.843000
1.077200 9.796600
1.096600 11.033400
1.116000 11.045200
1.135300 10.779600
1.154700 7.836000
1.174100 6.804000
1.193400 6.350700
1.212800 6.056700
1.232200 5.773600
1.251500 5.782000
1.270900 5.933400
1.290200 5.902600
1.309600 6.010500
1.329000 6.018300
1.348300 6.850000
1.367700 6.769100
1.387100 5.669700
1.406400 4.410400
1.425800 4.502900
1.445200 4.576600
1.464500 5.281000
1.483900 6.325700
1.503300 5.997900
1.522600 6.079500
1.542000 5.400700
1.561400 4.254400
1.580700 4.248100
1.600100 4.254100
1.619500 4.308200
1.638800 4.337900
1.658200 4.375700
1.677600 4.428000
1.696900 4.827900
1.716300 4.483400
1.735700 3.850200
1.755000 3.235100
1.774400 2.983600
1.793800 2.826400
1.813100 2.733400
1.832500 2.546700
1.851900 2.547500
1.871200 2.970700
1.890600 3.181200
1.909900 3.372300
1.929300 3.101400
1.948700 2.727200
1.968000 2.621700
1.987400 2.551800
2.006800 2.540100
2.026100 2.582800
2.045500 2.611900
2.064900 2.628300
2.084200 2.526500
2.103600 2.510700
2.123000 2.542800
2.142300 2.550600
2.161700 2.564400
2.181100 2.589000
2.200400 2.609600
2.219800 2.636200
2.239200 2.657000
2.258500 2.661000
2.277900 2.649200
2.297300 2.675300
2.316600 2.679500
2.336000 2.667500
2.355400 2.675300
2.374700 2.751700
2.394100 2.809200
2.413500 2.910700
2.432800 2.959100
2.452200 3.025600
2.471500 3.075500
2.490900 3.085900
2.510300 3.096400
2.529600 3.128100
2.549000 3.603200
2.568400 4.412400
2.587700 4.231400
2.607100 3.479100
2.626500 3.467300
2.645800 3.437800
2.665200 3.410500
2.684600 3.391100
2.703900 3.385000
2.723300 3.403500
2.742700 3.425600
2.762000 3.502400
2.781400 3.453600
2.800800 3.484200
2.820100 3.495100
2.839500 3.539900
2.858900 3.491300
2.878200 3.447200
2.897600 3.413900
2.917000 3.337000
2.936300 3.255900
2.955700 3.173800
2.975100 3.123800
2.994400 3.099100
3.013800 3.070700
3.033100 3.100300
3.052500 3.078200
3.071900 3.050400
3.091200 2.988700
3.110600 2.919900
3.130000 2.824800
3.149300 2.766900
3.168700 2.750800
3.188100 2.699000
3.207400 2.913100
3.226800 2.885500
3.246200 2.799100
3.265500 2.614200
3.284900 2.600600
3.304300 2.659800
3.323600 2.730500
3.343000 2.703900
3.362400 2.666600
3.381700 2.481600
3.401100 2.460200
3.420500 2.476200
3.439800 2.465500
3.459200 2.435500
3.478600 2.440300
3.497900 2.466800
3.517300 2.530200
3.536700 2.754300
3.556000 2.449600
3.575400 2.453700
3.594800 2.477100
3.614100 2.498600
3.633500 2.520500
3.652800 2.544100
3.672200 2.629900
3.691600 2.648300
3.710900 2.664300
3.730300 2.679000
3.749700 2.606300
3.769000 2.584400
3.788400 2.563600
3.807800 2.562900
3.827100 2.488400
3.846500 2.295400
3.865900 2.305300
3.885200 2.318200
3.904600 2.346900
3.924000 2.386500
3.943300 2.424600
3.962700 2.509300
3.982100 2.482600
4.001400 2.455400
4.020800 2.425200
4.040200 2.358500
4.059500 2.281900
4.078900 2.277100
4.098300 2.274900
4.117600 2.341100
4.137000 2.338200
4.156400 2.256600
4.175700 2.262900
4.195100 2.268800
4.214400 2.287400
4.233800 2.296600
4.253200 2.297300
4.272500 2.276000
4.291900 2.276200
4.311300 2.278900
4.330600 2.396700
4.350000 2.435600
4.369400 2.469100
4.388700 2.492300
4.408100 2.506000
4.427500 2.505000
4.446800 2.469100
4.466200 2.431500
4.485600 2.400900
4.504900 2.429800
4.524300 2.512700
4.543700 2.449100
4.563000 2.335500
4.582400 2.362700
4.601800 2.251600
4.621100 2.278900
4.640500 2.300600
4.659900 2.331300
4.679200 2.342300
4.698600 2.290600
4.718000 2.267600
4.737300 2.241300
4.756700 2.183600
4.776100 2.148900
4.795400 2.096600
4.814800 2.032600
4.834100 1.981300
4.853500 1.947200
4.872900 1.924500
4.892200 1.867600
4.911600 1.840100
4.931000 1.818200
4.950300 1.807300
4.969700 1.797300
4.989100 1.788400
5.008400 1.722800
5.027800 1.712400
5.047200 1.692300
5.066500 1.631100
5.085900 1.573000
5.105300 1.506900
5.124600 1.487600
5.144000 1.470700
5.163400 1.457800
5.182700 1.452300
5.202100 1.470700
5.221500 1.555400
5.240800 1.601500
5.260200 1.675900
5.279600 1.553800
5.298900 1.492400
5.318300 1.499600
5.337700 1.507100
5.357000 1.569400
5.376400 1.584300
5.395700 1.732400
5.415100 1.724500
5.434500 1.713400
5.453800 1.725400
5.473200 1.721100
5.492600 1.658500
5.511900 1.663900
5.531300 1.669200
5.550700 1.676600
5.570000 1.680000
5.589400 1.685000
5.608800 1.685400
5.628100 1.692500
5.647500 1.771900
5.666900 2.021700
5.686200 1.815200
5.705600 1.809500
5.725000 1.804500
5.744300 1.792500
5.763700 1.770200
5.783100 1.746000
5.802400 1.775100
5.821800 1.836100
5.841200 1.800200
5.860500 1.765900
5.879900 1.734300
5.899300 1.708000
5.918600 1.687400
5.938000 1.665700
5.957300 1.668500
5.976700 1.671400
5.996100 1.675300
6.015400 1.992800
6.034800 2.129100
6.054200 2.167400
6.073500 2.208300
6.092900 2.135600
6.112300 2.066000
6.131600 2.085500
6.151000 2.141300
6.170400 2.179300
6.189700 2.179300
6.209100 2.121800
6.228500 2.138000
6.247800 2.151800
6.267200 2.165600
6.286600 2.179600
6.305900 2.297700
6.325300 2.418100
6.344700 2.324100
6.364000 2.148000
6.383400 2.033400
6.402800 2.131700
6.422100 2.112200
6.441500 2.095100
6.460900 1.960800
6.480200 2.035400
6.499600 2.265600
6.519000 2.397400
6.538300 3.782800
6.557700 2.351000
6.577000 2.382900
6.596400 2.392900
6.615800 2.374000
6.635100 2.283200
6.654500 2.408300
6.673900 2.179600
6.693200 2.104200
6.712600 2.075600
6.732000 2.102900
6.751300 2.591900
6.770700 2.241800
6.790100 2.248700
6.809400 2.255500
6.828800 2.265000
6.848200 2.277800
6.867500 2.294000
6.886900 2.345600
6.906300 2.379200
6.925600 2.438100
6.945000 2.520400
6.964400 2.592700
6.983700 2.585800
7.003100 2.582100
7.022500 2.583000
7.041800 2.518100
7.061200 2.467300
7.080600 2.414600
7.099900 2.435900
7.119300 2.555300
7.138600 2.627100
7.158000 2.684100
7.177400 2.802000
7.196700 2.931000
7.216100 3.051900
7.235500 3.153300
7.254800 3.084800
7.274200 2.916700
7.293600 2.779100
7.312900 2.671400
7.332300 2.578000
7.351700 2.503900
7.371000 2.457800
7.390400 2.427700
7.409800 2.399600
7.429100 2.369100
7.448500 2.334800
7.467900 2.293200
7.487200 2.252100
7.506600 2.211600
7.526000 2.176000
7.545300 2.142300
7.564700 2.113900
7.584100 2.087900
7.603400 2.063700
7.622800 2.040500
7.642200 2.022900
7.661500 2.036200
7.680900 2.096300
7.700200 2.077100
7.719600 2.001500
7.739000 1.823700
7.758300 1.794600
7.777700 1.768300
7.797100 1.741600
7.816400 1.715400
7.835800 1.688800
7.855200 1.663500
7.874500 1.640200
7.893900 1.613400
7.913300 1.596000
7.932600 1.580600
7.952000 1.566800
7.971400 1.666700
7.990700 1.661200
8.010100 1.656000
8.029500 1.648200
8.048800 1.641100
8.068200 1.642300
8.087600 1.653300
8.106900 1.664900
8.126300 1.672900
8.145700 1.672000
8.165000 1.671600
8.184400 1.890700
8.203800 1.623900
8.223100 1.638700
8.242500 1.850100
8.261900 1.869800
8.281200 1.822500
8.300600 1.759700
8.319900 1.680300
8.339300 1.610600
8.358700 1.553600
8.378000 1.504600
8.397400 1.463800
8.416800 1.286700
8.436100 1.197700
8.455500 1.163600
8.474900 1.141300
8.494200 1.128300
8.513600 1.125500
8.533000 1.123000
8.552300 1.116100
8.571700 1.196900
8.591100 1.336600
8.610400 1.407700
8.629800 2.584500
8.649200 2.615400
8.668500 2.234000
8.687900 1.466500
8.707300 1.572100
8.726600 1.658300
8.746000 1.751000
8.765400 1.829800
8.784700 1.832100
8.804100 1.804300
8.823500 1.843300
8.842800 2.127300
8.862200 2.200800
8.881500 2.010800
8.900900 2.028000
8.920300 2.052200
8.939600 2.069200
8.959000 2.111000
8.978400 2.152300
8.997700 2.278400
9.017100 2.195900
9.036500 2.093200
9.055800 2.037600
9.075200 1.988900
9.094600 2.003400
9.113900 2.739000
9.133300 2.537700
9.152700 2.145400
9.172000 2.305400
9.191400 2.524200
9.210800 2.414800
9.230100 2.434800
9.249500 2.426600
9.268900 2.421300
9.288200 2.409600
9.307600 2.418900
9.327000 2.521200
9.346300 2.449600
9.365700 2.372000
9.385100 2.292500
9.404400 2.241500
9.423800 2.160000
9.443100 1.820800
9.462500 1.791800
9.481900 1.772900
9.501200 1.744000
9.520600 1.702700
9.540000 1.683100
9.559300 1.671000
9.578700 1.658500
9.598100 1.645600
9.617400 1.632200
9.636800 1.618200
9.656200 1.603600
9.675500 1.573200
9.694900 1.537700
9.714300 1.508400
9.733600 1.408600
9.753000 1.395200
9.772400 1.382500
9.791700 1.411200
9.811100 1.449300
9.830500 1.489000
9.849800 1.593300
9.869200 1.553500
9.888600 1.506500
9.907900 1.461800
9.927300 1.451000
9.946700 1.444100
9.966000 1.413600
9.985400 1.395900
10.004800 1.398000
10.024100 1.416500
10.043500 1.439700
10.062800 1.453700
10.082200 1.463900
10.101600 1.477400
10.120900 1.496300
10.140300 1.766200
10.159700 1.817400
10.179000 1.722800
10.198400 1.761800
10.217800 1.799900
10.237100 1.837600
10.256500 1.922000
10.275900 1.961200
10.295200 2.002900
10.314600 2.050300
10.334000 2.075900
10.353300 2.122200
10.372700 2.164100
10.392100 2.170800
10.411400 2.185200
10.430800 2.206000
10.450200 2.243200
10.469500 2.283200
10.488900 2.333900
10.508300 2.390500
10.527600 2.421700
10.547000 2.438200
10.566400 2.392800
10.585700 2.404400
10.605100 2.412000
10.624400 2.418100
10.643800 2.500000
10.663200 2.473900
10.682500 2.441900
10.701900 2.408700
10.721300 2.375400
10.740600 2.351100
10.760000 2.329000
10.779400 2.208400
10.798700 2.204300
10.818100 2.178000
10.837500 2.153800
10.856800 2.131600
10.876200 2.109800
10.895600 2.088600
10.914900 2.086300
10.934300 1.944300
10.953700 1.919400
10.973000 1.899100
10.992400 1.882100
11.011800 1.860100
11.031100 1.847200
11.050500 1.836000
11.069900 1.826200
11.089200 1.818300
11.108600 1.810700
11.128000 1.802800
11.147300 1.795500
11.166700 1.746400
11.186000 1.747100
11.205400 1.756800
11.224800 1.784500
11.244100 1.746100
11.263500 1.730200
11.282900 1.728600
11.302200 1.834100
11.321600 1.846900
11.341000 1.894700
11.360300 1.909600
11.379700 1.920000
11.399100 1.926700
11.418400 1.922800
11.437800 2.063200
11.457200 2.117500
11.476500 2.757900
11.495900 2.881000
11.515300 2.867700
11.534600 2.678000
11.554000 2.090300
11.573400 2.137500
11.592700 2.175700
11.612100 2.172700
11.631500 2.165800
11.650800 2.214900
11.670200 2.236300
11.689600 2.267100
11.708900 2.303800
11.728300 2.345200
11.747700 2.397800
11.767000 2.457700
11.786400 2.529500
11.805700 2.618900
11.825100 2.738500
11.844500 2.842100
11.863800 2.952700
11.883200 3.064000
11.902600 3.270500
11.921900 3.349400
11.941300 3.392100
11.960700 3.416900
11.980000 3.445300
11.999400 3.370900
12.018800 3.309900
12.038100 3.248400
12.057500 3.185800
12.076900 3.130500
12.096200 3.151200
12.115600 3.131800
12.135000 3.114600
12.154300 3.090600
12.173700 3.059600
12.193100 3.305700
12.212400 3.115800
12.231800 3.033600
12.251200 2.907200
12.270500 2.872100
12.289900 2.840600
12.309300 2.809200
12.328600 2.765400
12.348000 2.725900
12.367300 2.686100
12.386700 2.645200
12.406100 2.623800
12.425400 2.707500
12.444800 2.820400
12.464200 2.778000
12.483500 2.734700
12.502900 2.647600
12.522300 2.556600
12.541600 2.527900
12.561000 2.419000
12.580400 2.401700
12.599700 2.417900
12.619100 2.449300
12.638500 2.486900
12.657800 2.448900
12.677200 2.489000
12.696600 2.534400
12.715900 2.804000
12.735300 2.841900
12.754700 2.860400
12.774000 2.913000
12.793400 2.967100
12.812800 3.034200
12.832100 3.066400
12.851500 3.088200
12.870900 3.109600
12.890200 3.210400
12.909600 3.242800
12.929000 3.251600
12.948300 3.077600
12.967700 3.065900
12.987000 3.118900
13.006400 3.134200
13.025800 3.163300
13.045100 3.110800
13.064500 3.105000
13.083900 3.111500
13.103200 3.149300
13.122600 3.192500
13.142000 3.599800
13.161300 3.329400
13.180700 3.385100
13.200100 3.439900
13.219400 3.516700
13.238800 3.700200
13.258200 3.604500
13.277500 3.608400
13.296900 3.631400
13.316300 3.606800
13.335600 3.616900
13.355000 3.645800
13.374400 3.790200
13.393700 3.838100
13.413100 4.020000
13.432500 3.946200
13.451800 3.876800
13.471200 3.889000
13.490600 3.955500
13.509900 4.012900
13.529300 4.054400
13.548600 4.156700
13.568000 4.229600
13.587400 4.272600
13.606700 4.210900
13.626100 4.128900
13.645500 4.054700
13.664800 4.032600
13.684200 3.993200
13.703600 3.925000
13.722900 3.853800
13.742300 3.787400
13.761700 3.755200
13.781000 3.714700
13.800400 3.689300
13.819800 3.708100
13.839100 3.714400
13.858500 3.749100
13.877900 3.774700
13.897200 3.826000
13.916600 3.860500
13.936000 3.899000
13.955300 3.860500
13.974700 3.884200
13.994100 3.925800
14.013400 4.112500
14.032800 4.148100
14.052200 4.169700
14.071500 4.466800
14.090900 4.334300
14.110200 4.190600
14.129600 3.726400
14.149000 3.656000
14.168300 3.745300
14.187700 3.741800
14.207100 3.759100
14.226400 3.811800
14.245800 3.852400
14.265200 3.881900
14.284500 3.935300
14.303900 3.862700
14.323300 3.917500
14.342600 3.980000
14.362000 4.040600
14.381400 4.102200
14.400700 4.169200
14.420100 4.237200
14.439500 4.354400
14.458800 4.406200
14.478200 4.532600
14.497600 4.575200
14.516900 4.556200
14.536300 4.642400
14.555700 4.667700
14.575000 4.706700
14.594400 4.663600
14.613800 4.717400
14.633100 4.663900
14.652500 4.496900
14.671900 4.431100
14.691200 4.361100
14.710600 4.293300
14.729900 4.215300
14.749300 4.260100
14.768700 4.333500
14.788000 4.433900
14.807400 4.370100
14.826800 4.286300
14.846100 4.253700
14.865500 4.310000
14.884900 4.381900
14.904200 4.518300
14.923600 4.660100
14.943000 5.152300
14.962300 3.886400
14.981700 3.883300
15.001100 3.964900
15.020400 4.032800
15.039800 4.104600
15.059200 4.156800
15.078500 4.234600
15.097900 4.415300
15.117300 4.302400
15.136600 4.215900
15.156000 3.833000
15.175400 3.712700
15.194700 3.601100
15.214100 3.479400
15.233500 3.321600
15.252800 3.271800
15.272200 3.353700
15.291500 3.339700
15.310900 3.332100
15.330300 3.313800
15.349600 3.282200
15.369000 3.264300
15.388400 3.215300
15.407700 3.220200
15.427100 3.232400
15.446500 3.708300
15.465800 3.801800
15.485200 3.753000
15.504600 3.670000
15.523900 3.683000
15.543300 3.448600
15.562700 3.349100
15.582000 3.285100
15.601400 3.185000
15.620800 3.099200
15.640100 3.027200
15.659500 2.973600
15.678900 3.188000
15.698200 3.280300
15.717600 3.382100
15.737000 3.490600
15.756300 3.566400
15.775700 3.665700
15.795100 3.697000
15.814400 3.890200
15.833800 3.870600
15.853100 3.773400
15.872500 3.607400
15.891900 3.515000
15.911200 3.470900
15.930600 3.484900
15.950000 3.606400
15.969300 3.786500
15.988700 3.820100
16.008100 3.723300
16.027400 3.751600
16.046800 3.714600
16.066200 3.692000
16.085500 3.656800
16.104900 3.600600
16.124300 3.607200
16.143600 3.636500
16.163000 3.654500
16.182400 3.540100
16.201700 3.427300
16.221100 3.408800
16.240500 3.397600
16.259800 3.089000
16.279200 3.053100
16.298600 3.084500
16.317900 3.146000
16.337300 3.245500
16.356700 3.370700
16.376000 3.988600
16.395400 4.221100
16.414800 4.400400
16.434100 4.546200
16.453500 4.653300
16.472800 4.618800
16.492200 4.680300
16.511600 4.744900
16.530900 4.792900
16.550300 4.861200
16.569700 4.710800
16.589000 4.520000
16.608400 4.477600
16.627800 4.522500
16.647100 4.470500
16.666500 4.421900
16.685900 4.360700
16.705200 4.318200
16.724600 4.277700
16.744000 4.239900
16.763300 4.204500
16.782700 4.164700
16.802100 4.097400
16.821400 4.107800
16.840800 4.091700
16.860200 4.006100
16.879500 4.014300
16.898900 4.042200
16.918300 4.078800
16.937600 4.131900
16.957000 4.196600
16.976400 4.699800
16.995700 4.941200
17.015100 4.608700
17.034400 4.464200
17.053800 4.701500
17.073200 4.567700
17.092500 4.487100
17.111900 4.320900
17.131300 4.203000
17.150600 4.222200
17.170000 4.271600
17.189400 4.345600
17.208700 4.298000
17.228100 4.266500
17.247500 4.239600
17.266800 4.209000
17.286200 4.178800
17.305600 4.174600
17.324900 3.970600
17.344300 3.851400
17.363700 3.727100
17.383000 3.609300
17.402400 3.555300
17.421800 3.670600
17.441100 4.164400
17.460500 3.810900
17.479900 3.708200
17.499200 3.627800
17.518600 3.563800
17.538000 3.456300
17.557300 3.440000
17.576700 3.623300
17.596000 4.063000
17.615400 4.323200
17.634800 4.137900
17.654100 4.049700
17.673500 4.012500
17.692900 4.083500
17.712200 4.100200
17.731600 3.996500
17.751000 4.009700
17.770300 4.007200
17.789700 4.061000
17.809100 4.093400
17.828400 3.992200
17.847800 3.887100
17.867200 3.871000
17.886500 3.875100
17.905900 3.880400
17.925300 3.738600
17.944600 3.705300
17.964000 3.747400
17.983400 3.758000
18.002700 3.781300
18.022100 3.818400
18.041500 3.864200
18.060800 3.894300
18.080200 3.923800
18.099600 3.934400
18.118900 3.957700
18.138300 3.958800
18.157700 3.949800
18.177000 3.954400
18.196400 3.969000
18.215700 3.986700
18.235100 4.017100
18.254500 4.042500
18.273800 4.060200
18.293200 4.259500
18.312600 4.236500
18.331900 4.225600
18.351300 4.267600
18.370700 4.301000
18.390000 4.395900
18.409400 4.450600
18.428800 4.431000
18.448100 4.284100
18.467500 4.267200
18.486900 4.241000
18.506200 4.263800
18.525600 4.352900
18.545000 4.448400
18.564300 4.460400
18.583700 4.589200
18.603100 4.676600
18.622400 4.686400
18.641800 4.754900
18.661200 4.814600
18.680500 4.768800
18.699900 4.697000
18.719300 4.617600
18.738600 4.547300
18.758000 4.471700
18.777300 4.662500
18.796700 4.391500
18.816100 4.454600
18.835400 4.640300
18.854800 4.579500
18.874200 4.599700
18.893500 4.690400
18.912900 4.640700
18.932300 4.723800
18.951600 4.476400
18.971000 4.274300
18.990400 4.193200
19.009700 4.088900
19.029100 3.817200
19.048500 3.649400
19.067800 3.484800
19.087200 3.323500
19.106600 3.244000
19.125900 3.170800
19.145300 3.124100
19.164700 3.210500
19.184000 3.310900
19.203400 3.417800
19.222800 3.631500
19.242100 3.655200
19.261500 4.272000
19.280900 4.024700
19.300200 4.124400
19.319600 4.196100
19.338900 4.474600
19.358300 4.643000
19.377700 4.753700
19.397000 4.747200
19.416400 4.681600
19.435800 4.693300
19.455100 4.797400
19.474500 4.910000
19.493900 5.000900
19.513200 5.207200
19.532600 5.426200
19.552000 5.242000
19.571300 5.103000
19.590700 4.762400
19.610100 4.692300
19.629400 4.568200
19.648800 4.562800
19.668200 4.566300
19.687500 4.646300
19.706900 4.687700
19.726300 4.629200
19.745600 4.564500
19.765000 4.501800
19.784400 4.441800
19.803700 4.360200
19.823100 4.263100
19.842500 4.268800
19.861800 4.214100
19.881200 4.215300
19.900600 4.202700
19.919900 4.175000
19.939300 4.270200
19.958600 4.399000
19.978000 4.477200
19.997400 4.742600
20.016700 4.912700
20.036100 4.980800
20.055500 5.024200
20.074800 5.036600
20.094200 4.943800
20.113600 4.727900
20.132900 4.599700
20.152300 4.545900
20.171700 4.558000
20.191000 4.558200
20.210400 4.510300
20.229800 4.402000
20.249100 4.452200
20.268500 4.424800
20.287900 4.496800
20.307200 4.480600
20.326600 4.462800
20.346000 4.522200
20.365300 4.463900
20.384700 4.409600
20.404100 4.092100
20.423400 3.842700
20.442800 3.756700
20.462200 3.671200
20.481500 3.756500
20.500900 3.796000
20.520200 3.764800
20.539600 3.732600
20.559000 3.711700
20.578300 3.706800
20.597700 3.739800
20.617100 3.753500
20.636400 3.982700
20.655800 4.115700
20.675200 4.295000
20.694500 4.505300
20.713900 4.499600
20.733300 4.643800
20.752600 4.731400
20.772000 4.760700
20.791400 4.985100
20.810700 4.821800
20.830100 4.633400
20.849500 4.653200
20.868800 4.803400
20.888200 5.049000
20.907600 5.197500
20.926900 5.176300
20.946300 5.180300
20.965700 5.147800
20.985000 5.115900
21.004400 5.093000
21.023800 4.704000
21.043100 4.576000
21.062500 4.556100
21.081900 4.548000
21.101200 4.688500
21.120600 4.744300
21.139900 4.802700
21.159300 4.856500
21.178700 4.905300
21.198000 4.848100
21.217400 4.882900
21.236800 4.878600
21.256100 4.886100
21.275500 4.953700
21.294900 5.110200
21.314200 5.035800
21.333600 5.056300
21.353000 5.078500
21.372300 5.070800
21.391700 4.835600
21.411100 4.727900
21.430400 4.649300
21.449800 4.569500
21.469200 4.508400
21.488500 4.491900
21.507900 4.472200
21.527300 4.440500
21.546600 4.422800
21.566000 4.413400
21.585400 4.328200
21.604700 4.290900
21.624100 4.464300
21.643500 4.487700
21.662800 4.523100
21.682200 4.357400
21.701500 4.492000
21.720900 4.417900
21.740300 4.477000
21.759600 4.545700
21.779000 4.615200
21.798400 4.624400
21.817700 4.651300
21.837100 4.778900
21.856500 4.737100
21.875800 4.610600
21.895200 4.685400
21.914600 4.553000
21.933900 4.479000
21.953300 4.391100
21.972700 4.146400
21.992000 4.111900
22.011400 4.091300
22.030800 4.058200
22.050100 4.083900
22.069500 4.144200
22.088900 4.621300
22.108200 4.952600
22.127600 4.581900
22.147000 4.594900
22.166300 4.629700
22.185700 4.659900
22.205100 4.702400
22.224400 4.734400
22.243800 4.761600
22.263100 4.781900
22.282500 4.840400
22.301900 4.838800
22.321200 4.799500
22.340600 4.761700
22.360000 4.684000
22.379300 4.612000
22.398700 4.601700
22.418100 4.616700
22.437400 4.623500
22.456800 4.633600
22.476200 4.642200
22.495500 4.671900
22.514900 4.718600
22.534300 4.811500
22.553600 4.869800
22.573000 4.906200
22.592400 4.890800
22.611700 4.988600
22.631100 4.996000
22.650500 4.823700
22.669800 4.769900
22.689200 4.748400
22.708600 4.749800
22.727900 4.767900
22.747300 4.792500
22.766700 5.058900
22.786000 5.105900
22.805400 5.191300
22.824800 5.111200
22.844100 5.448600
22.863500 5.632300
22.882800 5.601000
22.902200 5.319800
22.921600 5.117500
22.940900 5.047700
22.960300 4.985400
22.979700 5.057900
22.999000 5.230000
23.018400 5.045600
23.037800 5.046800
23.057100 4.966300
23.076500 4.892100
23.095900 4.969400
23.115200 4.904100
23.134600 4.783600
23.154000 4.800900
23.173300 4.866900
23.192700 4.748400
23.212100 4.628300
23.231400 4.613900
23.250800 4.526600
23.270200 4.463900
23.289500 4.429800
23.308900 4.404200
23.328300 4.399700
23.347600 4.329900
23.367000 4.382000
23.386400 4.528100
23.405700 4.504900
23.425100 4.532700
23.444400 4.579400
23.463800 4.591600
23.483200 4.633700
23.502500 4.665900
23.521900 4.699500
23.541300 4.729100
23.560600 4.775000
23.580000 4.825100
23.599400 4.853700
23.618700 4.867700
23.638100 5.064000
23.657500 5.065500
23.676800 5.086400
23.696200 5.202300
23.715600 5.722100
23.734900 4.675900
23.754300 4.792600
23.773700 4.552000
23.793000 4.347300
23.812400 4.269200
23.831800 4.168400
23.851100 4.061700
23.870500 3.942600
23.889900 3.838900
23.909200 3.711100
23.928600 4.018600
23.948000 3.674700
23.967300 3.626200
23.986700 3.564300
24.006000 3.102800
24.025400 2.976600
24.044800 2.888400
24.064100 2.805200
24.083500 2.730300
24.102900 2.710100
24.122200 2.659800
24.141600 2.604000
24.161000 2.560300
24.180300 2.407900
24.199700 2.364900
24.219100 2.357400
24.238400 2.322000
24.257800 2.286000
24.277200 2.248600
24.296500 2.214300
24.315900 2.181200
24.335300 2.146600
24.354600 2.110700
24.374000 2.073500
24.393400 2.031400
24.412700 2.229700
24.432100 2.220500
24.451500 1.966000
24.470800 1.901800
24.490200 1.847700
24.509600 1.879400
24.528900 1.948600
24.548300 1.934300
24.567700 1.864300
24.587000 1.772100
24.606400 1.732900
24.625700 1.688700
24.645100 1.675300
24.664500 1.679800
24.683800 1.684700
24.703200 1.682100
24.722600 1.538500
24.741900 1.853700
24.761300 1.418200
24.780700 1.429800
24.800000 1.424400
24.819400 1.417300
24.838800 1.429700
24.858100 1.410600
24.877500 1.389700
24.896900 1.372200
24.916200 1.358200
24.935600 1.344100
24.955000 1.339600
24.974300 1.336700
24.993700 1.334900
25.013100 1.334300
25.032400 1.334800
25.051800 1.336600
25.071200 1.339400
25.090500 1.593700
25.109900 1.526200
25.129300 1.515000
25.148600 1.492400
25.168000 1.276300
25.187300 1.212700
25.206700 1.155800
25.226100 1.120700
25.245400 1.090600
25.264800 1.082100
25.284200 1.117400
25.303500 1.157800
25.322900 1.033700
25.342300 1.017800
25.361600 1.005500
25.381000 0.990000
25.400400 0.984500
25.419700 0.980400
25.439100 0.976400
25.458500 1.044000
25.477800 1.013300
25.497200 0.983700
25.516600 0.954000
25.535900 0.924100
25.555300 0.879400
25.574700 0.853400
25.594000 0.827300
25.613400 0.720100
25.632800 0.709200
25.652100 0.698600
25.671500 0.688500
25.690900 0.678900
25.710200 0.713300
25.729600 0.698200
25.748900 0.683300
25.768300 0.668500
25.787700 0.662900
25.807000 0.650400
25.826400 0.646300
25.845800 0.629600
25.865100 0.611200
25.884500 0.591000
25.903900 0.569000
25.923200 0.557400
25.942600 0.548900
25.962000 0.540900
25.981300 0.471800
26.000700 0.452800
26.020100 0.433100
26.039400 0.412800
26.058800 0.401300
26.078200 0.391200
26.097500 0.382200
26.116900 0.374300
26.136300 0.367400
26.155600 0.361600
26.175000 0.357000
26.194400 0.353400
26.213700 0.356000
26.233100 0.369700
26.252500 0.387200
26.271800 0.408300
26.291200 0.433100
26.310600 0.461200
26.329900 0.486400
26.349300 0.577600
26.368600 0.587100
26.388000 0.593000
26.407400 0.574200
26.426700 0.574000
26.446100 0.570100
26.465500 0.450500
26.484800 0.433000
26.504200 0.413700
26.523600 0.358600
26.542900 0.306800
26.562300 0.259000
26.581700 0.214900
26.601000 0.184900
26.620400 0.753000
26.639800 0.147300
26.659100 0.143700
26.678500 0.140100
26.697900 0.136500
26.717200 0.448400
26.736600 0.089900
26.756000 0.087600
26.775300 0.085300
26.794700 0.083100
26.814100 0.080800
26.833400 0.078500
26.852800 0.076200
26.872200 0.074000
26.891500 0.071700
26.910900 0.069400
26.930200 0.067100
26.949600 0.064800
26.969000 0.062500
26.988300 0.080300
27.007700 0.073600
27.027100 0.067200
27.046400 0.061000
27.065800 0.055000
27.085200 0.049200
27.104500 0.043700
27.123900 0.000000
27.143300 0.000000
27.162600 0.000000
27.182000 0.000000
27.201400 0.000000
27.220700 0.000000
27.240100 0.000000
27.259500 0.000000
27.278800 0.000000
27.298200 0.000000
27.317600 0.000000
27.336900 0.000000
27.356300 0.000000
27.375700 0.000000
27.395000 0.000000
27.414400 0.000000
27.433800 0.000000
27.453100 0.000000
27.472500 0.000000
27.491800 0.000000
27.511200 0.000000
27.530600 0.000000
27.549900 0.000000
27.569300 0.000000
27.588700 0.000000
27.608000 0.000000
27.627400 0.000000
27.646800 0.000000
27.666100 0.000000
27.685500 0.000000
27.704900 0.000000
27.724200 0.000000
27.743600 0.000000
27.763000 0.000000
27.782300 0.000000
27.801700 0.000000
27.821100 0.000000
27.840400 0.000000
27.859800 0.000000
27.879200 0.000000
27.898500 0.000000
27.917900 0.000000
27.937300 0.000000
27.956600 0.000000
27.976000 0.000000
27.995400 0.000000
28.014700 0.000000
28.034100 0.000000
28.053500 0.000000
28.072800 0.000000
28.092200 0.000000
28.111500 0.000000
28.130900 0.000000
28.150300 0.000000
28.169600 0.000000
28.189000 0.000000
28.208400 0.000000
28.227700 0.000000
28.247100 0.000000
28.266500 0.000000
28.285800 0.000000
28.305200 0.000000
28.324600 0.000000
28.343900 0.000000
28.363300 0.000000
28.382700 0.000000
28.402000 0.000000
28.421400 0.000000
28.440800 0.000000
28.460100 0.000000
28.479500 0.000000
28.498900 0.000000
28.518200 0.000000
28.537600 0.000000
28.557000 0.000000
28.576300 0.000000
28.595700 0.000000
28.615100 0.000000
28.634400 0.000000
28.653800 0.000000
28.673100 0.000000
28.692500 0.000000
28.711900 0.000000
28.731200 0.000000
28.750600 0.000000
28.770000 0.000000
28.789300 0.000000
28.808700 0.000000
28.828100 0.000000
28.847400 0.000000
28.866800 0.000000
e
