set title 'mp-632311 - Density of States'
set xlabel 'Energy (eV)'
set ylabel 'DOS (states/eV)'
set grid
set xrange [-10:10]
set yrange [0:5.708]
set xzeroaxis lt -1
set terminal png size 800,600
set output 'mp-632311_dos_gnuplot.png'
plot '-' using 1:2 with lines title 'DOS'
-34.553900 0.000000
-34.494100 0.000000
-34.434200 0.000000
-34.374300 0.000000
-34.314400 0.000000
-34.254600 0.000000
-34.194700 0.000000
-34.134800 0.000000
-34.074900 0.000000
-34.015100 0.000000
-33.955200 0.000000
-33.895300 0.000000
-33.835400 0.000000
-33.775500 0.000000
-33.715700 0.000000
-33.655800 0.000000
-33.595900 0.000000
-33.536000 0.000000
-33.476200 0.000000
-33.416300 0.000000
-33.356400 0.000000
-33.296500 0.000000
-33.236700 0.000000
-33.176800 0.000000
-33.116900 0.000000
-33.057000 0.000000
-32.997200 0.000000
-32.937300 0.000000
-32.877400 0.000000
-32.817500 0.000000
-32.757700 0.000000
-32.697800 0.000000
-32.637900 0.000000
-32.578000 0.000000
-32.518200 0.000000
-32.458300 0.000000
-32.398400 0.000000
-32.338500 0.000000
-32.278700 0.000000
-32.218800 0.000000
-32.158900 0.000000
-32.099000 0.000000
-32.039200 0.000000
-31.979300 0.000000
-31.919400 0.000000
-31.859500 0.000000
-31.799700 0.000000
-31.739800 0.000000
-31.679900 0.000000
-31.620000 0.000000
-31.560200 0.000000
-31.500300 0.000000
-31.440400 0.000000
-31.380500 0.000000
-31.320700 0.000000
-31.260800 0.000000
-31.200900 0.000000
-31.141000 0.000000
-31.081200 0.000000
-31.021300 0.000000
-30.961400 0.000000
-30.901500 0.000000
-30.841700 0.000000
-30.781800 0.000000
-30.721900 0.000000
-30.662000 0.000000
-30.602100 0.000000
-30.542300 0.000000
-30.482400 0.000000
-30.422500 0.000000
-30.362600 0.000000
-30.302800 0.000000
-30.242900 0.000000
-30.183000 0.000000
-30.123100 0.000000
-30.063300 0.000000
-30.003400 0.000000
-29.943500 0.000000
-29.883600 0.000000
-29.823800 0.000000
-29.763900 0.000000
-29.704000 0.000000
-29.644100 0.000000
-29.584300 0.000000
-29.524400 0.000000
-29.464500 0.000000
-29.404600 0.000000
-29.344800 0.000000
-29.284900 0.000000
-29.225000 0.000000
-29.165100 0.000000
-29.105300 0.229500
-29.045400 0.877400
-28.985500 3.272600
-28.925600 6.452500
-28.865800 10.876300
-28.805900 13.343100
-28.746000 13.276900
-28.686100 8.833100
-28.626300 8.921300
-28.566400 10.941900
-28.506500 15.470600
-28.446600 8.495100
-28.386800 13.248200
-28.326900 15.992600
-28.267000 7.937400
-28.207100 19.279300
-28.147300 13.768700
-28.087400 21.501500
-28.027500 1.239400
-27.967600 0.000000
-27.907800 0.000000
-27.847900 0.000000
-27.788000 0.000000
-27.728100 0.000000
-27.668300 0.000000
-27.608400 0.000000
-27.548500 0.000000
-27.488600 0.000000
-27.428800 0.000000
-27.368900 0.000000
-27.309000 0.000000
-27.249100 0.000000
-27.189200 0.000000
-27.129400 0.000000
-27.069500 0.000000
-27.009600 0.000000
-26.949700 0.000000
-26.889900 0.000000
-26.830000 0.000000
-26.770100 0.000000
-26.710200 0.000000
-26.650400 0.000000
-26.590500 0.000000
-26.530600 0.000000
-26.470700 0.000000
-26.410900 0.000000
-26.351000 0.000000
-26.291100 0.000000
-26.231200 0.000000
-26.171400 0.000000
-26.111500 0.000000
-26.051600 0.000000
-25.991700 0.000000
-25.931900 0.000000
-25.872000 0.000000
-25.812100 0.000000
-25.752200 0.000000
-25.692400 0.000000
-25.632500 0.000000
-25.572600 0.000000
-25.512700 0.000000
-25.452900 0.000000
-25.393000 0.000000
-25.333100 0.000000
-25.273200 0.000000
-25.213400 0.000000
-25.153500 0.000000
-25.093600 0.000000
-25.033700 0.000000
-24.973900 0.000000
-24.914000 0.000000
-24.854100 0.000000
-24.794200 0.000000
-24.734400 0.000000
-24.674500 0.000000
-24.614600 0.000000
-24.554700 0.000000
-24.494900 0.000000
-24.435000 0.000000
-24.375100 0.000000
-24.315200 0.000000
-24.255400 0.000000
-24.195500 0.000000
-24.135600 0.000000
-24.075700 0.000000
-24.015900 0.000000
-23.956000 0.000000
-23.896100 0.000000
-23.836200 0.000000
-23.776300 0.000000
-23.716500 0.000000
-23.656600 0.000000
-23.596700 0.000000
-23.536800 0.000000
-23.477000 0.000000
-23.417100 0.000000
-23.357200 0.000000
-23.297300 0.000000
-23.237500 0.000000
-23.177600 0.000000
-23.117700 0.000000
-23.057800 0.000000
-22.998000 0.000000
-22.938100 0.000000
-22.878200 0.000000
-22.818300 0.000000
-22.758500 0.000000
-22.698600 0.000000
-22.638700 0.000000
-22.578800 0.000000
-22.519000 0.000000
-22.459100 0.000000
-22.399200 0.000000
-22.339300 0.000000
-22.279500 0.000000
-22.219600 0.000000
-22.159700 0.000000
-22.099800 0.000000
-22.040000 0.000000
-21.980100 0.000000
-21.920200 0.000000
-21.860300 0.000000
-21.800500 0.000000
-21.740600 0.000000
-21.680700 0.000000
-21.620800 0.000000
-21.561000 0.000000
-21.501100 0.000000
-21.441200 0.000000
-21.381300 0.000000
-21.321500 0.000000
-21.261600 0.000000
-21.201700 0.000000
-21.141800 0.000000
-21.082000 0.000000
-21.022100 0.000000
-20.962200 0.000000
-20.902300 0.000000
-20.842500 0.000000
-20.782600 0.000000
-20.722700 0.000000
-20.662800 0.000000
-20.603000 0.000000
-20.543100 0.000000
-20.483200 0.000000
-20.423300 0.000000
-20.363400 0.000000
-20.303600 0.000000
-20.243700 0.000000
-20.183800 0.000000
-20.123900 0.000000
-20.064100 0.000000
-20.004200 0.000000
-19.944300 0.000000
-19.884400 0.000000
-19.824600 0.000000
-19.764700 0.000000
-19.704800 0.000000
-19.644900 0.000000
-19.585100 0.000000
-19.525200 0.000000
-19.465300 0.000000
-19.405400 0.000000
-19.345600 0.000000
-19.285700 0.000000
-19.225800 0.000000
-19.165900 0.000000
-19.106100 0.000000
-19.046200 0.000000
-18.986300 0.000000
-18.926400 0.000000
-18.866600 0.000000
-18.806700 0.000000
-18.746800 0.000000
-18.686900 0.000000
-18.627100 0.000000
-18.567200 0.000000
-18.507300 0.000000
-18.447400 0.000000
-18.387600 0.000000
-18.327700 0.000000
-18.267800 0.000000
-18.207900 0.000000
-18.148100 0.000000
-18.088200 0.000000
-18.028300 0.000000
-17.968400 0.000000
-17.908600 0.000000
-17.848700 0.000000
-17.788800 0.000000
-17.728900 0.000000
-17.669100 0.000000
-17.609200 0.000000
-17.549300 0.000000
-17.489400 0.000000
-17.429600 0.000000
-17.369700 0.000000
-17.309800 0.000000
-17.249900 0.000000
-17.190100 0.000000
-17.130200 0.000000
-17.070300 0.000000
-17.010400 0.000000
-16.950500 0.000000
-16.890700 0.000000
-16.830800 0.000000
-16.770900 0.000000
-16.711000 0.000000
-16.651200 0.000000
-16.591300 0.000000
-16.531400 0.000000
-16.471500 0.000000
-16.411700 0.000000
-16.351800 0.000000
-16.291900 0.000000
-16.232000 0.000000
-16.172200 0.000000
-16.112300 0.000000
-16.052400 0.000000
-15.992500 0.000000
-15.932700 0.000000
-15.872800 0.000000
-15.812900 0.000000
-15.753000 0.000000
-15.693200 0.000000
-15.633300 0.000000
-15.573400 0.000000
-15.513500 0.000000
-15.453700 0.000000
-15.393800 0.000000
-15.333900 0.000000
-15.274000 0.000000
-15.214200 0.000000
-15.154300 0.000000
-15.094400 0.000000
-15.034500 0.000000
-14.974700 0.000000
-14.914800 0.000000
-14.854900 0.000000
-14.795000 0.000000
-14.735200 0.000000
-14.675300 0.000000
-14.615400 0.000000
-14.555500 0.000000
-14.495700 0.000000
-14.435800 0.000000
-14.375900 0.000000
-14.316000 0.000000
-14.256200 0.000000
-14.196300 0.000000
-14.136400 0.000000
-14.076500 0.000000
-14.016700 0.000000
-13.956800 0.000000
-13.896900 0.000000
-13.837000 0.000000
-13.777100 0.000000
-13.717300 0.000000
-13.657400 0.000000
-13.597500 0.000000
-13.537600 0.000000
-13.477800 0.000000
-13.417900 0.000000
-13.358000 0.000000
-13.298100 0.000000
-13.238300 0.000000
-13.178400 0.000000
-13.118500 0.000000
-13.058600 0.000000
-12.998800 0.000000
-12.938900 0.000000
-12.879000 0.000000
-12.819100 0.000000
-12.759300 0.000000
-12.699400 0.000000
-12.639500 0.000000
-12.579600 0.000000
-12.519800 0.000000
-12.459900 0.000000
-12.400000 0.000000
-12.340100 0.000000
-12.280300 0.000000
-12.220400 0.000000
-12.160500 0.000000
-12.100600 0.000000
-12.040800 0.000000
-11.980900 0.000000
-11.921000 0.000000
-11.861100 0.000000
-11.801300 0.000000
-11.741400 0.000000
-11.681500 0.000000
-11.621600 0.000000
-11.561800 0.000000
-11.501900 0.000000
-11.442000 0.000000
-11.382100 0.000000
-11.322300 0.000000
-11.262400 0.000000
-11.202500 0.000000
-11.142600 0.000000
-11.082800 0.000000
-11.022900 0.000000
-10.963000 0.000000
-10.903100 0.000000
-10.843300 0.000000
-10.783400 0.000000
-10.723500 0.000000
-10.663600 0.000000
-10.603800 0.000000
-10.543900 0.000000
-10.484000 0.000000
-10.424100 0.000000
-10.364200 0.000000
-10.304400 0.000000
-10.244500 0.000000
-10.184600 0.000000
-10.124700 0.000000
-10.064900 0.000000
-10.005000 0.000000
-9.945100 0.000000
-9.885200 0.000000
-9.825400 0.000000
-9.765500 0.000000
-9.705600 0.000000
-9.645700 0.000000
-9.585900 0.000000
-9.526000 0.000000
-9.466100 0.000000
-9.406200 0.000000
-9.346400 0.000000
-9.286500 0.000000
-9.226600 0.000000
-9.166700 0.000000
-9.106900 0.000000
-9.047000 0.000000
-8.987100 0.000000
-8.927200 0.000000
-8.867400 0.000000
-8.807500 0.000000
-8.747600 0.000000
-8.687700 0.000000
-8.627900 0.000000
-8.568000 0.000000
-8.508100 0.000000
-8.448200 0.000000
-8.388400 0.000000
-8.328500 0.000000
-8.268600 0.000000
-8.208700 0.000000
-8.148900 0.000000
-8.089000 0.000000
-8.029100 0.000000
-7.969200 0.000000
-7.909400 0.000000
-7.849500 0.000000
-7.789600 0.000000
-7.729700 0.000000
-7.669900 0.000000
-7.610000 0.000000
-7.550100 0.000000
-7.490200 0.000000
-7.430400 0.000000
-7.370500 0.000000
-7.310600 0.000000
-7.250700 0.000000
-7.190900 0.000000
-7.131000 0.000000
-7.071100 0.000000
-7.011200 0.000000
-6.951300 0.000000
-6.891500 0.000000
-6.831600 0.000000
-6.771700 0.000000
-6.711800 0.000000
-6.652000 0.000000
-6.592100 0.000000
-6.532200 0.000000
-6.472300 0.000000
-6.412500 0.000000
-6.352600 0.000000
-6.292700 0.000000
-6.232800 0.000000
-6.173000 0.000000
-6.113100 0.000000
-6.053200 0.000000
-5.993300 0.000000
-5.933500 0.000000
-5.873600 0.000000
-5.813700 0.000000
-5.753800 0.000000
-5.694000 0.000000
-5.634100 0.000000
-5.574200 0.000000
-5.514300 0.000000
-5.454500 0.000000
-5.394600 0.000000
-5.334700 0.000000
-5.274800 0.000000
-5.215000 0.000000
-5.155100 0.000000
-5.095200 0.000000
-5.035300 0.000000
-4.975500 0.000000
-4.915600 0.000000
-4.855700 0.000000
-4.795800 0.000000
-4.736000 0.000000
-4.676100 0.000000
-4.616200 0.000000
-4.556300 0.000000
-4.496500 0.000000
-4.436600 0.033500
-4.376700 0.055500
-4.316800 0.081900
-4.257000 0.091100
-4.197100 0.102800
-4.137200 0.112400
-4.077300 0.125400
-4.017500 0.140900
-3.957600 0.154500
-3.897700 0.163400
-3.837800 0.172600
-3.778000 0.183700
-3.718100 0.196300
-3.658200 0.209500
-3.598300 0.222500
-3.538400 0.235800
-3.478600 0.250400
-3.418700 0.265100
-3.358800 0.280200
-3.298900 0.295200
-3.239100 0.310500
-3.179200 0.330600
-3.119300 0.351600
-3.059400 0.373900
-2.999600 0.397200
-2.939700 0.422400
-2.879800 0.455300
-2.819900 0.492500
-2.760100 0.531800
-2.700200 0.571600
-2.640300 0.633700
-2.580400 0.711600
-2.520600 0.800300
-2.460700 0.954700
-2.400800 1.198400
-2.340900 2.112900
-2.281100 1.857200
-2.221200 1.607800
-2.161300 1.298000
-2.101400 1.169100
-2.041600 1.044400
-1.981700 0.954500
-1.921800 0.882800
-1.861900 0.829400
-1.802100 0.781900
-1.742200 0.750400
-1.682300 0.731500
-1.622400 0.694800
-1.562600 0.661600
-1.502700 0.637700
-1.442800 0.612800
-1.382900 0.619700
-1.323100 0.594200
-1.263200 0.569400
-1.203300 0.582300
-1.143400 0.537500
-1.083600 0.408400
-1.023700 0.322300
-0.963800 0.256100
-0.903900 0.205100
-0.844100 0.137200
-0.784200 0.094700
-0.724300 0.000000
-0.664400 0.000000
-0.604600 0.000000
-0.544700 0.000000
-0.484800 0.000000
-0.424900 0.000000
-0.365100 0.000000
-0.305200 0.000000
-0.245300 0.000000
-0.185400 0.000000
-0.125500 0.000000
-0.065700 0.000000
-0.005800 0.000000
0.054100 0.000000
0.114000 0.000000
0.173800 0.000000
0.233700 0.000000
0.293600 0.000000
0.353500 0.000000
0.413300 0.000000
0.473200 0.000000
0.533100 0.044400
0.593000 0.090400
0.652800 0.126300
0.712700 0.152500
0.772600 0.177700
0.832500 0.210300
0.892300 0.239700
0.952200 0.268200
1.012100 0.302900
1.072000 0.435900
1.131800 0.520100
1.191700 0.636400
1.251600 0.883300
1.311500 1.472200
1.371300 1.817200
1.431200 2.545500
1.491100 2.888200
1.551000 3.547400
1.610800 3.184600
1.670700 2.370800
1.730600 1.790100
1.790500 1.608700
1.850300 1.459000
1.910200 1.299200
1.970100 1.170800
2.030000 1.116900
2.089800 1.067300
2.149700 1.043100
2.209600 1.049100
2.269500 1.035400
2.329300 1.039500
2.389200 1.114400
2.449100 1.143500
2.509000 1.136800
2.568800 1.117800
2.628700 1.106500
2.688600 1.123100
2.748500 1.124200
2.808300 1.125900
2.868200 1.143500
2.928100 1.177500
2.988000 1.229500
3.047900 1.336400
3.107700 1.515100
3.167600 2.976600
3.227500 3.119700
3.287400 1.998200
3.347200 1.518200
3.407100 1.311200
3.467000 1.105300
3.526900 1.004600
3.586700 0.928500
3.646600 0.703800
3.706500 1.129500
3.766400 2.598700
3.826200 4.445200
3.886100 2.893500
3.946000 4.245600
4.005900 5.189200
4.065700 4.444700
4.125600 4.188600
4.185500 4.518500
4.245400 4.285300
4.305200 4.041900
4.365100 3.636800
4.425000 3.601200
4.484900 3.323900
4.544700 3.312500
4.604600 2.922400
4.664500 2.683500
4.724400 2.538100
4.784200 2.505500
4.844100 2.675200
4.904000 2.778200
4.963900 2.678700
5.023700 2.454300
5.083600 2.181200
5.143500 1.973100
5.203400 1.774300
5.263200 1.632100
5.323100 1.520200
5.383000 1.416200
5.442900 1.417200
5.502700 1.217700
5.562600 1.103100
5.622500 0.984900
5.682400 0.673200
5.742200 0.630500
5.802100 0.672100
5.862000 0.648600
5.921900 0.823900
5.981700 0.678700
6.041600 0.596800
6.101500 0.598000
6.161400 0.576400
6.221200 0.601900
6.281100 0.810700
6.341000 0.859200
6.400900 0.884100
6.460800 0.940100
6.520600 0.973500
6.580500 1.063200
6.640400 1.037200
6.700300 1.060600
6.760100 1.135400
6.820000 1.318000
6.879900 1.348900
6.939800 1.418500
6.999600 1.554000
7.059500 1.586300
7.119400 1.488500
7.179300 1.575600
7.239100 1.548000
7.299000 1.607000
7.358900 1.630100
7.418800 1.687900
7.478600 1.770300
7.538500 1.797500
7.598400 1.850200
7.658300 1.908500
7.718100 1.992700
7.778000 2.072700
7.837900 2.132000
7.897800 2.218700
7.957600 2.262500
8.017500 2.272800
8.077400 2.277100
8.137300 2.318900
8.197100 2.326700
8.257000 2.356600
8.316900 2.285200
8.376800 2.331500
8.436600 2.505000
8.496500 2.261700
8.556400 2.267700
8.616300 2.203700
8.676100 2.216400
8.736000 2.117600
8.795900 2.449300
8.855800 2.629400
8.915600 2.701100
8.975500 3.196000
9.035400 3.354500
9.095300 3.966500
9.155100 4.759400
9.215000 5.142200
9.274900 4.797400
9.334800 4.438600
9.394600 4.387800
9.454500 4.668400
9.514400 3.359600
9.574300 4.664300
9.634100 4.019400
9.694000 2.949500
9.753900 2.156400
9.813800 2.002700
9.873700 2.397700
9.933500 1.916300
9.993400 1.666000
10.053300 1.488800
10.113200 1.351800
10.173000 1.183800
10.232900 1.151600
10.292800 1.139400
10.352700 1.140900
10.412500 1.133200
10.472400 1.121100
10.532300 1.108200
10.592200 1.083500
10.652000 1.078600
10.711900 1.048100
10.771800 1.033200
10.831700 0.994700
10.891500 0.911100
10.951400 0.851800
11.011300 0.846600
11.071200 0.763600
11.131000 0.748900
11.190900 0.738800
11.250800 0.749000
11.310700 0.785000
11.370500 0.821300
11.430400 0.861700
11.490300 0.904700
11.550200 0.949400
11.610000 0.991000
11.669900 1.033400
11.729800 1.088100
11.789700 1.189800
11.849500 1.283900
11.909400 1.300800
11.969300 1.276000
12.029200 1.204900
12.089000 1.188900
12.148900 1.144400
12.208800 1.152900
12.268700 1.179300
12.328500 1.217200
12.388400 1.077600
12.448300 0.898300
12.508200 0.811200
12.568000 0.785500
12.627900 0.796000
12.687800 0.769100
12.747700 0.753500
12.807500 0.790100
12.867400 0.807700
12.927300 0.817600
12.987200 0.845500
13.047000 0.906400
13.106900 1.035100
13.166800 1.175900
13.226700 1.237000
13.286600 1.238900
13.346400 0.869200
13.406300 0.733900
13.466200 0.545700
13.526100 0.515300
13.585900 0.531300
13.645800 0.562700
13.705700 0.665600
13.765600 0.647900
13.825400 0.913100
13.885300 0.930900
13.945200 1.115900
14.005100 1.340400
14.064900 1.523400
14.124800 1.518900
14.184700 1.480400
14.244600 1.432500
14.304400 1.428300
14.364300 1.398300
14.424200 1.383000
14.484100 1.400200
14.543900 1.426500
14.603800 1.415500
14.663700 1.284900
14.723600 1.258000
14.783400 1.249200
14.843300 1.244200
14.903200 1.344800
14.963100 1.345100
15.022900 1.367300
15.082800 1.393500
15.142700 1.423200
15.202600 1.504900
15.262400 1.636000
15.322300 1.547000
15.382200 1.483100
15.442100 1.425900
15.501900 1.264300
15.561800 1.187000
15.621700 1.124400
15.681600 1.132200
15.741400 1.246500
15.801300 1.252600
15.861200 1.224400
15.921100 1.221500
15.980900 1.231600
16.040800 1.240100
16.100700 1.197600
16.160600 1.194900
16.220400 1.185200
16.280300 1.172900
16.340200 1.158600
16.400100 1.150600
16.459900 1.155900
16.519800 1.147400
16.579700 1.115200
16.639600 1.120100
16.699500 1.085500
16.759300 1.084400
16.819200 1.078400
16.879100 1.101200
16.939000 1.053800
16.998800 1.051400
17.058700 1.070600
17.118600 1.080800
17.178500 1.088000
17.238300 1.093000
17.298200 1.121000
17.358100 1.183800
17.418000 1.221000
17.477800 1.277300
17.537700 1.336600
17.597600 1.421500
17.657500 1.547800
17.717300 1.562600
17.777200 1.642100
17.837100 1.748100
17.897000 1.836500
17.956800 1.823600
18.016700 1.943700
18.076600 2.102800
18.136500 2.430900
18.196300 3.022200
18.256200 4.721800
18.316100 29.904900
18.376000 4.604200
18.435800 2.930300
18.495700 2.342700
18.555600 1.908400
18.615500 1.718100
18.675300 1.564100
18.735200 1.483900
18.795100 1.446800
18.855000 1.294900
18.914800 1.255700
18.974700 1.192100
19.034600 1.165000
19.094500 1.166400
19.154300 1.212900
19.214200 1.353500
19.274100 1.421700
19.334000 1.424400
19.393800 1.252200
19.453700 1.070700
19.513600 1.076000
19.573500 1.122800
19.633300 1.306100
19.693200 1.351000
19.753100 1.365900
19.813000 1.355300
19.872900 1.342400
19.932700 1.358200
19.992600 1.384500
20.052500 1.461200
20.112400 1.525100
20.172200 1.565400
20.232100 1.626700
20.292000 1.628800
20.351900 1.636000
20.411700 1.603500
20.471600 1.641100
20.531500 1.648900
20.591400 1.676400
20.651200 1.654800
20.711100 1.599700
20.771000 1.484000
20.830900 1.330900
20.890700 1.279700
20.950600 1.250000
21.010500 1.307100
21.070400 1.409500
21.130200 1.658400
21.190100 1.817400
21.250000 1.465500
21.309900 1.328400
21.369700 1.232800
21.429600 1.249900
21.489500 1.258900
21.549400 1.407900
21.609200 1.457400
21.669100 1.572500
21.729000 1.718200
21.788900 1.630200
21.848700 1.582700
21.908600 1.290400
21.968500 1.236400
22.028400 1.202800
22.088200 1.133500
22.148100 1.133500
22.208000 1.135600
22.267900 1.135800
22.327700 1.162500
22.387600 1.182300
22.447500 1.201300
22.507400 1.198800
22.567200 1.190000
22.627100 1.106700
22.687000 1.020900
22.746900 0.974100
22.806700 0.952900
22.866600 0.936000
22.926500 1.026200
22.986400 0.896100
23.046200 0.896200
23.106100 0.922200
23.166000 0.936500
23.225900 1.140900
23.285800 1.408800
23.345600 1.082500
23.405500 1.085200
23.465400 1.106600
23.525300 1.190300
23.585100 1.487600
23.645000 1.403500
23.704900 1.283300
23.764800 1.216300
23.824600 1.173800
23.884500 1.194500
23.944400 1.195500
24.004300 1.299000
24.064100 1.326700
24.124000 1.344000
24.183900 1.443200
24.243800 1.643900
24.303600 1.557600
24.363500 1.581300
24.423400 1.587500
24.483300 1.485400
24.543100 1.401000
24.603000 1.423300
24.662900 1.494800
24.722800 1.580500
24.782600 1.536400
24.842500 1.370300
24.902400 1.318700
24.962300 1.284200
25.022100 1.302200
25.082000 1.182300
25.141900 1.091300
25.201800 1.024000
25.261600 0.844800
25.321500 0.855100
25.381400 0.863500
25.441300 1.026900
25.501100 1.234900
25.561000 1.310400
25.620900 1.399000
25.680800 1.411200
25.740600 1.545300
25.800500 1.716500
25.860400 1.746700
25.920300 1.803300
25.980100 1.834800
26.040000 1.817600
26.099900 1.721800
26.159800 1.582700
26.219600 1.516900
26.279500 1.458700
26.339400 1.468700
26.399300 1.450500
26.459100 1.507700
26.519000 1.551300
26.578900 1.426500
26.638800 1.415500
26.698700 1.389500
26.758500 1.280800
26.818400 1.314500
26.878300 1.371900
26.938200 1.309800
26.998000 1.447600
27.057900 1.306000
27.117800 1.280800
27.177700 1.199300
27.237500 1.061500
27.297400 0.894100
27.357300 0.799100
27.417200 0.872300
27.477000 0.911600
27.536900 1.044600
27.596800 1.181900
27.656700 1.451600
27.716500 1.770000
27.776400 1.866600
27.836300 2.500800
27.896200 2.594000
27.956000 2.731300
28.015900 2.271800
28.075800 1.885900
28.135700 1.610200
28.195500 1.400300
28.255400 1.300700
28.315300 1.247700
28.375200 1.296500
28.435000 1.216100
28.494900 1.396500
28.554800 1.338000
28.614700 1.427000
28.674500 1.539500
28.734400 1.629700
28.794300 1.683200
28.854200 1.658100
28.914000 1.694600
28.973900 1.506300
29.033800 1.427300
29.093700 1.396800
29.153500 1.212100
29.213400 1.115000
29.273300 1.122100
29.333200 1.169200
29.393000 1.188500
29.452900 1.094900
29.512800 1.197600
29.572700 1.303400
29.632500 1.348800
29.692400 1.602000
29.752300 1.639800
29.812200 1.693300
29.872000 1.676100
29.931900 1.839700
29.991800 1.918600
30.051700 2.110500
30.111600 2.459500
30.171400 2.419600
30.231300 2.683800
30.291200 2.618500
30.351100 2.337900
30.410900 2.047300
30.470800 1.836900
30.530700 1.755600
30.590600 1.856700
30.650400 1.676500
30.710300 1.816800
30.770200 1.557200
30.830100 1.624600
30.889900 1.611800
30.949800 1.676700
31.009700 1.718400
31.069600 1.784000
31.129400 1.742000
31.189300 1.701100
31.249200 1.667600
31.309100 1.671700
31.368900 1.721300
31.428800 1.848100
31.488700 1.900100
31.548600 1.864200
31.608400 2.106700
31.668300 2.424300
31.728200 1.961400
31.788100 1.922800
31.847900 1.739900
31.907800 1.606500
31.967700 1.625200
32.027600 1.485600
32.087400 1.338600
32.147300 1.325200
32.207200 1.445700
32.267100 1.601300
32.326900 1.676800
32.386800 1.675800
32.446700 1.692500
32.506600 1.716000
32.566400 1.693200
32.626300 1.613300
32.686200 1.545200
32.746100 1.408400
32.805900 1.260800
32.865800 1.250000
32.925700 1.239900
32.985600 1.245500
33.045400 1.164600
33.105300 1.144500
33.165200 1.017500
33.225100 0.966500
33.285000 0.955900
33.344800 1.211500
33.404700 1.099000
33.464600 1.073400
33.524500 1.099200
33.584300 1.194000
33.644200 1.165600
33.704100 1.205900
33.764000 1.163500
33.823800 1.205000
33.883700 1.262100
33.943600 1.358600
34.003500 1.434700
34.063300 1.569000
34.123200 1.729600
34.183100 1.856600
34.243000 1.888400
34.302800 1.940100
34.362700 1.906500
34.422600 1.864800
34.482500 1.870600
34.542300 1.868300
34.602200 1.748800
34.662100 1.686900
34.722000 1.615900
34.781800 1.704900
34.841700 1.761200
34.901600 1.834600
34.961500 1.907400
35.021300 2.055700
35.081200 2.159400
35.141100 2.259600
35.201000 2.283900
35.260800 2.164700
35.320700 2.119400
35.380600 2.009500
35.440500 1.958900
35.500300 1.944800
35.560200 1.896900
35.620100 1.784900
35.680000 1.762700
35.739800 1.724400
35.799700 1.619600
35.859600 1.609200
35.919500 1.634000
35.979300 1.671000
36.039200 1.638500
36.099100 1.599000
36.159000 1.596800
36.218800 1.614000
36.278700 1.606700
36.338600 1.604900
36.398500 1.616100
36.458300 1.620200
36.518200 1.727500
36.578100 1.668200
36.638000 1.656300
36.697900 1.646500
36.757700 1.643100
36.817600 1.749600
36.877500 1.857600
36.937400 1.862100
36.997200 1.865600
37.057100 1.859500
37.117000 1.750300
37.176900 1.759300
37.236700 1.837800
37.296600 1.789000
37.356500 1.826200
37.416400 1.895500
37.476200 1.961100
37.536100 2.237000
37.596000 1.765400
37.655900 1.662500
37.715700 1.576100
37.775600 1.495900
37.835500 1.445700
37.895400 1.496900
37.955200 1.549400
38.015100 1.556900
38.075000 1.583300
38.134900 1.598600
38.194700 1.637800
38.254600 1.754500
38.314500 1.810800
38.374400 1.926700
38.434200 2.024100
38.494100 2.149500
38.554000 2.170200
38.613900 2.213200
38.673700 2.252800
38.733600 2.233500
38.793500 2.183100
38.853400 2.053200
38.913200 2.190900
38.973100 1.907200
39.033000 1.957300
39.092900 1.917100
39.152700 1.829200
39.212600 1.856600
39.272500 1.824100
39.332400 1.886800
39.392200 1.966200
39.452100 2.133400
39.512000 2.240100
39.571900 2.265000
39.631700 2.187200
39.691600 2.039200
39.751500 1.929400
39.811400 1.852800
39.871200 1.870700
39.931100 1.885000
39.991000 2.088800
40.050900 1.904700
40.110800 1.996500
40.170600 1.903700
40.230500 1.899400
40.290400 1.766800
40.350300 1.746000
40.410100 1.716700
40.470000 1.702700
40.529900 1.785600
40.589800 2.010100
40.649600 2.075100
40.709500 2.070200
40.769400 2.126400
40.829300 2.070100
40.889100 2.064800
40.949000 2.066800
41.008900 2.092200
41.068800 2.203300
41.128600 2.208400
41.188500 2.261500
41.248400 2.289200
41.308300 2.343600
41.368100 2.378100
41.428000 2.336100
41.487900 2.280700
41.547800 2.131900
41.607600 1.981700
41.667500 1.911100
41.727400 1.918500
41.787300 1.999700
41.847100 2.173400
41.907000 2.248300
41.966900 2.180300
42.026800 2.041300
42.086600 1.978200
42.146500 1.979800
42.206400 2.009400
42.266300 1.981200
42.326100 1.985600
42.386000 2.113700
42.445900 2.042200
42.505800 1.939600
42.565600 1.817900
42.625500 1.783200
42.685400 1.745100
42.745300 1.699600
42.805100 1.713000
42.865000 1.783000
42.924900 1.770800
42.984800 1.789300
43.044600 1.927100
43.104500 1.787900
43.164400 1.770500
43.224300 1.714900
43.284100 1.540800
43.344000 1.487200
43.403900 1.461800
43.463800 1.402200
43.523700 1.368400
43.583500 1.297400
43.643400 1.271500
43.703300 1.244200
43.763200 1.348800
43.823000 1.537900
43.882900 1.485200
43.942800 1.521900
44.002700 1.557000
44.062500 1.704100
44.122400 1.742400
44.182300 1.731400
44.242200 1.724300
44.302000 1.696500
44.361900 1.775900
44.421800 1.842600
44.481700 1.845000
44.541500 1.822700
44.601400 1.818700
44.661300 1.865400
44.721200 1.987400
44.781000 2.169700
44.840900 2.127800
44.900800 1.803800
44.960700 1.780500
45.020500 1.843600
45.080400 1.703500
45.140300 1.638700
45.200200 1.728800
45.260000 1.937500
45.319900 1.992300
45.379800 2.039100
45.439700 1.828300
45.499500 1.754500
45.559400 1.609300
45.619300 1.583000
45.679200 1.475200
45.739000 1.495200
45.798900 1.534500
45.858800 1.525700
45.918700 1.646400
45.978500 1.581200
46.038400 1.637400
46.098300 1.704400
46.158200 1.691800
46.218000 1.763400
46.277900 1.859800
46.337800 1.953700
46.397700 2.039800
46.457500 2.036300
46.517400 2.036600
46.577300 2.053700
46.637200 2.059800
46.697000 1.973200
46.756900 1.911700
46.816800 1.961300
46.876700 2.032300
46.936600 2.056500
46.996400 1.969500
47.056300 1.904300
47.116200 1.874000
47.176100 1.896900
47.235900 1.888300
47.295800 1.867600
47.355700 1.897500
47.415600 1.963000
47.475400 2.072400
47.535300 2.185800
47.595200 2.112600
47.655100 2.126000
47.714900 2.170800
47.774800 2.096100
47.834700 2.032800
47.894600 2.010500
47.954400 1.957200
48.014300 1.805600
48.074200 1.753700
48.134100 1.718400
48.193900 1.778800
48.253800 1.801400
48.313700 1.829900
48.373600 1.882800
48.433400 1.931500
48.493300 1.899600
48.553200 1.857400
48.613100 1.861500
48.672900 1.856900
48.732800 1.822200
48.792700 1.813500
48.852600 1.845000
48.912400 1.883400
48.972300 1.929400
49.032200 2.019100
49.092100 2.093400
49.151900 2.076700
49.211800 2.052300
49.271700 2.144500
49.331600 2.148000
49.391400 2.291200
49.451300 2.073600
49.511200 2.139800
49.571100 2.138200
49.630900 2.220900
49.690800 2.181100
49.750700 2.203000
49.810600 2.101300
49.870400 1.917000
49.930300 1.663500
49.990200 1.633900
50.050100 1.696600
50.110000 1.772300
50.169800 1.710200
50.229700 1.752500
50.289600 1.790800
50.349500 1.891500
50.409300 1.929600
50.469200 1.952400
50.529100 2.134600
50.589000 1.852600
50.648800 1.893100
50.708700 2.129700
50.768600 1.803800
50.828500 1.646600
50.888300 1.639400
50.948200 1.659000
51.008100 1.648700
51.068000 1.735300
51.127800 1.820300
51.187700 1.959400
51.247600 2.003900
51.307500 2.043800
51.367300 2.104800
51.427200 2.189800
51.487100 2.328000
51.547000 2.338900
51.606800 2.124100
51.666700 2.102600
51.726600 2.192500
51.786500 2.039000
51.846300 2.040400
51.906200 2.020000
51.966100 2.041900
52.026000 2.548900
52.085800 2.057500
52.145700 2.055000
52.205600 2.148800
52.265500 2.174100
52.325300 2.210600
52.385200 2.242600
52.445100 2.308900
52.505000 2.396400
52.564800 2.483000
52.624700 2.350700
52.684600 2.280100
52.744500 2.221800
52.804300 2.125500
52.864200 2.057500
52.924100 1.973600
52.984000 1.946700
53.043800 1.919200
53.103700 1.963500
53.163600 2.025200
53.223500 2.154600
53.283300 2.163800
53.343200 2.197600
53.403100 2.264900
53.463000 2.436100
53.522900 2.313700
53.582700 2.145900
53.642600 2.076000
53.702500 1.953400
53.762400 1.883200
53.822200 1.747500
53.882100 1.761500
53.942000 1.833900
54.001900 1.951900
54.061700 2.013700
54.121600 2.070900
54.181500 2.159100
54.241400 2.194100
54.301200 2.190700
54.361100 2.245900
54.421000 2.250600
54.480900 2.238100
54.540700 2.239100
54.600600 2.232900
54.660500 2.274800
54.720400 2.312700
54.780200 2.443500
54.840100 2.365800
54.900000 2.384600
54.959900 2.379100
55.019700 2.354400
55.079600 2.300800
55.139500 2.348300
55.199400 2.456500
55.259200 2.445800
55.319100 2.537800
55.379000 2.272300
55.438900 2.261200
55.498700 2.219900
55.558600 2.208300
55.618500 2.269900
55.678400 2.316700
55.738200 2.356700
55.798100 2.265700
55.858000 2.305200
55.917900 2.320600
55.977700 2.386900
56.037600 2.199500
56.097500 2.152500
56.157400 2.051900
56.217200 2.039100
56.277100 1.980300
56.337000 1.874400
56.396900 1.920000
56.456700 1.995300
56.516600 2.000900
56.576500 2.014400
56.636400 2.047500
56.696200 2.116000
56.756100 2.111900
56.816000 2.139400
56.875900 2.178400
56.935800 2.064100
56.995600 2.063100
57.055500 2.158200
57.115400 2.071900
57.175300 2.068500
57.235100 2.213000
57.295000 2.252400
57.354900 2.232200
57.414800 2.294600
57.474600 2.234900
57.534500 2.238400
57.594400 2.247400
57.654300 2.272300
57.714100 2.234100
57.774000 2.249800
57.833900 2.190100
57.893800 2.195700
57.953600 2.157400
58.013500 2.162200
58.073400 2.036500
58.133300 1.961700
58.193100 1.968400
58.253000 1.968900
58.312900 2.041300
58.372800 2.072100
58.432600 2.073600
58.492500 2.195500
58.552400 2.002000
58.612300 1.940800
58.672100 1.935400
58.732000 1.969300
58.791900 2.057000
58.851800 2.089600
58.911600 2.140100
58.971500 2.151900
59.031400 2.196000
59.091300 2.659100
59.151100 2.149300
59.211000 2.083300
59.270900 1.853600
59.330800 1.848900
59.390600 1.875400
59.450500 1.873300
59.510400 1.905300
59.570300 1.957000
59.630100 1.912700
59.690000 1.991500
59.749900 2.082300
59.809800 1.981000
59.869600 2.058200
59.929500 2.155100
59.989400 2.261500
60.049300 2.280500
60.109100 2.372000
60.169000 2.214400
60.228900 2.108600
60.288800 1.922000
60.348700 1.825500
60.408500 1.807800
60.468400 1.828600
60.528300 1.982600
60.588200 2.114600
60.648000 2.286100
60.707900 2.391700
60.767800 2.284600
60.827700 2.162300
60.887500 2.079800
60.947400 1.943600
61.007300 1.849700
61.067200 1.848500
61.127000 1.952200
61.186900 2.158700
61.246800 2.287300
61.306700 2.380500
61.366500 2.501600
61.426400 2.412100
61.486300 2.407600
61.546200 2.409900
61.606000 2.244700
61.665900 2.133500
61.725800 2.098600
61.785700 2.127200
61.845500 2.180400
61.905400 2.361200
61.965300 2.421300
62.025200 2.455700
62.085000 2.406900
62.144900 2.390200
62.204800 2.361800
62.264700 2.366400
62.324500 2.308400
62.384400 2.299400
62.444300 2.306400
62.504200 2.198800
62.564000 2.117900
62.623900 2.124200
62.683800 2.060000
62.743700 1.977300
62.803500 2.004900
62.863400 1.956000
62.923300 1.984700
62.983200 2.030700
63.043000 2.092100
63.102900 2.468600
63.162800 2.373600
63.222700 2.336000
63.282500 2.330700
63.342400 2.309600
63.402300 2.306100
63.462200 2.326000
63.522000 2.236500
63.581900 2.162900
63.641800 2.094200
63.701700 2.092600
63.761600 1.949500
63.821400 1.956500
63.881300 1.943400
63.941200 1.959200
64.001100 1.996000
64.060900 2.027100
64.120800 2.084000
64.180700 2.234900
64.240600 2.264300
64.300400 2.318100
64.360300 2.159900
64.420200 2.104500
64.480100 2.074200
64.539900 2.097500
64.599800 2.188500
64.659700 2.318100
64.719600 2.381200
64.779400 2.357100
64.839300 2.338900
64.899200 2.158200
64.959100 2.151200
65.018900 2.100500
65.078800 2.090700
65.138700 2.106200
65.198600 2.073700
65.258400 2.105700
65.318300 2.125400
65.378200 2.226800
65.438100 2.227300
65.497900 2.301000
65.557800 2.185600
65.617700 2.184800
65.677600 2.219100
65.737400 2.286200
65.797300 2.280300
65.857200 2.261900
65.917100 2.131200
65.976900 2.133300
66.036800 2.161100
66.096700 2.221100
66.156600 2.373300
66.216400 2.526600
66.276300 2.379200
66.336200 2.394500
66.396100 2.382000
66.455900 2.358500
66.515800 2.337000
66.575700 2.328300
66.635600 2.279100
66.695400 2.264000
66.755300 2.223600
66.815200 2.188600
66.875100 2.207700
66.935000 2.234100
66.994800 2.314600
67.054700 2.261000
67.114600 2.245500
67.174500 2.256000
67.234300 2.378800
67.294200 2.317700
67.354100 2.307800
67.414000 2.376400
67.473800 2.355500
67.533700 2.308600
67.593600 2.371500
67.653500 2.326800
67.713300 2.313400
67.773200 2.177900
67.833100 2.114400
67.893000 2.066300
67.952800 2.214600
68.012700 2.209800
68.072600 2.363300
68.132500 2.333400
68.192300 2.376400
68.252200 2.337200
68.312100 2.160800
68.372000 2.103300
68.431800 2.024800
68.491700 1.956300
68.551600 1.856200
68.611500 1.781300
68.671300 1.929200
68.731200 2.015700
68.791100 2.279500
68.851000 2.376300
68.910800 2.430200
68.970700 2.445300
69.030600 2.431400
69.090500 2.390200
69.150300 2.351600
69.210200 2.279500
69.270100 2.174300
69.330000 2.089500
69.389800 2.208700
69.449700 2.091300
69.509600 2.095700
69.569500 2.092400
69.629300 2.173600
69.689200 2.287700
69.749100 2.380900
69.809000 2.466900
69.868800 2.471100
69.928700 2.593100
69.988600 2.546900
70.048500 2.441500
70.108300 2.356100
70.168200 2.330400
70.228100 2.293800
70.288000 2.418100
70.347900 2.369500
70.407700 2.304000
70.467600 2.266400
70.527500 2.274800
70.587400 2.342400
70.647200 2.276500
70.707100 2.260400
70.767000 2.238900
70.826900 2.207700
70.886700 2.210800
70.946600 2.201700
71.006500 2.252000
71.066400 2.396300
71.126200 2.490700
71.186100 2.578500
71.246000 2.551500
71.305900 2.541000
71.365700 2.512800
71.425600 2.548200
71.485500 2.536900
71.545400 2.527800
71.605200 2.418300
71.665100 2.358100
71.725000 2.192900
71.784900 2.111900
71.844700 2.089400
71.904600 2.089300
71.964500 2.092700
72.024400 2.145300
72.084200 2.185100
72.144100 2.273300
72.204000 2.290100
72.263900 2.352000
72.323700 2.380300
72.383600 2.312100
72.443500 2.534600
72.503400 2.185400
72.563200 2.144600
72.623100 2.186700
72.683000 2.203200
72.742900 2.206700
72.802700 2.172800
72.862600 2.146900
72.922500 2.182700
72.982400 2.266100
73.042200 2.300300
73.102100 2.318400
73.162000 2.385300
73.221900 2.425600
73.281700 2.381900
73.341600 2.574700
73.401500 2.357600
73.461400 2.358800
73.521200 2.344200
73.581100 2.496300
73.641000 2.412600
73.700900 2.409100
73.760800 2.497900
73.820600 2.435500
73.880500 2.323200
73.940400 2.238400
74.000300 2.370300
74.060100 2.297200
74.120000 2.293500
74.179900 2.260000
74.239800 2.224500
74.299600 2.181700
74.359500 2.178400
74.419400 2.214300
74.479300 2.331300
74.539100 2.349500
74.599000 2.392400
74.658900 2.409800
74.718800 2.419800
74.778600 2.569800
74.838500 2.506500
74.898400 2.627400
74.958300 2.695900
75.018100 2.774000
75.078000 2.816500
75.137900 2.792800
75.197800 2.689400
75.257600 2.580200
75.317500 2.443600
75.377400 2.386400
75.437300 2.321900
75.497100 2.513700
75.557000 2.635500
75.616900 2.676300
75.676800 2.678000
75.736600 2.729800
75.796500 2.785800
75.856400 2.724500
75.916300 2.655000
75.976100 2.414100
76.036000 2.291800
76.095900 2.232700
76.155800 2.231500
76.215600 2.249900
76.275500 2.264900
76.335400 2.317600
76.395300 2.420300
76.455100 2.631700
76.515000 2.334100
76.574900 2.119400
76.634800 1.940400
76.694600 1.780900
76.754500 1.668500
76.814400 1.802900
76.874300 1.902300
76.934100 1.962500
76.994000 1.947800
77.053900 1.862900
77.113800 1.731800
77.173700 1.764700
77.233500 1.617800
77.293400 1.595100
77.353300 1.351800
77.413200 1.180400
77.473000 1.044500
77.532900 0.931400
77.592800 0.791200
77.652700 0.754600
77.712500 0.706400
77.772400 0.635200
77.832300 0.574300
77.892200 0.519900
77.952000 0.480800
78.011900 0.446200
78.071800 0.419500
78.131700 0.407900
78.191500 0.390400
78.251400 0.402800
78.311300 0.437600
78.371200 0.392100
78.431000 0.379400
78.490900 0.311100
78.550800 0.265100
78.610700 0.219000
78.670500 0.192300
78.730400 0.165800
78.790300 0.139700
78.850200 0.116600
78.910000 0.104000
78.969900 0.091600
79.029800 0.079500
79.089700 0.066500
79.149500 0.049800
79.209400 0.035700
79.269300 0.027900
79.329200 0.022200
79.389000 0.017100
79.448900 0.012500
79.508800 0.008600
79.568700 0.005200
79.628500 0.002400
79.688400 0.000400
79.748300 0.000000
79.808200 0.000000
79.868000 0.000000
79.927900 0.000000
79.987800 0.000000
80.047700 0.000000
80.107500 0.000000
80.167400 0.000000
80.227300 0.000000
80.287200 0.000000
80.347000 0.000000
80.406900 0.000000
80.466800 0.000000
80.526700 0.000000
80.586600 0.000000
80.646400 0.000000
80.706300 0.000000
80.766200 0.000000
80.826100 0.000000
80.885900 0.000000
80.945800 0.000000
81.005700 0.000000
81.065600 0.000000
81.125400 0.000000
81.185300 0.000000
81.245200 0.000000
81.305100 0.000000
81.364900 0.000000
81.424800 0.000000
81.484700 0.000000
81.544600 0.000000
81.604400 0.000000
81.664300 0.000000
81.724200 0.000000
81.784100 0.000000
81.843900 0.000000
81.903800 0.000000
81.963700 0.000000
82.023600 0.000000
82.083400 0.000000
82.143300 0.000000
82.203200 0.000000
82.263100 0.000000
82.322900 0.000000
82.382800 0.000000
82.442700 0.000000
82.502600 0.000000
82.562400 0.000000
82.622300 0.000000
82.682200 0.000000
82.742100 0.000000
82.801900 0.000000
82.861800 0.000000
82.921700 0.000000
82.981600 0.000000
83.041400 0.000000
83.101300 0.000000
83.161200 0.000000
83.221100 0.000000
83.280900 0.000000
83.340800 0.000000
83.400700 0.000000
83.460600 0.000000
83.520400 0.000000
83.580300 0.000000
83.640200 0.000000
83.700100 0.000000
83.760000 0.000000
83.819800 0.000000
83.879700 0.000000
83.939600 0.000000
83.999500 0.000000
84.059300 0.000000
84.119200 0.000000
84.179100 0.000000
84.239000 0.000000
84.298800 0.000000
84.358700 0.000000
84.418600 0.000000
84.478500 0.000000
84.538300 0.000000
84.598200 0.000000
84.658100 0.000000
84.718000 0.000000
84.777800 0.000000
84.837700 0.000000
84.897600 0.000000
84.957500 0.000000
85.017300 0.000000
85.077200 0.000000
85.137100 0.000000
85.197000 0.000000
e
