set title 'mp-865610 - Density of States'
set xlabel 'Energy (eV)'
set ylabel 'DOS (states/eV)'
set grid
set xrange [-10:10]
set yrange [0:2.755]
set xzeroaxis lt -1
set terminal png size 800,600
set output 'mp-865610_dos_gnuplot.png'
plot '-' using 1:2 with lines title 'DOS'
-27.830700 0.000000
-27.781400 0.000000
-27.732200 0.000000
-27.682900 0.000000
-27.633700 0.000000
-27.584400 0.000000
-27.535100 0.000000
-27.485900 0.000000
-27.436600 0.000000
-27.387400 0.000000
-27.338100 0.000000
-27.288800 0.000000
-27.239600 0.000000
-27.190300 0.000000
-27.141100 0.000000
-27.091800 0.000000
-27.042500 0.000000
-26.993300 0.000000
-26.944000 0.000000
-26.894800 0.000000
-26.845500 0.000000
-26.796200 0.000000
-26.747000 0.000000
-26.697700 0.000000
-26.648500 0.000000
-26.599200 0.000000
-26.550000 0.000000
-26.500700 0.000000
-26.451400 0.000000
-26.402200 0.000000
-26.352900 0.000000
-26.303700 0.000000
-26.254400 0.000000
-26.205100 0.000000
-26.155900 0.000000
-26.106600 0.000000
-26.057400 0.000000
-26.008100 0.000000
-25.958800 0.000000
-25.909600 0.000000
-25.860300 0.000000
-25.811100 0.000000
-25.761800 0.000000
-25.712500 0.000000
-25.663300 0.000000
-25.614000 0.000000
-25.564800 0.000000
-25.515500 0.000000
-25.466200 0.000000
-25.417000 0.000000
-25.367700 0.000000
-25.318500 0.000000
-25.269200 0.000000
-25.220000 0.000000
-25.170700 0.000000
-25.121400 0.000000
-25.072200 0.000000
-25.022900 0.000000
-24.973700 0.000000
-24.924400 0.000000
-24.875100 0.000000
-24.825900 0.000000
-24.776600 0.000000
-24.727400 0.000000
-24.678100 0.000000
-24.628800 0.000000
-24.579600 0.000000
-24.530300 0.000000
-24.481100 0.000000
-24.431800 0.000000
-24.382500 0.000000
-24.333300 0.000000
-24.284000 0.000000
-24.234800 0.000000
-24.185500 0.000000
-24.136200 0.000000
-24.087000 0.000000
-24.037700 0.000000
-23.988500 0.000000
-23.939200 0.000000
-23.889900 0.000000
-23.840700 0.000000
-23.791400 0.000000
-23.742200 0.000000
-23.692900 0.000000
-23.643700 0.000000
-23.594400 0.000000
-23.545100 0.000000
-23.495900 0.000000
-23.446600 0.000000
-23.397400 0.000000
-23.348100 1.347200
-23.298800 8.019600
-23.249600 12.912800
-23.200300 8.927500
-23.151100 5.243700
-23.101800 9.333000
-23.052500 8.913600
-23.003300 14.749600
-22.954000 17.442500
-22.904800 13.317700
-22.855500 11.709400
-22.806200 0.000000
-22.757000 0.000000
-22.707700 0.000000
-22.658500 0.000000
-22.609200 0.000000
-22.559900 0.000000
-22.510700 0.000000
-22.461400 0.000000
-22.412200 0.000000
-22.362900 0.000000
-22.313700 0.000000
-22.264400 0.000000
-22.215100 0.000000
-22.165900 0.000000
-22.116600 0.000000
-22.067400 0.000000
-22.018100 0.000000
-21.968800 0.000000
-21.919600 0.000000
-21.870300 0.000000
-21.821100 0.000000
-21.771800 0.000000
-21.722500 0.000000
-21.673300 0.000000
-21.624000 0.000000
-21.574800 0.000000
-21.525500 0.000000
-21.476200 0.000000
-21.427000 0.000000
-21.377700 0.000000
-21.328500 0.000000
-21.279200 0.000000
-21.229900 0.000000
-21.180700 0.000000
-21.131400 0.000000
-21.082200 0.000000
-21.032900 0.000000
-20.983700 0.000000
-20.934400 0.000000
-20.885100 0.000000
-20.835900 0.000000
-20.786600 0.000000
-20.737400 0.000000
-20.688100 0.000000
-20.638800 0.000000
-20.589600 0.000000
-20.540300 0.000000
-20.491100 0.000000
-20.441800 0.000000
-20.392500 0.000000
-20.343300 0.000000
-20.294000 0.000000
-20.244800 0.000000
-20.195500 0.000000
-20.146200 0.000000
-20.097000 0.000000
-20.047700 0.000000
-19.998500 0.000000
-19.949200 0.000000
-19.899900 0.000000
-19.850700 0.000000
-19.801400 0.000000
-19.752200 0.000000
-19.702900 0.000000
-19.653600 0.000000
-19.604400 0.000000
-19.555100 0.000000
-19.505900 0.000000
-19.456600 0.000000
-19.407400 0.000000
-19.358100 0.000000
-19.308800 0.000000
-19.259600 0.000000
-19.210300 0.000000
-19.161100 0.000000
-19.111800 0.000000
-19.062500 0.000000
-19.013300 0.000000
-18.964000 0.000000
-18.914800 0.000000
-18.865500 0.000000
-18.816200 0.000000
-18.767000 0.000000
-18.717700 0.000000
-18.668500 0.000000
-18.619200 0.000000
-18.569900 0.000000
-18.520700 0.000000
-18.471400 0.000000
-18.422200 0.000000
-18.372900 0.000000
-18.323600 0.000000
-18.274400 0.000000
-18.225100 0.000000
-18.175900 0.000000
-18.126600 0.000000
-18.077400 0.000000
-18.028100 0.000000
-17.978800 0.000000
-17.929600 0.000000
-17.880300 0.000000
-17.831100 0.000000
-17.781800 0.000000
-17.732500 0.000000
-17.683300 0.000000
-17.634000 0.000000
-17.584800 0.000000
-17.535500 0.000000
-17.486200 0.000000
-17.437000 0.000000
-17.387700 0.000000
-17.338500 0.000000
-17.289200 0.000000
-17.239900 0.000000
-17.190700 0.000000
-17.141400 0.000000
-17.092200 0.000000
-17.042900 0.000000
-16.993600 0.000000
-16.944400 0.000000
-16.895100 0.000000
-16.845900 0.000000
-16.796600 0.000000
-16.747400 0.000000
-16.698100 0.000000
-16.648800 0.000000
-16.599600 0.000000
-16.550300 0.000000
-16.501100 0.000000
-16.451800 0.000000
-16.402500 0.000000
-16.353300 0.000000
-16.304000 0.000000
-16.254800 0.000000
-16.205500 0.000000
-16.156200 0.000000
-16.107000 0.000000
-16.057700 0.000000
-16.008500 0.000000
-15.959200 0.000000
-15.909900 0.000000
-15.860700 0.000000
-15.811400 0.000000
-15.762200 0.000000
-15.712900 0.000000
-15.663600 0.000000
-15.614400 0.000000
-15.565100 0.000000
-15.515900 0.000000
-15.466600 0.000000
-15.417300 0.000000
-15.368100 0.000000
-15.318800 0.000000
-15.269600 0.000000
-15.220300 0.000000
-15.171100 0.000000
-15.121800 0.000000
-15.072500 0.000000
-15.023300 0.000000
-14.974000 0.000000
-14.924800 0.000000
-14.875500 0.000000
-14.826200 0.000000
-14.777000 0.000000
-14.727700 0.000000
-14.678500 0.000000
-14.629200 0.000000
-14.579900 0.000000
-14.530700 0.000000
-14.481400 0.000000
-14.432200 0.000000
-14.382900 0.000000
-14.333600 0.000000
-14.284400 0.000000
-14.235100 0.000000
-14.185900 0.000000
-14.136600 0.000000
-14.087300 0.000000
-14.038100 0.000000
-13.988800 0.000000
-13.939600 0.000000
-13.890300 0.000000
-13.841100 0.000000
-13.791800 0.000000
-13.742500 0.000000
-13.693300 0.000000
-13.644000 0.000000
-13.594800 0.000000
-13.545500 0.000000
-13.496200 0.000000
-13.447000 0.000000
-13.397700 0.000000
-13.348500 0.000000
-13.299200 0.000000
-13.249900 0.000000
-13.200700 0.000000
-13.151400 0.000000
-13.102200 0.000000
-13.052900 0.000000
-13.003600 0.000000
-12.954400 0.000000
-12.905100 0.000000
-12.855900 0.000000
-12.806600 0.000000
-12.757300 0.000000
-12.708100 0.000000
-12.658800 0.000000
-12.609600 0.000000
-12.560300 0.000000
-12.511000 0.000000
-12.461800 0.000000
-12.412500 0.000000
-12.363300 0.000000
-12.314000 0.000000
-12.264800 0.000000
-12.215500 0.000000
-12.166200 0.000000
-12.117000 0.000000
-12.067700 0.000000
-12.018500 0.000000
-11.969200 0.000000
-11.919900 0.000000
-11.870700 0.000000
-11.821400 0.000000
-11.772200 0.000000
-11.722900 0.000000
-11.673600 0.000000
-11.624400 0.000000
-11.575100 0.000000
-11.525900 0.000000
-11.476600 0.000000
-11.427300 0.000000
-11.378100 0.000000
-11.328800 0.000000
-11.279600 0.000000
-11.230300 0.000000
-11.181000 0.000000
-11.131800 0.000000
-11.082500 0.000000
-11.033300 0.000000
-10.984000 0.000000
-10.934800 0.000000
-10.885500 0.000000
-10.836200 0.000000
-10.787000 0.000000
-10.737700 0.000000
-10.688500 0.000000
-10.639200 0.000000
-10.589900 0.000000
-10.540700 0.000000
-10.491400 0.000000
-10.442200 0.000000
-10.392900 0.000000
-10.343600 0.000000
-10.294400 0.000000
-10.245100 0.000000
-10.195900 0.000000
-10.146600 0.000000
-10.097300 0.000000
-10.048100 0.000000
-9.998800 0.000000
-9.949600 0.000000
-9.900300 0.000000
-9.851000 0.000000
-9.801800 0.000000
-9.752500 0.000000
-9.703300 0.000000
-9.654000 0.000000
-9.604800 0.000000
-9.555500 0.000000
-9.506200 0.000000
-9.457000 0.000000
-9.407700 0.000000
-9.358500 0.000000
-9.309200 0.000000
-9.259900 0.000000
-9.210700 0.000000
-9.161400 0.000000
-9.112200 0.000000
-9.062900 0.000000
-9.013600 0.000000
-8.964400 0.000000
-8.915100 0.000000
-8.865900 0.000000
-8.816600 0.000000
-8.767300 0.000000
-8.718100 0.000000
-8.668800 0.000000
-8.619600 0.000000
-8.570300 0.000000
-8.521000 0.000000
-8.471800 0.000000
-8.422500 0.000000
-8.373300 0.000000
-8.324000 0.000000
-8.274700 0.000000
-8.225500 0.000000
-8.176200 0.000000
-8.127000 0.000000
-8.077700 0.000000
-8.028500 0.000000
-7.979200 0.000000
-7.929900 0.000000
-7.880700 0.000000
-7.831400 0.000000
-7.782200 0.000000
-7.732900 0.000000
-7.683600 0.000000
-7.634400 0.000000
-7.585100 0.000000
-7.535900 0.000000
-7.486600 0.000000
-7.437300 0.000000
-7.388100 0.000000
-7.338800 0.000000
-7.289600 0.000000
-7.240300 0.000000
-7.191000 0.000000
-7.141800 0.000000
-7.092500 0.000000
-7.043300 0.000000
-6.994000 0.000000
-6.944700 0.000000
-6.895500 0.000000
-6.846200 0.000000
-6.797000 0.000000
-6.747700 0.000800
-6.698500 0.014300
-6.649200 0.049700
-6.599900 0.045300
-6.550700 0.053200
-6.501400 0.063200
-6.452200 0.074200
-6.402900 0.081700
-6.353600 0.085300
-6.304400 0.090000
-6.255100 0.096200
-6.205900 0.102700
-6.156600 0.109400
-6.107300 0.115300
-6.058100 0.121000
-6.008800 0.126600
-5.959600 0.131400
-5.910300 0.136300
-5.861000 0.140900
-5.811800 0.145800
-5.762500 0.151000
-5.713300 0.157100
-5.664000 0.162500
-5.614700 0.168000
-5.565500 0.173500
-5.516200 0.179200
-5.467000 0.183900
-5.417700 0.188400
-5.368400 0.193300
-5.319200 0.198500
-5.269900 0.204000
-5.220700 0.209700
-5.171400 0.215400
-5.122200 0.220800
-5.072900 0.226500
-5.023600 0.232300
-4.974400 0.238100
-4.925100 0.244000
-4.875900 0.249900
-4.826600 0.255700
-4.777300 0.261600
-4.728100 0.267700
-4.678800 0.273800
-4.629600 0.280000
-4.580300 0.286200
-4.531000 0.292700
-4.481800 0.299200
-4.432500 0.306300
-4.383300 0.313800
-4.334000 0.321400
-4.284700 0.329000
-4.235500 0.336700
-4.186200 0.344000
-4.137000 0.351500
-4.087700 0.359200
-4.038400 0.366800
-3.989200 0.374700
-3.939900 0.383800
-3.890700 0.393600
-3.841400 0.403400
-3.792200 0.413400
-3.742900 0.423900
-3.693600 0.434600
-3.644400 0.445300
-3.595100 0.456300
-3.545900 0.467500
-3.496600 0.479000
-3.447300 0.491800
-3.398100 0.506200
-3.348800 0.522100
-3.299600 0.541200
-3.250300 0.563000
-3.201000 0.586200
-3.151800 0.627700
-3.102500 0.656500
-3.053300 0.679000
-3.004000 0.689900
-2.954700 0.687700
-2.905500 0.693600
-2.856200 0.688500
-2.807000 0.682000
-2.757700 0.690700
-2.708400 0.698400
-2.659200 0.713800
-2.609900 0.711400
-2.560700 0.714200
-2.511400 0.719000
-2.462200 0.724400
-2.412900 0.728000
-2.363600 0.723400
-2.314400 0.750100
-2.265100 0.764600
-2.215900 0.787000
-2.166600 0.821300
-2.117300 0.868200
-2.068100 0.911700
-2.018800 1.021400
-1.969600 1.162200
-1.920300 1.449800
-1.871000 1.181600
-1.821800 1.430100
-1.772500 1.810400
-1.723300 1.919300
-1.674000 1.774400
-1.624700 1.692500
-1.575500 1.622700
-1.526200 1.537100
-1.477000 1.508300
-1.427700 1.464000
-1.378400 1.430600
-1.329200 1.402200
-1.279900 1.374800
-1.230700 1.258000
-1.181400 1.138000
-1.132100 1.045800
-1.082900 0.984400
-1.033600 0.927900
-0.984400 0.893300
-0.935100 0.867300
-0.885900 0.851100
-0.836600 1.009900
-0.787300 1.247800
-0.738100 1.188000
-0.688800 1.129000
-0.639600 1.136400
-0.590300 1.117900
-0.541000 1.122600
-0.491800 1.147100
-0.442500 1.171700
-0.393300 1.252900
-0.344000 1.293900
-0.294700 1.281800
-0.245500 1.306100
-0.196200 1.267800
-0.147000 1.132300
-0.097700 1.052400
-0.048400 0.992100
0.000800 0.946900
0.050100 0.912600
0.099300 0.888200
0.148600 0.862800
0.197900 0.833900
0.247100 0.804900
0.296400 0.783000
0.345600 0.764200
0.394900 0.744300
0.444100 0.726500
0.493400 0.709300
0.542700 0.690900
0.591900 0.673800
0.641200 0.658700
0.690400 0.645600
0.739700 0.632900
0.789000 0.622700
0.838200 0.612600
0.887500 0.601500
0.936700 0.589500
0.986000 0.575600
1.035300 0.561400
1.084500 0.548700
1.133800 0.538100
1.183000 0.526900
1.232300 0.517200
1.281600 0.508000
1.330800 0.499900
1.380100 0.491800
1.429300 0.482800
1.478600 0.472800
1.527900 0.464100
1.577100 0.455300
1.626400 0.447800
1.675600 0.438900
1.724900 0.432100
1.774200 0.424600
1.823400 0.416300
1.872700 0.408600
1.921900 0.399800
1.971200 0.390800
2.020400 0.383600
2.069700 0.377100
2.119000 0.369400
2.168200 0.361500
2.217500 0.355700
2.266700 0.349600
2.316000 0.343200
2.365300 0.337400
2.414500 0.331600
2.463800 0.327200
2.513000 0.316100
2.562300 0.311500
2.611600 0.311200
2.660800 0.306300
2.710100 0.297700
2.759300 0.289600
2.808600 0.280300
2.857900 0.271800
2.907100 0.264200
2.956400 0.256100
3.005600 0.246300
3.054900 0.234700
3.104200 0.224700
3.153400 0.216600
3.202700 0.205200
3.251900 0.189000
3.301200 0.179500
3.350400 0.171300
3.399700 0.160300
3.449000 0.151000
3.498200 0.148100
3.547500 0.146400
3.596700 0.144300
3.646000 0.141800
3.695300 0.143300
3.744500 0.142300
3.793800 0.137600
3.843000 0.135000
3.892300 0.131200
3.941600 0.158700
3.990800 0.205600
4.040100 0.055500
4.089300 0.000000
4.138600 0.000000
4.187900 0.006200
4.237100 0.016000
4.286400 0.029500
4.335600 0.047600
4.384900 0.083700
4.434200 0.128100
4.483400 0.163300
4.532700 0.223800
4.581900 0.265200
4.631200 0.321500
4.680400 0.371700
4.729700 0.417200
4.779000 0.527700
4.828200 0.579500
4.877500 0.593800
4.926700 0.627100
4.976000 0.651400
5.025300 0.677600
5.074500 0.703700
5.123800 0.715100
5.173000 0.733500
5.222300 0.748400
5.271600 0.791300
5.320800 0.846000
5.370100 0.904200
5.419300 0.961200
5.468600 1.022900
5.517900 1.156500
5.567100 1.276300
5.616400 1.294000
5.665600 1.514000
5.714900 1.641400
5.764200 1.738600
5.813400 1.744400
5.862700 1.698100
5.911900 1.641300
5.961200 1.531600
6.010500 1.489100
6.059700 1.450000
6.109000 1.416900
6.158200 1.421100
6.207500 1.425500
6.256700 1.374700
6.306000 1.319200
6.355300 1.303800
6.404500 1.296700
6.453800 1.249000
6.503000 1.204300
6.552300 1.247300
6.601600 1.186700
6.650800 1.164000
6.700100 1.105700
6.749300 1.056100
6.798600 1.054100
6.847900 1.054500
6.897100 1.064800
6.946400 1.121600
6.995600 1.170200
7.044900 1.202400
7.094200 1.213300
7.143400 1.231000
7.192700 1.253500
7.241900 1.302600
7.291200 1.359600
7.340500 1.516300
7.389700 1.574700
7.439000 1.759800
7.488200 1.937700
7.537500 1.972400
7.586700 1.842700
7.636000 1.660200
7.685300 1.525500
7.734500 1.436500
7.783800 1.358500
7.833000 1.296400
7.882300 1.240700
7.931600 1.216300
7.980800 1.242500
8.030100 1.304400
8.079300 1.360500
8.128600 1.436000
8.177900 1.537200
8.227100 1.606600
8.276400 1.625700
8.325600 1.651000
8.374900 1.752800
8.424200 1.847200
8.473400 2.027900
8.522700 2.103300
8.571900 2.214900
8.621200 2.334600
8.670500 2.504800
8.719700 2.421600
8.769000 2.185700
8.818200 2.081300
8.867500 1.830100
8.916800 1.687300
8.966000 1.638400
9.015300 1.475400
9.064500 1.720500
9.113800 1.872200
9.163000 2.101300
9.212300 2.245500
9.261600 2.148900
9.310800 1.893800
9.360100 1.770500
9.409300 1.628900
9.458600 1.530200
9.507900 1.515900
9.557100 1.494900
9.606400 1.439800
9.655600 1.455100
9.704900 1.452000
9.754200 1.469900
9.803400 1.381900
9.852700 1.162100
9.901900 1.204500
9.951200 1.288300
10.000500 1.321800
10.049700 1.303200
10.099000 1.300900
10.148200 1.220500
10.197500 1.208000
10.246800 1.245800
10.296000 1.312500
10.345300 1.471600
10.394500 1.363600
10.443800 1.237000
10.493000 1.247800
10.542300 1.260900
10.591600 1.310300
10.640800 1.412500
10.690100 1.479500
10.739300 1.575400
10.788600 1.642100
10.837900 1.734300
10.887100 1.871300
10.936400 1.908700
10.985600 1.921100
11.034900 1.837200
11.084200 1.869000
11.133400 1.864900
11.182700 1.894800
11.231900 1.716900
11.281200 1.553300
11.330500 1.356500
11.379700 1.305000
11.429000 1.245900
11.478200 1.177600
11.527500 1.078600
11.576800 1.039500
11.626000 1.033400
11.675300 1.083000
11.724500 1.008600
11.773800 1.043600
11.823000 1.095900
11.872300 1.022200
11.921600 1.025600
11.970800 1.023500
12.020100 0.962700
12.069300 0.935200
12.118600 0.910800
12.167900 0.901600
12.217100 0.904300
12.266400 0.963700
12.315600 1.024900
12.364900 1.096300
12.414200 1.226000
12.463400 1.335300
12.512700 1.386800
12.561900 1.386700
12.611200 1.394700
12.660500 1.276800
12.709700 1.095600
12.759000 1.028900
12.808200 1.107100
12.857500 1.098800
12.906800 1.087800
12.956000 1.027800
13.005300 1.019900
13.054500 1.009900
13.103800 0.968100
13.153100 0.920800
13.202300 0.870100
13.251600 0.774000
13.300800 0.727100
13.350100 0.707900
13.399300 0.670100
13.448600 0.675300
13.497900 0.688300
13.547100 0.711000
13.596400 0.744400
13.645600 0.779100
13.694900 0.820200
13.744200 0.821300
13.793400 0.835300
13.842700 0.842000
13.891900 0.810100
13.941200 0.807200
13.990500 0.804500
14.039700 0.808100
14.089000 0.828200
14.138200 0.850100
14.187500 0.881400
14.236800 0.948800
14.286000 0.971600
14.335300 0.932700
14.384500 0.950900
14.433800 0.976500
14.483100 0.995100
14.532300 1.032800
14.581600 1.083200
14.630800 1.117900
14.680100 1.093500
14.729300 1.052000
14.778600 1.069700
14.827900 1.095900
14.877100 1.056900
14.926400 1.081600
14.975600 1.089700
15.024900 1.062100
15.074200 1.011400
15.123400 0.978700
15.172700 0.915200
15.221900 0.879800
15.271200 0.856400
15.320500 0.841300
15.369700 0.848800
15.419000 0.846600
15.468200 0.795400
15.517500 0.756500
15.566800 0.793600
15.616000 0.849400
15.665300 0.897500
15.714500 0.979600
15.763800 1.103400
15.813100 1.175800
15.862300 1.193600
15.911600 1.202100
15.960800 1.153800
16.010100 1.115500
16.059400 1.074600
16.108600 1.046400
16.157900 1.024000
16.207100 1.031300
16.256400 1.026800
16.305600 1.022500
16.354900 1.020900
16.404200 1.024200
16.453400 1.026900
16.502700 1.030400
16.551900 1.037100
16.601200 1.044200
16.650500 1.056900
16.699700 1.045100
16.749000 1.032600
16.798200 1.018300
16.847500 0.990700
16.896800 0.966500
16.946000 0.954300
16.995300 0.946300
17.044500 0.967900
17.093800 0.967500
17.143100 0.961000
17.192300 0.960100
17.241600 0.959700
17.290800 0.970900
17.340100 1.001900
17.389400 1.038900
17.438600 1.075100
17.487900 1.114000
17.537100 1.146400
17.586400 1.157900
17.635600 1.146300
17.684900 1.092900
17.734200 1.034300
17.783400 0.969900
17.832700 0.886200
17.881900 0.793000
17.931200 0.711400
17.980500 0.671700
18.029700 0.660200
18.079000 0.658000
18.128200 0.600500
18.177500 0.594200
18.226800 0.596500
18.276000 0.609000
18.325300 0.676600
18.374500 0.718000
18.423800 0.768200
18.473100 0.821900
18.522300 0.938800
18.571600 1.242300
18.620800 1.211100
18.670100 1.219600
18.719400 1.265300
18.768600 1.262600
18.817900 1.214900
18.867100 1.148400
18.916400 1.100500
18.965600 1.067800
19.014900 1.024400
19.064200 0.995200
19.113400 0.964000
19.162700 0.941000
19.211900 0.920800
19.261200 0.900900
19.310500 0.882400
19.359700 0.864200
19.409000 0.855700
19.458200 0.831300
19.507500 0.805400
19.556800 0.747300
19.606000 0.701900
19.655300 0.654500
19.704500 0.601700
19.753800 0.551900
19.803100 0.509500
19.852300 0.475500
19.901600 0.449400
19.950800 0.431500
20.000100 0.428800
20.049400 0.388800
20.098600 0.339300
20.147900 0.324400
20.197100 0.319100
20.246400 0.312800
20.295700 0.309300
20.344900 0.309800
20.394200 0.320000
20.443400 0.333900
20.492700 0.346900
20.541900 0.371500
20.591200 0.406100
20.640500 0.446800
20.689700 0.515100
20.739000 0.550200
20.788200 0.611500
20.837500 0.655600
20.886800 0.713200
20.936000 0.761400
20.985300 0.780600
21.034500 0.808000
21.083800 0.926500
21.133100 0.999100
21.182300 1.032900
21.231600 1.093500
21.280800 1.118600
21.330100 1.173900
21.379400 1.225400
21.428600 1.277600
21.477900 1.347800
21.527100 1.515600
21.576400 1.621400
21.625700 1.551400
21.674900 1.382800
21.724200 1.309200
21.773400 1.298300
21.822700 1.293700
21.871900 1.294200
21.921200 1.290100
21.970500 1.281300
22.019700 1.262100
22.069000 1.257300
22.118200 1.282600
22.167500 1.288700
22.216800 1.314800
22.266000 1.327500
22.315300 1.411400
22.364500 1.517400
22.413800 1.548000
22.463100 1.578800
22.512300 1.585000
22.561600 1.504100
22.610800 1.506600
22.660100 1.524600
22.709400 1.571700
22.758600 1.530800
22.807900 1.503900
22.857100 1.467400
22.906400 1.420600
22.955700 1.421100
23.004900 1.484000
23.054200 1.581700
23.103400 1.643800
23.152700 1.570800
23.202000 1.560000
23.251200 1.442200
23.300500 1.420400
23.349700 1.392100
23.399000 1.255800
23.448200 1.162200
23.497500 1.103000
23.546800 1.087800
23.596000 1.106600
23.645300 1.146600
23.694500 1.130900
23.743800 1.132400
23.793100 1.121800
23.842300 1.132900
23.891600 1.167700
23.940800 1.203900
23.990100 1.248900
24.039400 1.303900
24.088600 1.357700
24.137900 1.400100
24.187100 1.376000
24.236400 1.317400
24.285700 1.251300
24.334900 1.199000
24.384200 1.158000
24.433400 1.127900
24.482700 1.111800
24.532000 1.103300
24.581200 1.087900
24.630500 1.060400
24.679700 1.034800
24.729000 1.039100
24.778200 1.085500
24.827500 1.151400
24.876800 1.294300
24.926000 1.360300
24.975300 1.412100
25.024500 1.402600
25.073800 1.412100
25.123100 1.411500
25.172300 1.398300
25.221600 1.367600
25.270800 1.371300
25.320100 1.345500
25.369400 1.332200
25.418600 1.315000
25.467900 1.274500
25.517100 1.226900
25.566400 1.183000
25.615700 1.141000
25.664900 1.102100
25.714200 1.070500
25.763400 1.021900
25.812700 1.012500
25.862000 1.034400
25.911200 1.076300
25.960500 1.045500
26.009700 1.032100
26.059000 1.034200
26.108200 1.033100
26.157500 1.032300
26.206800 1.043500
26.256000 1.040800
26.305300 1.052500
26.354500 1.072200
26.403800 1.067400
26.453100 1.108800
26.502300 1.122700
26.551600 1.180800
26.600800 1.328000
26.650100 1.328700
26.699400 1.292700
26.748600 1.290400
26.797900 1.239000
26.847100 1.249600
26.896400 1.282600
26.945700 1.294000
26.994900 1.173600
27.044200 1.100700
27.093400 1.097500
27.142700 1.101900
27.192000 1.072300
27.241200 1.073800
27.290500 1.108000
27.339700 1.150000
27.389000 1.195100
27.438300 1.237600
27.487500 1.255500
27.536800 1.281300
27.586000 1.312600
27.635300 1.283500
27.684500 1.305100
27.733800 1.329600
27.783100 1.355700
27.832300 1.370700
27.881600 1.380900
27.930800 1.397200
27.980100 1.358600
28.029400 1.340100
28.078600 1.335100
28.127900 1.333400
28.177100 1.329400
28.226400 1.333500
28.275700 1.343900
28.324900 1.356700
28.374200 1.373000
28.423400 1.329800
28.472700 1.302800
28.522000 1.285800
28.571200 1.273000
28.620500 1.254100
28.669700 1.252900
28.719000 1.272400
28.768300 1.259600
28.817500 1.280600
28.866800 1.222000
28.916000 1.148100
28.965300 1.061600
29.014500 1.008900
29.063800 0.971400
29.113100 0.934100
29.162300 0.906800
29.211600 0.906700
29.260800 0.920100
29.310100 0.929100
29.359400 0.938400
29.408600 0.956600
29.457900 0.983200
29.507100 1.024300
29.556400 1.091100
29.605700 1.143200
29.654900 1.177600
29.704200 1.214100
29.753400 1.257800
29.802700 1.308500
29.852000 1.377200
29.901200 1.369600
29.950500 1.473800
29.999700 1.581100
30.049000 1.548200
30.098300 1.473300
30.147500 1.400800
30.196800 1.348900
30.246000 1.347300
30.295300 1.392400
30.344500 1.392100
30.393800 1.393400
30.443100 1.374700
30.492300 1.381000
30.541600 1.363300
30.590800 1.380700
30.640100 1.444100
30.689400 1.409300
30.738600 1.404300
30.787900 1.275400
30.837100 1.173800
30.886400 1.119500
30.935700 1.095200
30.984900 1.091000
31.034200 1.118700
31.083400 1.122700
31.132700 1.127300
31.182000 1.169800
31.231200 1.233800
31.280500 1.276600
31.329700 1.356800
31.379000 1.436600
31.428300 1.443800
31.477500 1.437000
31.526800 1.434300
31.576000 1.403500
31.625300 1.312100
31.674600 1.265100
31.723800 1.252100
31.773100 1.283000
31.822300 1.291900
31.871600 1.319500
31.920800 1.341800
31.970100 1.386400
32.019400 1.388700
32.068600 1.404100
32.117900 1.461800
32.167100 1.557100
32.216400 1.656100
32.265700 1.666200
32.314900 1.674900
32.364200 1.710400
32.413400 1.712600
32.462700 1.654500
32.512000 1.560600
32.561200 1.508400
32.610500 1.479400
32.659700 1.476700
32.709000 1.483400
32.758300 1.508000
32.807500 1.541700
32.856800 1.533500
32.906000 1.527400
32.955300 1.485900
33.004600 1.426300
33.053800 1.364100
33.103100 1.306300
33.152300 1.323500
33.201600 1.325300
33.250800 1.361000
33.300100 1.283200
33.349400 1.269100
33.398600 1.285900
33.447900 1.324100
33.497100 1.238600
33.546400 1.195200
33.595700 1.150000
33.644900 1.122400
33.694200 1.088100
33.743400 1.088700
33.792700 1.104700
33.842000 1.151800
33.891200 1.177000
33.940500 1.217000
33.989700 1.269300
34.039000 1.272400
34.088300 1.278000
34.137500 1.257100
34.186800 1.164600
34.236000 1.126900
34.285300 1.141900
34.334600 1.132200
34.383800 1.155000
34.433100 1.181300
34.482300 1.209500
34.531600 1.270800
34.580900 1.266200
34.630100 1.262000
34.679400 1.238900
34.728600 1.276700
34.777900 1.339700
34.827100 1.356200
34.876400 1.400400
34.925700 1.460900
34.974900 1.405100
35.024200 1.414900
35.073400 1.438500
35.122700 1.435500
35.172000 1.395800
35.221200 1.390900
35.270500 1.407500
35.319700 1.424800
35.369000 1.437500
35.418300 1.453600
35.467500 1.491700
35.516800 1.497800
35.566000 1.514600
35.615300 1.524400
35.664600 1.497100
35.713800 1.493300
35.763100 1.515200
35.812300 1.530400
35.861600 1.551300
35.910900 1.561300
35.960100 1.572900
36.009400 1.575600
36.058600 1.562400
36.107900 1.548100
36.157100 1.566200
36.206400 1.584100
36.255700 1.621000
36.304900 1.586000
36.354200 1.561400
36.403400 1.565300
36.452700 1.510300
36.502000 1.453900
36.551200 1.412800
36.600500 1.386200
36.649700 1.406500
36.699000 1.450400
36.748300 1.435200
36.797500 1.432700
36.846800 1.456800
36.896000 1.484300
36.945300 1.357400
36.994600 1.344200
37.043800 1.346200
37.093100 1.363100
37.142300 1.364000
37.191600 1.399200
37.240900 1.435500
37.290100 1.442000
37.339400 1.454500
37.388600 1.431000
37.437900 1.391000
37.487100 1.365800
37.536400 1.366200
37.585700 1.376400
37.634900 1.393300
37.684200 1.404100
37.733400 1.436500
37.782700 1.464400
37.832000 1.511500
37.881200 1.537900
37.930500 1.564600
37.979700 1.589700
38.029000 1.607000
38.078300 1.530200
38.127500 1.473700
38.176800 1.447800
38.226000 1.413100
38.275300 1.412900
38.324600 1.393300
38.373800 1.402400
38.423100 1.434200
38.472300 1.464000
38.521600 1.493300
38.570900 1.488800
38.620100 1.456700
38.669400 1.437600
38.718600 1.435500
38.767900 1.457800
38.817200 1.419200
38.866400 1.387900
38.915700 1.383000
38.964900 1.399100
39.014200 1.409900
39.063400 1.401200
39.112700 1.371800
39.162000 1.295100
39.211200 1.269900
39.260500 1.261600
39.309700 1.257000
39.359000 1.261000
39.408300 1.250400
39.457500 1.239600
39.506800 1.244000
39.556000 1.267700
39.605300 1.297700
39.654600 1.330500
39.703800 1.360500
39.753100 1.418500
39.802300 1.459000
39.851600 1.461700
39.900900 1.488700
39.950100 1.516100
39.999400 1.555000
40.048600 1.644500
40.097900 1.670800
40.147200 1.615200
40.196400 1.570000
40.245700 1.571600
40.294900 1.586100
40.344200 1.546800
40.393400 1.485000
40.442700 1.415600
40.492000 1.346500
40.541200 1.287100
40.590500 1.250000
40.639700 1.260200
40.689000 1.276400
40.738300 1.294200
40.787500 1.320000
40.836800 1.294800
40.886000 1.284700
40.935300 1.309600
40.984600 1.352900
41.033800 1.400300
41.083100 1.454800
41.132300 1.532200
41.181600 1.584100
41.230900 1.637300
41.280100 1.700200
41.329400 1.722100
41.378600 1.678500
41.427900 1.651000
41.477200 1.672000
41.526400 1.644200
41.575700 1.626700
41.624900 1.620700
41.674200 1.613700
41.723500 1.600800
41.772700 1.595000
41.822000 1.579000
41.871200 1.562200
41.920500 1.548800
41.969700 1.544400
42.019000 1.545500
42.068300 1.578000
42.117500 1.671700
42.166800 1.627600
42.216000 1.615900
42.265300 1.640600
42.314600 1.672400
42.363800 1.728200
42.413100 1.797300
42.462300 1.851500
42.511600 1.845500
42.560900 1.808100
42.610100 1.770000
42.659400 1.690800
42.708600 1.646600
42.757900 1.615400
42.807200 1.605100
42.856400 1.597900
42.905700 1.591800
42.954900 1.541300
43.004200 1.560600
43.053500 1.622000
43.102700 1.704200
43.152000 1.767100
43.201200 1.870200
43.250500 1.781200
43.299700 1.730500
43.349000 1.688300
43.398300 1.654900
43.447500 1.611100
43.496800 1.571100
43.546000 1.545900
43.595300 1.555600
43.644600 1.569800
43.693800 1.580000
43.743100 1.595600
43.792300 1.659700
43.841600 1.680200
43.890900 1.732100
43.940100 1.729700
43.989400 1.646100
44.038600 1.568600
44.087900 1.581500
44.137200 1.573900
44.186400 1.538900
44.235700 1.525600
44.284900 1.485900
44.334200 1.401400
44.383500 1.337600
44.432700 1.303900
44.482000 1.292000
44.531200 1.333800
44.580500 1.272900
44.629700 1.284600
44.679000 1.284800
44.728300 1.298000
44.777500 1.317000
44.826800 1.358800
44.876000 1.375700
44.925300 1.391000
44.974600 1.412500
45.023800 1.347600
45.073100 1.350100
45.122300 1.365000
45.171600 1.414800
45.220900 1.431600
45.270100 1.475600
45.319400 1.545600
45.368600 1.623900
45.417900 1.703400
45.467200 1.664600
45.516400 1.620300
45.565700 1.622300
45.614900 1.629300
45.664200 1.626100
45.713500 1.643600
45.762700 1.705200
45.812000 1.833000
45.861200 1.877400
45.910500 1.812900
45.959800 1.769400
46.009000 1.747600
46.058300 1.751500
46.107500 1.732600
46.156800 1.791900
46.206000 1.697300
46.255300 1.683500
46.304600 1.647800
46.353800 1.638700
46.403100 1.651100
46.452300 1.747200
46.501600 1.858500
46.550900 1.835100
46.600100 1.847600
46.649400 1.870100
46.698600 1.936300
46.747900 1.945100
46.797200 2.004700
46.846400 2.080000
46.895700 2.117000
46.944900 2.140800
46.994200 2.044900
47.043500 1.984800
47.092700 1.904300
47.142000 1.870800
47.191200 1.869100
47.240500 1.793400
47.289800 1.785500
47.339000 1.779200
47.388300 1.816500
47.437500 1.942600
47.486800 1.989900
47.536000 2.071700
47.585300 2.133700
47.634600 2.212700
47.683800 2.311800
47.733100 2.390600
47.782300 2.428300
47.831600 2.442500
47.880900 2.472300
47.930100 2.533700
47.979400 2.459000
48.028600 2.461200
48.077900 2.341800
48.127200 2.231400
48.176400 2.160400
48.225700 2.145000
48.274900 2.161400
48.324200 2.193600
48.373500 1.957200
48.422700 1.885800
48.472000 1.954600
48.521200 2.109500
48.570500 2.184500
48.619800 2.115400
48.669000 2.110000
48.718300 2.142600
48.767500 2.091000
48.816800 2.054200
48.866100 1.997800
48.915300 1.965200
48.964600 1.952600
49.013800 1.944800
49.063100 1.932500
49.112300 1.915400
49.161600 1.883600
49.210900 1.833800
49.260100 1.783600
49.309400 1.722600
49.358600 1.707800
49.407900 1.670900
49.457200 1.662600
49.506400 1.699500
49.555700 1.736900
49.604900 1.782300
49.654200 1.864000
49.703500 1.916400
49.752700 1.890800
49.802000 1.945200
49.851200 1.793500
49.900500 1.690400
49.949800 1.664500
49.999000 1.626500
50.048300 1.587600
50.097500 1.554000
50.146800 1.544600
50.196100 1.513800
50.245300 1.529200
50.294600 1.575300
50.343800 1.576700
50.393100 1.626300
50.442300 1.637300
50.491600 1.618400
50.540900 1.600400
50.590100 1.588600
50.639400 1.604800
50.688600 1.640000
50.737900 1.674300
50.787200 1.713700
50.836400 1.767800
50.885700 1.802800
50.934900 1.812200
50.984200 1.822200
51.033500 1.824900
51.082700 1.776000
51.132000 1.703900
51.181200 1.658900
51.230500 1.603100
51.279800 1.554000
51.329000 1.543400
51.378300 1.538400
51.427500 1.545500
51.476800 1.548200
51.526100 1.566100
51.575300 1.560300
51.624600 1.560600
51.673800 1.591500
51.723100 1.675600
51.772300 1.763200
51.821600 1.831700
51.870900 1.852600
51.920100 1.901500
51.969400 1.848200
52.018600 1.782100
52.067900 1.723400
52.117200 1.737100
52.166400 1.667100
52.215700 1.632300
52.264900 1.616400
52.314200 1.613400
52.363500 1.612000
52.412700 1.647600
52.462000 1.687300
52.511200 1.653200
52.560500 1.677000
52.609800 1.686700
52.659000 1.700700
52.708300 1.765300
52.757500 1.881700
52.806800 1.915000
52.856100 1.895000
52.905300 1.954900
52.954600 1.922200
53.003800 1.871000
53.053100 1.815400
53.102400 1.748700
53.151600 1.694700
53.200900 1.654700
53.250100 1.608900
53.299400 1.581600
53.348600 1.552300
53.397900 1.527900
53.447200 1.498600
53.496400 1.495300
53.545700 1.530000
53.594900 1.594000
53.644200 1.522400
53.693500 1.545000
53.742700 1.578000
53.792000 1.609500
53.841200 1.638900
53.890500 1.706300
53.939800 1.755100
53.989000 1.797800
54.038300 1.878200
54.087500 1.884000
54.136800 1.931300
54.186100 1.985000
54.235300 1.996100
54.284600 1.970600
54.333800 1.816700
54.383100 1.744000
54.432400 1.702000
54.481600 1.693300
54.530900 1.687900
54.580100 1.684200
54.629400 1.675100
54.678600 1.690300
54.727900 1.673900
54.777200 1.694200
54.826400 1.706800
54.875700 1.631800
54.924900 1.609500
54.974200 1.602300
55.023500 1.569700
55.072700 1.552100
55.122000 1.559500
55.171200 1.575100
55.220500 1.569200
55.269800 1.572300
55.319000 1.569700
55.368300 1.577200
55.417500 1.606200
55.466800 1.665000
55.516100 1.691600
55.565300 1.754300
55.614600 1.740900
55.663800 1.731000
55.713100 1.716100
55.762400 1.692400
55.811600 1.672100
55.860900 1.656000
55.910100 1.649500
55.959400 1.640700
56.008700 1.626400
56.057900 1.668800
56.107200 1.665900
56.156400 1.691000
56.205700 1.715600
56.254900 1.732600
56.304200 1.673000
56.353500 1.677100
56.402700 1.689100
56.452000 1.687800
56.501200 1.718300
56.550500 1.699600
56.599800 1.698000
56.649000 1.700400
56.698300 1.712900
56.747500 1.693200
56.796800 1.677400
56.846100 1.657200
56.895300 1.614800
56.944600 1.601500
56.993800 1.597400
57.043100 1.586600
57.092400 1.573400
57.141600 1.536400
57.190900 1.514300
57.240100 1.503300
57.289400 1.516700
57.338700 1.515800
57.387900 1.537000
57.437200 1.472400
57.486400 1.499700
57.535700 1.597100
57.584900 1.598000
57.634200 1.608800
57.683500 1.619800
57.732700 1.626000
57.782000 1.658400
57.831200 1.704000
57.880500 1.746600
57.929800 1.786200
57.979000 1.812700
58.028300 1.783900
58.077500 1.765700
58.126800 1.830700
58.176100 1.910200
58.225300 1.923600
58.274600 1.926300
58.323800 1.922400
58.373100 1.912400
58.422400 1.928600
58.471600 1.921100
58.520900 1.926400
58.570100 1.956400
58.619400 1.878000
58.668700 1.858900
58.717900 1.835500
58.767200 1.817700
58.816400 1.797500
58.865700 1.789900
58.914900 1.809100
58.964200 1.802500
59.013500 1.841900
59.062700 1.737900
59.112000 1.752800
59.161200 1.757100
59.210500 1.723600
59.259800 1.705700
59.309000 1.711900
59.358300 1.734500
59.407500 1.735000
59.456800 1.756800
59.506100 1.757600
59.555300 1.772500
59.604600 1.784700
59.653800 1.790900
59.703100 1.795300
59.752400 1.819100
59.801600 1.792100
59.850900 1.819600
59.900100 1.830900
59.949400 1.763800
59.998700 1.724400
60.047900 1.722800
60.097200 1.711100
60.146400 1.722700
60.195700 1.742900
60.245000 1.757500
60.294200 1.761900
60.343500 1.773800
60.392700 1.820900
60.442000 1.862600
60.491200 1.825500
60.540500 1.774900
60.589800 1.782700
60.639000 1.776900
60.688300 1.763800
60.737500 1.753600
60.786800 1.748400
60.836100 1.716300
60.885300 1.723300
60.934600 1.815900
60.983800 2.019000
61.033100 2.019500
61.082400 2.005900
61.131600 2.000900
61.180900 2.005600
61.230100 1.957400
61.279400 1.885300
61.328700 1.841800
61.377900 1.803600
61.427200 1.709400
61.476400 1.628400
61.525700 1.557800
61.575000 1.520800
61.624200 1.511600
61.673500 1.527700
61.722700 1.601900
61.772000 1.729000
61.821200 1.777800
61.870500 1.816000
61.919800 1.886200
61.969000 1.970900
62.018300 1.923100
62.067500 1.908900
62.116800 1.813500
62.166100 1.686600
62.215300 1.607900
62.264600 1.554500
62.313800 1.520200
62.363100 1.483500
62.412400 1.433400
62.461600 1.371800
62.510900 1.359400
62.560100 1.322800
62.609400 1.323400
62.658700 1.293500
62.707900 1.250100
62.757200 1.213600
62.806400 1.211000
62.855700 1.234700
62.905000 1.234900
62.954200 1.236100
63.003500 1.226200
63.052700 1.234000
63.102000 1.238200
63.151300 1.222100
63.200500 1.191600
63.249800 1.163700
63.299000 1.142300
63.348300 1.134100
63.397500 1.150000
63.446800 1.144700
63.496100 1.124300
63.545300 1.090400
63.594600 1.058700
63.643800 1.043100
63.693100 0.956300
63.742400 0.903900
63.791600 0.874700
63.840900 0.824700
63.890100 0.774000
63.939400 0.739300
63.988700 0.701900
64.037900 0.626600
64.087200 0.593900
64.136400 0.584500
64.185700 0.572500
64.235000 0.523900
64.284200 0.478000
64.333500 0.430500
64.382700 0.370300
64.432000 0.317800
64.481300 0.272100
64.530500 0.234300
64.579800 0.199900
64.629000 0.169100
64.678300 0.146000
64.727500 0.125800
64.776800 0.112600
64.826100 0.102000
64.875300 0.091600
64.924600 0.082000
64.973800 0.073100
65.023100 0.065000
65.072400 0.057600
65.121600 0.050900
65.170900 0.042400
65.220100 0.038700
65.269400 0.035900
65.318700 0.033900
65.367900 0.032300
65.417200 0.029700
65.466400 0.027000
65.515700 0.024200
65.565000 0.020000
65.614200 0.016100
65.663500 0.012600
65.712700 0.009600
65.762000 0.006900
65.811300 0.004700
65.860500 0.003400
65.909800 0.002600
65.959000 0.001900
66.008300 0.001400
66.057500 0.000900
66.106800 0.000500
66.156100 0.000200
66.205300 0.000000
66.254600 0.000000
66.303800 0.000000
66.353100 0.000000
66.402400 0.000000
66.451600 0.000000
66.500900 0.000000
66.550100 0.000000
66.599400 0.000000
66.648700 0.000000
66.697900 0.000000
66.747200 0.000000
66.796400 0.000000
66.845700 0.000000
66.895000 0.000000
66.944200 0.000000
66.993500 0.000000
67.042700 0.000000
67.092000 0.000000
67.141300 0.000000
67.190500 0.000000
67.239800 0.000000
67.289000 0.000000
67.338300 0.000000
67.387600 0.000000
67.436800 0.000000
67.486100 0.000000
67.535300 0.000000
67.584600 0.000000
67.633800 0.000000
67.683100 0.000000
67.732400 0.000000
67.781600 0.000000
67.830900 0.000000
67.880100 0.000000
67.929400 0.000000
67.978700 0.000000
68.027900 0.000000
68.077200 0.000000
68.126400 0.000000
68.175700 0.000000
68.225000 0.000000
68.274200 0.000000
68.323500 0.000000
68.372700 0.000000
68.422000 0.000000
68.471300 0.000000
68.520500 0.000000
68.569800 0.000000
68.619000 0.000000
68.668300 0.000000
68.717600 0.000000
68.766800 0.000000
68.816100 0.000000
68.865300 0.000000
68.914600 0.000000
68.963800 0.000000
69.013100 0.000000
69.062400 0.000000
69.111600 0.000000
69.160900 0.000000
69.210100 0.000000
69.259400 0.000000
69.308700 0.000000
69.357900 0.000000
69.407200 0.000000
69.456400 0.000000
69.505700 0.000000
69.555000 0.000000
69.604200 0.000000
69.653500 0.000000
69.702700 0.000000
69.752000 0.000000
69.801300 0.000000
69.850500 0.000000
69.899800 0.000000
69.949000 0.000000
69.998300 0.000000
70.047600 0.000000
70.096800 0.000000
70.146100 0.000000
70.195300 0.000000
70.244600 0.000000
70.293800 0.000000
70.343100 0.000000
70.392400 0.000000
70.441600 0.000000
70.490900 0.000000
70.540100 0.000000
70.589400 0.000000
70.638700 0.000000
70.687900 0.000000
e
