set title 'mp-2466 - Density of States'
set xlabel 'Energy (eV)'
set ylabel 'DOS (states/eV)'
set grid
set xrange [-10:10]
set yrange [0:14.065]
set xzeroaxis lt -1
set terminal png size 800,600
set output 'mp-2466_dos_gnuplot.png'
plot '-' using 1:2 with lines title 'DOS'
-23.838900 0.000000
-23.798100 0.000000
-23.757300 0.000000
-23.716500 0.000000
-23.675800 0.000000
-23.635000 0.000000
-23.594200 0.000000
-23.553400 0.000000
-23.512700 0.000000
-23.471900 0.000000
-23.431100 0.000000
-23.390300 0.000000
-23.349600 0.000000
-23.308800 0.000000
-23.268000 0.000000
-23.227200 0.000000
-23.186500 0.000000
-23.145700 0.000000
-23.104900 0.000000
-23.064100 0.000000
-23.023400 0.000000
-22.982600 0.000000
-22.941800 0.000000
-22.901000 0.000000
-22.860300 0.000000
-22.819500 0.000000
-22.778700 0.000000
-22.737900 0.000000
-22.697200 0.000000
-22.656400 0.000000
-22.615600 0.000000
-22.574800 0.000000
-22.534100 0.000000
-22.493300 0.000000
-22.452500 0.000000
-22.411800 0.000000
-22.371000 0.000000
-22.330200 0.000000
-22.289400 0.000000
-22.248700 0.000000
-22.207900 0.000000
-22.167100 0.000000
-22.126300 0.000000
-22.085600 0.000000
-22.044800 0.000000
-22.004000 0.000000
-21.963200 0.000000
-21.922500 0.000000
-21.881700 0.000000
-21.840900 0.000000
-21.800100 0.000000
-21.759400 0.000000
-21.718600 0.000000
-21.677800 0.000000
-21.637000 0.000000
-21.596300 0.000000
-21.555500 0.000000
-21.514700 0.000000
-21.473900 0.000000
-21.433200 0.000000
-21.392400 0.000000
-21.351600 0.000000
-21.310800 0.000000
-21.270100 0.000000
-21.229300 0.000000
-21.188500 0.000000
-21.147700 0.000000
-21.107000 0.000000
-21.066200 0.000000
-21.025400 0.000000
-20.984600 0.000000
-20.943900 0.000000
-20.903100 0.000000
-20.862300 0.000000
-20.821500 0.000000
-20.780800 0.000000
-20.740000 0.000000
-20.699200 0.000000
-20.658400 0.000000
-20.617700 0.000000
-20.576900 0.000000
-20.536100 0.000000
-20.495300 0.000000
-20.454600 0.000000
-20.413800 0.000000
-20.373000 0.000000
-20.332200 0.000000
-20.291500 0.000000
-20.250700 0.001700
-20.209900 0.083700
-20.169200 1.306600
-20.128400 7.099900
-20.087600 15.480700
-20.046800 20.049200
-20.006100 29.271100
-19.965300 36.335400
-19.924500 25.553000
-19.883700 9.999100
-19.843000 1.842600
-19.802200 0.124800
-19.761400 0.002700
-19.720600 0.000000
-19.679900 0.000000
-19.639100 0.000000
-19.598300 0.000000
-19.557500 0.000000
-19.516800 0.000000
-19.476000 0.000000
-19.435200 0.000000
-19.394400 0.000000
-19.353700 0.000000
-19.312900 0.000000
-19.272100 0.000000
-19.231300 0.000000
-19.190600 0.000000
-19.149800 0.000000
-19.109000 0.000000
-19.068200 0.000000
-19.027500 0.000000
-18.986700 0.000000
-18.945900 0.000000
-18.905100 0.000000
-18.864400 0.000000
-18.823600 0.000000
-18.782800 0.000000
-18.742000 0.000000
-18.701300 0.000000
-18.660500 0.000000
-18.619700 0.000000
-18.578900 0.000000
-18.538200 0.000000
-18.497400 0.000000
-18.456600 0.000000
-18.415800 0.000000
-18.375100 0.000000
-18.334300 0.000000
-18.293500 0.000000
-18.252700 0.000000
-18.212000 0.000000
-18.171200 0.000000
-18.130400 0.000000
-18.089600 0.000000
-18.048900 0.000000
-18.008100 0.000000
-17.967300 0.000000
-17.926600 0.000000
-17.885800 0.000000
-17.845000 0.000000
-17.804200 0.000000
-17.763500 0.000000
-17.722700 0.000000
-17.681900 0.000000
-17.641100 0.000000
-17.600400 0.000000
-17.559600 0.000000
-17.518800 0.000000
-17.478000 0.000000
-17.437300 0.000000
-17.396500 0.000000
-17.355700 0.000000
-17.314900 0.000000
-17.274200 0.000000
-17.233400 0.000000
-17.192600 0.000000
-17.151800 0.000000
-17.111100 0.000000
-17.070300 0.000000
-17.029500 0.000000
-16.988700 0.000000
-16.948000 0.000000
-16.907200 0.000000
-16.866400 0.000000
-16.825600 0.000000
-16.784900 0.000000
-16.744100 0.000000
-16.703300 0.000000
-16.662500 0.000000
-16.621800 0.000000
-16.581000 0.000000
-16.540200 0.000000
-16.499400 0.000000
-16.458700 0.000000
-16.417900 0.000000
-16.377100 0.000000
-16.336300 0.000000
-16.295600 0.000000
-16.254800 0.000000
-16.214000 0.000000
-16.173200 0.000000
-16.132500 0.000000
-16.091700 0.000000
-16.050900 0.000000
-16.010100 0.000000
-15.969400 0.000000
-15.928600 0.000000
-15.887800 0.000000
-15.847000 0.000000
-15.806300 0.000000
-15.765500 0.000000
-15.724700 0.000000
-15.683900 0.000000
-15.643200 0.000000
-15.602400 0.000000
-15.561600 0.000000
-15.520900 0.000000
-15.480100 0.000000
-15.439300 0.000000
-15.398500 0.000000
-15.357800 0.000000
-15.317000 0.000000
-15.276200 0.000000
-15.235400 0.000000
-15.194700 0.000000
-15.153900 0.000000
-15.113100 0.000000
-15.072300 0.000000
-15.031600 0.000000
-14.990800 0.000000
-14.950000 0.000000
-14.909200 0.000000
-14.868500 0.000000
-14.827700 0.000000
-14.786900 0.000000
-14.746100 0.000000
-14.705400 0.000000
-14.664600 0.000000
-14.623800 0.000000
-14.583000 0.000000
-14.542300 0.000000
-14.501500 0.000000
-14.460700 0.000000
-14.419900 0.000000
-14.379200 0.000000
-14.338400 0.000000
-14.297600 0.000000
-14.256800 0.000000
-14.216100 0.000000
-14.175300 0.000000
-14.134500 0.000000
-14.093700 0.000000
-14.053000 0.000000
-14.012200 0.000000
-13.971400 0.000000
-13.930600 0.000000
-13.889900 0.000000
-13.849100 0.000000
-13.808300 0.000000
-13.767500 0.000000
-13.726800 0.000000
-13.686000 0.000000
-13.645200 0.000000
-13.604400 0.000000
-13.563700 0.000000
-13.522900 0.000000
-13.482100 0.000000
-13.441300 0.000000
-13.400600 0.000000
-13.359800 0.000000
-13.319000 0.000000
-13.278300 0.000000
-13.237500 0.000000
-13.196700 0.000000
-13.155900 0.000000
-13.115200 0.000000
-13.074400 0.000000
-13.033600 0.000000
-12.992800 0.000000
-12.952100 0.000000
-12.911300 0.000000
-12.870500 0.000000
-12.829700 0.000000
-12.789000 0.000000
-12.748200 0.000000
-12.707400 0.000000
-12.666600 0.000000
-12.625900 0.000000
-12.585100 0.000000
-12.544300 0.000000
-12.503500 0.000000
-12.462800 0.000000
-12.422000 0.000000
-12.381200 0.000000
-12.340400 0.000000
-12.299700 0.000000
-12.258900 0.000000
-12.218100 0.000000
-12.177300 0.000000
-12.136600 0.000000
-12.095800 0.000000
-12.055000 0.000000
-12.014200 0.000000
-11.973500 0.000000
-11.932700 0.000000
-11.891900 0.000000
-11.851100 0.000000
-11.810400 0.000000
-11.769600 0.000000
-11.728800 0.000000
-11.688000 0.000000
-11.647300 0.000000
-11.606500 0.000000
-11.565700 0.000000
-11.524900 0.000000
-11.484200 0.000000
-11.443400 0.000000
-11.402600 0.000000
-11.361800 0.000000
-11.321100 0.000000
-11.280300 0.000000
-11.239500 0.000000
-11.198700 0.000000
-11.158000 0.000000
-11.117200 0.000000
-11.076400 0.000000
-11.035700 0.000000
-10.994900 0.000000
-10.954100 0.000000
-10.913300 0.000000
-10.872600 0.000000
-10.831800 0.000000
-10.791000 0.000000
-10.750200 0.000000
-10.709500 0.000000
-10.668700 0.000000
-10.627900 0.000000
-10.587100 0.000000
-10.546400 0.000000
-10.505600 0.000000
-10.464800 0.000000
-10.424000 0.000000
-10.383300 0.000000
-10.342500 0.000000
-10.301700 0.000000
-10.260900 0.000000
-10.220200 0.000000
-10.179400 0.000000
-10.138600 0.000000
-10.097800 0.000000
-10.057100 0.000000
-10.016300 0.000000
-9.975500 0.000000
-9.934700 0.000000
-9.894000 0.000000
-9.853200 0.000000
-9.812400 0.000000
-9.771600 0.000000
-9.730900 0.000000
-9.690100 0.000000
-9.649300 0.000000
-9.608500 0.000000
-9.567800 0.000000
-9.527000 0.000000
-9.486200 0.000000
-9.445400 0.000000
-9.404700 0.000000
-9.363900 0.000000
-9.323100 0.000000
-9.282300 0.000000
-9.241600 0.000000
-9.200800 0.000000
-9.160000 0.000000
-9.119200 0.000000
-9.078500 0.000000
-9.037700 0.000000
-8.996900 0.000000
-8.956100 0.000000
-8.915400 0.000000
-8.874600 0.000000
-8.833800 0.000000
-8.793000 0.000000
-8.752300 0.000000
-8.711500 0.000000
-8.670700 0.000000
-8.630000 0.000000
-8.589200 0.000000
-8.548400 0.000000
-8.507600 0.000000
-8.466900 0.000000
-8.426100 0.000000
-8.385300 0.000000
-8.344500 0.000000
-8.303800 0.000000
-8.263000 0.000000
-8.222200 0.000000
-8.181400 0.000000
-8.140700 0.000000
-8.099900 0.000000
-8.059100 0.000000
-8.018300 0.000000
-7.977600 0.000000
-7.936800 0.000000
-7.896000 0.000000
-7.855200 0.000000
-7.814500 0.000000
-7.773700 0.000000
-7.732900 0.000000
-7.692100 0.000000
-7.651400 0.000000
-7.610600 0.000000
-7.569800 0.000000
-7.529000 0.000000
-7.488300 0.000000
-7.447500 0.000000
-7.406700 0.000000
-7.365900 0.000000
-7.325200 0.000000
-7.284400 0.000000
-7.243600 0.000000
-7.202800 0.000000
-7.162100 0.000000
-7.121300 0.000000
-7.080500 0.000000
-7.039700 0.000000
-6.999000 0.000000
-6.958200 0.000000
-6.917400 0.000000
-6.876600 0.000000
-6.835900 0.000000
-6.795100 0.000000
-6.754300 0.000000
-6.713500 0.000000
-6.672800 0.000000
-6.632000 0.000000
-6.591200 0.000000
-6.550400 0.000000
-6.509700 0.000000
-6.468900 0.000000
-6.428100 0.000000
-6.387400 0.000000
-6.346600 0.000000
-6.305800 0.000000
-6.265000 0.000000
-6.224300 0.000000
-6.183500 0.000000
-6.142700 0.000000
-6.101900 0.000000
-6.061200 0.000000
-6.020400 0.000000
-5.979600 0.000000
-5.938800 0.000000
-5.898100 0.000000
-5.857300 0.000000
-5.816500 0.000000
-5.775700 0.000000
-5.735000 0.000000
-5.694200 0.000000
-5.653400 0.000000
-5.612600 0.000000
-5.571900 0.000000
-5.531100 0.000000
-5.490300 0.000000
-5.449500 0.000000
-5.408800 0.000000
-5.368000 0.000000
-5.327200 0.000000
-5.286400 0.000000
-5.245700 0.000000
-5.204900 0.000000
-5.164100 0.000000
-5.123300 0.000000
-5.082600 0.000000
-5.041800 0.000000
-5.001000 0.000000
-4.960200 0.000000
-4.919500 0.000000
-4.878700 0.000000
-4.837900 0.000000
-4.797100 0.000000
-4.756400 0.000000
-4.715600 0.000000
-4.674800 0.000000
-4.634000 0.000000
-4.593300 0.000000
-4.552500 0.000000
-4.511700 0.000000
-4.470900 0.000000
-4.430200 0.000000
-4.389400 0.000000
-4.348600 0.000000
-4.307800 0.000000
-4.267100 0.000000
-4.226300 0.000000
-4.185500 0.000000
-4.144800 0.000000
-4.104000 0.000000
-4.063200 0.000000
-4.022400 0.000000
-3.981700 0.000000
-3.940900 0.000000
-3.900100 0.000000
-3.859300 0.000000
-3.818600 0.000000
-3.777800 0.000000
-3.737000 0.000000
-3.696200 0.000000
-3.655500 0.000000
-3.614700 0.000400
-3.573900 0.004800
-3.533100 0.019800
-3.492400 0.031800
-3.451600 0.048400
-3.410800 0.083700
-3.370000 0.148000
-3.329300 0.187400
-3.288500 0.121000
-3.247700 0.040200
-3.206900 0.064600
-3.166200 0.190700
-3.125400 0.259800
-3.084600 0.206700
-3.043800 0.177900
-3.003100 0.249700
-2.962300 0.322000
-2.921500 0.213200
-2.880700 0.130000
-2.840000 0.124500
-2.799200 0.279400
-2.758400 0.393900
-2.717600 0.280800
-2.676900 0.218000
-2.636100 0.258900
-2.595300 0.340900
-2.554500 0.309000
-2.513800 0.231600
-2.473000 0.376600
-2.432200 0.573000
-2.391400 0.586300
-2.350700 0.559900
-2.309900 0.359400
-2.269100 0.123700
-2.228300 0.160700
-2.187600 0.308900
-2.146800 0.428600
-2.106000 0.520600
-2.065200 0.622300
-2.024500 0.635600
-1.983700 0.607600
-1.942900 0.712700
-1.902100 0.709600
-1.861400 0.708900
-1.820600 0.849200
-1.779800 0.787900
-1.739100 0.590800
-1.698300 0.540600
-1.657500 0.642700
-1.616700 1.124100
-1.576000 1.880600
-1.535200 1.970500
-1.494400 1.695100
-1.453600 1.600200
-1.412900 1.829600
-1.372100 2.492300
-1.331300 3.334600
-1.290500 3.708800
-1.249800 3.408400
-1.209000 3.619400
-1.168200 5.091400
-1.127400 6.438700
-1.086700 6.712300
-1.045900 6.742400
-1.005100 6.713700
-0.964300 6.498300
-0.923600 6.590300
-0.882800 6.789700
-0.842000 6.116100
-0.801200 5.966400
-0.760500 7.132700
-0.719700 8.162600
-0.678900 9.345900
-0.638100 11.151700
-0.597400 11.362800
-0.556600 9.733700
-0.515800 8.445900
-0.475000 8.637600
-0.434300 9.447100
-0.393500 9.963400
-0.352700 10.291100
-0.311900 10.150900
-0.271200 9.387700
-0.230400 8.257200
-0.189600 7.178000
-0.148800 6.559300
-0.108100 5.891500
-0.067300 4.255900
-0.026500 3.077000
0.014300 3.952700
0.055000 4.934000
0.095800 3.834000
0.136600 2.684400
0.177400 2.585700
0.218100 3.160300
0.258900 4.216500
0.299700 4.667800
0.340500 5.027700
0.381200 6.619700
0.422000 9.336700
0.462800 10.976200
0.503500 11.853800
0.544300 12.786600
0.585100 11.209800
0.625900 8.730900
0.666600 7.552900
0.707400 7.280000
0.748200 6.387900
0.789000 6.175100
0.829700 6.159700
0.870500 6.196900
0.911300 7.075000
0.952100 8.324700
0.992800 8.580300
1.033600 8.133100
1.074400 8.641000
1.115200 9.159800
1.155900 8.481100
1.196700 7.434700
1.237500 6.561400
1.278300 5.911500
1.319000 5.543600
1.359800 4.925400
1.400600 4.699600
1.441400 4.454700
1.482100 3.543300
1.522900 2.822400
1.563700 2.288200
1.604500 2.112000
1.645200 2.273600
1.686000 2.350100
1.726800 2.452600
1.767600 2.727600
1.808300 2.940600
1.849100 3.115200
1.889900 3.004400
1.930700 2.376100
1.971400 1.601000
2.012200 1.124700
2.053000 0.659000
2.093800 0.602100
2.134500 0.952300
2.175300 1.286200
2.216100 1.331400
2.256900 1.347700
2.297600 1.151000
2.338400 1.084200
2.379200 1.476100
2.420000 1.504100
2.460700 1.289600
2.501500 1.200100
2.542300 1.109900
2.583100 1.044800
2.623800 1.195100
2.664600 1.423200
2.705400 0.929100
2.746100 0.682400
2.786900 0.808300
2.827700 1.074400
2.868500 1.370300
2.909200 1.304500
2.950000 0.901900
2.990800 0.646400
3.031600 0.679800
3.072300 0.883400
3.113100 1.197400
3.153900 1.216200
3.194700 0.845900
3.235400 0.594800
3.276200 0.597500
3.317000 0.817400
3.357800 1.049700
3.398500 1.003300
3.439300 0.857600
3.480100 0.905300
3.520900 0.813700
3.561600 0.538500
3.602400 0.544600
3.643200 0.707700
3.684000 0.776500
3.724700 0.929600
3.765500 0.911100
3.806300 1.171400
3.847100 1.462100
3.887800 1.302500
3.928600 1.321300
3.969400 1.272300
4.010200 1.108300
4.050900 1.233500
4.091700 1.245800
4.132500 0.915700
4.173300 0.895900
4.214000 1.340900
4.254800 1.473600
4.295600 1.147100
4.336400 0.821800
4.377100 0.715000
4.417900 1.199600
4.458700 1.592200
4.499500 1.328900
4.540200 0.988400
4.581000 0.637400
4.621800 0.345200
4.662600 0.442100
4.703300 0.784200
4.744100 1.273600
4.784900 1.523800
4.825700 1.158500
4.866400 0.997800
4.907200 1.409500
4.948000 1.599500
4.988800 1.233100
5.029500 0.981500
5.070300 0.685600
5.111100 0.765600
5.151800 1.056800
5.192600 1.123100
5.233400 0.946900
5.274200 0.686000
5.314900 0.627900
5.355700 0.602700
5.396500 0.607200
5.437300 0.925600
5.478000 1.302300
5.518800 1.000200
5.559600 0.515700
5.600400 0.441100
5.641100 0.470600
5.681900 0.498000
5.722700 0.630100
5.763500 0.689100
5.804200 0.870100
5.845000 1.236400
5.885800 1.605500
5.926600 1.836000
5.967300 1.630500
6.008100 1.386500
6.048900 1.467000
6.089700 1.550000
6.130400 1.820800
6.171200 2.686000
6.212000 2.972400
6.252800 2.662300
6.293500 2.793900
6.334300 2.554600
6.375100 1.866400
6.415900 1.562000
6.456600 1.602900
6.497400 1.912000
6.538200 2.274300
6.579000 2.296000
6.619700 2.187500
6.660500 1.821900
6.701300 1.494800
6.742100 1.824500
6.782800 2.485800
6.823600 2.957600
6.864400 2.918700
6.905200 2.459800
6.945900 2.068500
6.986700 1.298000
7.027500 0.922400
7.068300 1.595300
7.109000 3.063500
7.149800 4.342500
7.190600 4.718600
7.231400 4.105900
7.272100 3.673400
7.312900 3.594000
7.353700 3.369900
7.394400 3.442400
7.435200 3.503100
7.476000 3.328400
7.516800 2.824300
7.557500 2.842500
7.598300 2.843800
7.639100 3.009400
7.679900 3.358200
7.720600 3.124500
7.761400 3.286100
7.802200 3.894600
7.843000 3.958000
7.883700 3.489000
7.924500 2.782700
7.965300 2.715900
8.006100 2.660000
8.046800 2.006700
8.087600 1.944600
8.128400 2.345200
8.169200 2.182800
8.209900 1.695300
8.250700 1.485100
8.291500 1.568800
8.332300 1.440800
8.373000 1.087600
8.413800 1.164400
8.454600 1.441900
8.495400 1.720800
8.536100 1.673700
8.576900 1.260900
8.617700 1.526100
8.658500 2.292900
8.699200 2.186900
8.740000 1.916900
8.780800 2.240500
8.821600 2.194200
8.862300 2.088900
8.903100 2.119100
8.943900 2.114300
8.984700 2.586000
9.025400 2.978800
9.066200 2.425400
9.107000 1.723400
9.147800 1.621100
9.188500 1.933300
9.229300 2.092000
9.270100 1.724000
9.310900 1.070300
9.351600 0.765200
9.392400 0.704000
9.433200 0.597100
9.474000 0.839500
9.514700 0.946000
9.555500 0.578300
9.596300 0.293100
9.637000 0.130300
9.677800 0.104600
9.718600 0.328100
9.759400 0.654400
9.800100 0.785800
9.840900 0.759100
9.881700 0.742600
9.922500 0.847800
9.963200 1.145000
10.004000 1.411400
10.044800 1.976100
10.085600 2.279500
10.126300 1.600500
10.167100 1.255000
10.207900 2.131900
10.248700 2.676300
10.289400 2.082700
10.330200 1.801000
10.371000 1.938700
10.411800 1.950800
10.452500 1.779700
10.493300 1.571400
10.534100 1.358900
10.574900 1.268200
10.615600 1.181800
10.656400 1.169500
10.697200 1.192600
10.738000 1.048700
10.778700 1.026000
10.819500 1.195400
10.860300 1.063100
10.901100 0.987500
10.941800 1.227200
10.982600 1.475000
11.023400 1.523500
11.064200 1.326500
11.104900 1.572900
11.145700 1.903400
11.186500 1.605300
11.227300 1.108700
11.268000 1.156900
11.308800 1.683500
11.349600 1.793800
11.390400 1.465000
11.431100 1.322500
11.471900 1.389400
11.512700 1.876600
11.553500 2.114100
11.594200 1.753800
11.635000 1.599800
11.675800 1.396900
11.716600 1.267900
11.757300 1.425100
11.798100 1.409800
11.838900 0.836500
11.879700 0.502600
11.920400 0.853400
11.961200 1.170700
12.002000 1.080000
12.042700 1.455100
12.083500 1.979700
12.124300 1.999400
12.165100 1.864600
12.205800 1.604500
12.246600 1.242900
12.287400 1.022000
12.328200 0.811400
12.368900 0.593400
12.409700 0.680300
12.450500 0.892600
12.491300 1.087600
12.532000 1.239300
12.572800 1.187000
12.613600 1.208100
12.654400 1.506400
12.695100 1.964600
12.735900 2.046900
12.776700 1.921400
12.817500 2.082900
12.858200 2.111300
12.899000 1.976000
12.939800 2.317800
12.980600 2.705900
13.021300 2.499400
13.062100 2.592600
13.102900 2.392100
13.143700 1.886300
13.184400 1.760900
13.225200 1.582200
13.266000 1.478600
13.306800 1.698500
13.347500 1.570900
13.388300 1.405900
13.429100 1.691800
13.469900 1.711100
13.510600 1.357500
13.551400 1.357600
13.592200 1.555900
13.633000 1.543600
13.673700 1.382400
13.714500 1.307900
13.755300 1.308600
13.796100 0.948400
13.836800 0.983100
13.877600 1.506800
13.918400 1.615800
13.959200 1.615600
13.999900 1.631700
14.040700 1.429200
14.081500 1.477200
14.122300 1.815300
14.163000 1.586500
14.203800 1.516700
14.244600 2.163500
14.285300 2.567400
14.326100 2.276700
14.366900 1.658300
14.407700 1.594100
14.448400 1.896300
14.489200 1.940300
14.530000 2.022200
14.570800 1.764700
14.611500 1.348700
14.652300 1.536700
14.693100 1.480800
14.733900 0.946000
14.774600 0.803800
14.815400 1.028100
14.856200 1.129800
14.897000 1.179600
14.937700 1.548000
14.978500 1.591900
15.019300 1.280400
15.060100 1.023900
15.100800 0.955900
15.141600 1.247300
15.182400 2.107600
15.223200 2.708300
15.263900 2.560800
15.304700 2.331800
15.345500 2.148000
15.386300 2.082900
15.427000 2.132400
15.467800 2.126100
15.508600 2.541600
15.549400 2.639800
15.590100 2.371800
15.630900 2.415900
15.671700 1.965300
15.712500 1.402600
15.753200 1.469100
15.794000 1.723500
15.834800 1.472800
15.875600 1.256200
15.916300 1.405700
15.957100 1.711000
15.997900 2.093100
16.038700 2.118900
16.079400 1.602400
16.120200 1.178900
16.161000 1.290400
16.201800 1.543400
16.242500 1.599400
16.283300 1.873000
16.324100 2.517500
16.364900 2.939100
16.405600 2.529200
16.446400 2.077800
16.487200 2.073400
16.527900 2.003500
16.568700 1.813600
16.609500 1.883600
16.650300 2.168300
16.691000 2.200300
16.731800 1.997200
16.772600 1.899900
16.813400 2.020100
16.854100 2.012400
16.894900 1.813000
16.935700 1.825000
16.976500 1.870000
17.017200 2.232200
17.058000 2.614400
17.098800 2.051700
17.139600 1.777900
17.180300 2.532200
17.221100 3.007100
17.261900 2.357800
17.302700 1.822900
17.343400 2.174200
17.384200 2.684000
17.425000 2.696000
17.465800 2.021300
17.506500 1.563300
17.547300 1.823800
17.588100 1.752200
17.628900 1.558100
17.669600 1.737800
17.710400 1.932600
17.751200 2.044700
17.792000 2.487600
17.832700 2.333800
17.873500 1.914300
17.914300 1.746700
17.955100 1.601800
17.995800 1.723100
18.036600 2.013200
18.077400 2.123400
18.118200 2.082100
18.158900 1.846100
18.199700 1.724600
18.240500 1.837100
18.281300 1.723200
18.322000 1.576300
18.362800 1.705600
18.403600 1.685900
18.444400 1.860000
18.485100 2.151300
18.525900 2.228700
18.566700 2.265800
18.607500 2.293100
18.648200 2.289100
18.689000 2.485100
18.729800 2.302200
18.770600 2.387300
18.811300 2.546200
18.852100 2.083700
18.892900 1.610100
18.933600 1.519200
18.974400 1.409200
19.015200 1.493100
19.056000 1.811700
19.096700 1.986600
19.137500 2.515300
19.178300 2.552200
19.219100 1.946900
19.259800 1.975200
19.300600 2.133600
19.341400 1.923000
19.382200 1.918600
19.422900 1.794200
19.463700 1.750500
19.504500 2.028100
19.545300 2.258800
19.586000 2.474800
19.626800 2.213900
19.667600 1.597600
19.708400 1.151500
19.749100 1.174400
19.789900 1.775700
19.830700 2.114200
19.871500 1.735500
19.912200 1.409100
19.953000 1.425400
19.993800 1.655000
20.034600 1.674000
20.075300 1.625800
20.116100 2.152000
20.156900 2.387600
20.197700 1.924700
20.238400 1.520300
20.279200 1.557600
20.320000 2.015000
20.360800 1.808500
20.401500 1.352900
20.442300 1.573200
20.483100 1.987400
20.523900 2.112800
20.564600 2.142400
20.605400 2.194400
20.646200 1.834800
20.687000 1.729000
20.727700 1.986800
20.768500 1.834600
20.809300 1.588800
20.850100 1.666000
20.890800 1.772800
20.931600 1.898100
20.972400 1.797300
21.013200 1.577600
21.053900 1.582500
21.094700 1.778300
21.135500 2.044800
21.176200 2.343000
21.217000 2.180000
21.257800 1.521800
21.298600 1.254500
21.339300 1.335400
21.380100 1.459400
21.420900 1.870300
21.461700 2.201100
21.502400 1.814600
21.543200 1.703900
21.584000 2.183200
21.624800 2.434100
21.665500 2.322900
21.706300 2.312400
21.747100 2.493600
21.787900 2.320000
21.828600 1.723900
21.869400 1.572800
21.910200 2.158900
21.951000 2.536200
21.991700 2.654800
22.032500 2.499400
22.073300 1.785900
22.114100 1.597300
22.154800 1.755400
22.195600 1.522300
22.236400 1.611400
22.277200 1.537200
22.317900 1.351800
22.358700 1.629800
22.399500 1.906100
22.440300 1.994000
22.481000 2.339700
22.521800 2.500800
22.562600 2.389600
22.603400 2.159700
22.644100 1.842100
22.684900 1.452000
22.725700 1.651800
22.766500 2.071300
22.807200 1.944700
22.848000 1.827100
22.888800 2.301300
22.929600 1.866200
22.970300 1.239200
23.011100 2.002800
23.051900 2.608300
23.092700 2.275900
23.133400 2.065000
23.174200 2.189800
23.215000 2.513600
23.255800 3.083800
23.296500 3.372700
23.337300 3.015600
23.378100 2.247800
23.418800 2.021800
23.459600 2.601300
23.500400 2.829000
23.541200 2.628400
23.581900 2.370900
23.622700 1.837800
23.663500 1.534700
23.704300 1.874200
23.745000 2.230600
23.785800 2.276700
23.826600 1.893900
23.867400 1.658700
23.908100 1.629700
23.948900 1.624800
23.989700 2.131400
24.030500 2.505500
24.071200 1.743600
24.112000 1.079600
24.152800 1.540600
24.193600 2.120200
24.234300 1.902500
24.275100 1.514900
24.315900 1.766600
24.356700 2.511800
24.397400 3.215400
24.438200 3.542200
24.479000 3.194800
24.519800 2.629000
24.560500 2.390400
24.601300 2.237200
24.642100 2.210900
24.682900 2.227100
24.723600 2.410200
24.764400 2.486200
24.805200 2.505900
24.846000 3.048600
24.886700 3.388800
24.927500 2.741600
24.968300 2.315500
25.009100 2.157300
25.049800 2.001400
25.090600 2.228800
25.131400 2.123000
25.172200 2.136300
25.212900 2.361900
25.253700 2.784400
25.294500 3.446800
25.335300 3.225000
25.376000 2.308200
25.416800 1.824000
25.457600 1.678400
25.498400 1.818600
25.539100 1.978200
25.579900 2.240700
25.620700 2.564800
25.661500 2.626800
25.702200 2.577600
25.743000 2.459400
25.783800 2.273600
25.824500 2.393100
25.865300 2.436900
25.906100 2.402000
25.946900 2.319700
25.987600 2.018300
26.028400 1.595400
26.069200 1.074000
26.110000 1.115000
26.150700 1.917300
26.191500 2.771400
26.232300 3.072000
26.273100 2.464200
26.313800 1.706600
26.354600 1.607400
26.395400 1.937500
26.436200 2.482900
26.476900 3.380700
26.517700 3.359000
26.558500 2.551100
26.599300 2.482600
26.640000 2.823000
26.680800 2.776000
26.721600 2.815800
26.762400 2.956900
26.803100 2.854000
26.843900 2.569200
26.884700 2.832600
26.925500 3.297300
26.966200 3.083200
27.007000 2.880200
27.047800 2.751700
27.088600 2.220600
27.129300 1.990900
27.170100 2.339900
27.210900 2.742200
27.251700 2.537200
27.292400 2.283800
27.333200 2.179200
27.374000 2.223700
27.414800 3.080400
27.455500 3.719100
27.496300 3.019700
27.537100 2.782800
27.577900 3.003000
27.618600 2.438600
27.659400 2.164300
27.700200 2.921700
27.741000 3.487600
27.781700 2.929700
27.822500 2.638300
27.863300 2.783300
27.904100 2.581100
27.944800 1.992900
27.985600 1.601600
28.026400 2.080900
28.067100 2.931200
28.107900 3.257100
28.148700 3.144400
28.189500 3.014400
28.230200 2.767200
28.271000 2.530500
28.311800 2.353900
28.352600 2.292300
28.393300 1.983300
28.434100 1.815500
28.474900 1.685100
28.515700 1.800800
28.556400 2.036900
28.597200 2.197300
28.638000 2.015500
28.678800 2.066800
28.719500 2.479900
28.760300 3.113300
28.801100 3.095600
28.841900 2.183700
28.882600 1.710200
28.923400 2.050300
28.964200 2.280900
29.005000 2.200500
29.045700 2.343100
29.086500 2.211900
29.127300 2.035500
29.168100 2.321400
29.208800 2.616700
29.249600 2.501400
29.290400 2.317100
29.331200 2.532900
29.371900 2.727500
29.412700 2.113700
29.453500 1.786600
29.494300 1.890000
29.535000 1.835300
29.575800 1.877900
29.616600 2.337100
29.657400 2.409200
29.698100 1.900200
29.738900 1.751600
29.779700 2.218300
29.820500 2.358400
29.861200 1.930800
29.902000 1.975500
29.942800 2.105100
29.983600 1.741900
30.024300 1.565200
30.065100 1.918000
30.105900 2.089400
30.146700 2.220000
30.187400 2.546200
30.228200 2.713000
30.269000 2.708800
30.309700 2.332900
30.350500 2.098400
30.391300 2.419000
30.432100 2.818700
30.472800 3.218900
30.513600 3.125100
30.554400 2.302600
30.595200 2.180900
30.635900 2.385600
30.676700 2.472100
30.717500 2.342600
30.758300 2.293100
30.799000 2.539000
30.839800 2.937600
30.880600 2.802500
30.921400 1.937600
30.962100 1.805300
31.002900 1.949300
31.043700 1.654200
31.084500 1.523600
31.125200 1.863500
31.166000 2.218400
31.206800 1.897500
31.247600 1.586200
31.288300 1.983400
31.329100 2.794900
31.369900 3.667500
31.410700 3.432900
31.451400 2.718900
31.492200 2.658700
31.533000 2.608000
31.573800 1.753600
31.614500 1.591500
31.655300 2.260700
31.696100 2.731700
31.736900 2.583200
31.777600 2.078100
31.818400 1.885800
31.859200 1.533200
31.900000 1.566800
31.940700 1.944600
31.981500 2.220700
32.022300 2.438200
32.063100 2.565800
32.103800 2.948400
32.144600 3.429700
32.185400 3.616800
32.226200 3.486400
32.266900 2.994300
32.307700 2.827400
32.348500 2.926700
32.389300 3.029900
32.430000 2.901800
32.470800 2.568600
32.511600 2.669800
32.552400 3.108000
32.593100 2.977400
32.633900 2.572200
32.674700 2.195100
32.715400 2.197400
32.756200 2.414100
32.797000 2.533000
32.837800 2.524900
32.878500 2.298600
32.919300 2.591100
32.960100 2.979100
33.000900 2.738500
33.041600 2.693800
33.082400 2.784300
33.123200 2.732400
33.164000 2.559400
33.204700 2.345600
33.245500 2.716200
33.286300 3.185700
33.327100 2.791600
33.367800 2.551900
33.408600 3.405000
33.449400 3.904600
33.490200 3.513700
33.530900 3.638300
33.571700 3.780300
33.612500 3.997900
33.653300 3.989300
33.694000 3.067800
33.734800 2.577800
33.775600 2.802600
33.816400 2.820200
33.857100 2.405200
33.897900 2.128600
33.938700 2.429700
33.979500 2.620500
34.020200 2.560800
34.061000 2.310700
34.101800 2.398200
34.142600 2.790000
34.183300 2.850100
34.224100 2.657700
34.264900 2.509300
34.305700 2.520300
34.346400 2.566800
34.387200 2.689600
34.428000 2.621600
34.468800 2.173600
34.509500 2.160200
34.550300 2.689000
34.591100 2.892100
34.631900 2.513300
34.672600 2.349300
34.713400 2.949200
34.754200 3.323800
34.795000 3.167100
34.835700 2.600900
34.876500 2.212800
34.917300 2.364400
34.958000 2.539900
34.998800 2.765300
35.039600 2.796200
35.080400 2.982500
35.121100 3.380600
35.161900 3.175300
35.202700 2.826100
35.243500 3.143900
35.284200 3.279400
35.325000 3.016800
35.365800 2.669200
35.406600 2.678600
35.447300 3.132500
35.488100 3.326400
35.528900 3.542200
35.569700 3.847600
35.610400 4.073400
35.651200 3.732200
35.692000 3.106500
35.732800 3.362700
35.773500 3.777200
35.814300 3.544800
35.855100 3.220800
35.895900 3.163700
35.936600 3.199900
35.977400 3.372500
36.018200 3.797700
36.059000 3.605000
36.099700 3.187500
36.140500 3.196500
36.181300 3.134900
36.222100 3.393400
36.262800 3.530900
36.303600 3.124500
36.344400 2.848600
36.385200 3.517100
36.425900 4.290300
36.466700 4.017800
36.507500 3.844700
36.548300 3.981200
36.589000 3.863900
36.629800 3.460600
36.670600 3.649600
36.711400 4.500300
36.752100 5.379700
36.792900 5.489500
36.833700 4.699200
36.874500 4.421000
36.915200 5.478600
36.956000 6.498200
36.996800 6.415800
37.037600 5.774900
37.078300 5.236900
37.119100 4.599200
37.159900 4.417400
37.200600 5.845800
37.241400 6.255900
37.282200 4.411500
37.323000 3.083900
37.363700 3.145900
37.404500 3.267200
37.445300 3.088800
37.486100 3.179100
37.526800 3.644200
37.567600 3.828300
37.608400 3.695700
37.649200 3.352300
37.689900 3.066400
37.730700 3.114700
37.771500 2.812200
37.812300 2.680300
37.853000 3.226200
37.893800 3.343700
37.934600 3.132000
37.975400 3.414200
38.016100 4.025200
38.056900 3.968900
38.097700 2.895200
38.138500 2.385300
38.179200 2.589900
38.220000 2.674300
38.260800 2.500500
38.301600 2.506900
38.342300 2.643300
38.383100 2.800700
38.423900 2.837200
38.464700 2.582600
38.505400 2.630400
38.546200 2.254700
38.587000 2.197300
38.627800 2.980300
38.668500 3.622500
38.709300 3.542200
38.750100 2.925700
38.790900 2.678200
38.831600 2.968700
38.872400 2.816700
38.913200 2.697400
38.954000 3.262700
38.994700 3.329400
39.035500 2.976900
39.076300 3.038200
39.117100 3.009700
39.157800 2.499900
39.198600 2.018300
39.239400 2.211400
39.280200 2.998900
39.320900 3.127500
39.361700 3.010800
39.402500 2.802400
39.443300 2.486100
39.484000 2.388100
39.524800 2.429000
39.565600 2.400000
39.606300 2.421200
39.647100 2.600200
39.687900 2.888400
39.728700 3.115000
39.769400 2.902300
39.810200 2.816400
39.851000 3.289900
39.891800 3.747500
39.932500 3.724000
39.973300 3.501400
40.014100 3.186400
40.054900 3.193200
40.095600 3.007000
40.136400 2.478800
40.177200 2.857600
40.218000 3.224300
40.258700 2.965000
40.299500 2.669100
40.340300 2.547500
40.381100 2.526000
40.421800 2.803700
40.462600 2.829100
40.503400 3.012500
40.544200 3.706200
40.584900 3.685900
40.625700 3.079800
40.666500 3.239100
40.707300 4.105500
40.748000 3.679700
40.788800 2.619000
40.829600 2.979500
40.870400 3.568800
40.911100 2.944900
40.951900 2.625700
40.992700 3.375000
41.033500 4.401700
41.074200 4.333700
41.115000 3.222800
41.155800 3.186600
41.196600 3.720800
41.237300 3.955000
41.278100 4.163500
41.318900 3.588500
41.359700 2.594600
41.400400 2.558100
41.441200 3.294200
41.482000 3.715000
41.522800 3.237700
41.563500 2.943100
41.604300 3.179000
41.645100 2.849100
41.685900 2.508900
41.726600 2.999300
41.767400 3.503400
41.808200 3.367600
41.848900 3.524300
41.889700 3.690900
41.930500 3.335200
41.971300 3.076500
42.012000 3.392000
42.052800 3.561800
42.093600 3.388300
42.134400 3.428600
42.175100 4.346900
42.215900 5.346300
42.256700 4.607000
42.297500 3.509700
42.338200 3.168800
42.379000 3.122400
42.419800 3.098900
42.460600 3.315100
42.501300 3.765700
42.542100 3.560900
42.582900 3.176700
42.623700 3.091800
42.664400 3.386300
42.705200 4.051300
42.746000 4.062400
42.786800 3.079900
42.827500 2.692600
42.868300 3.282700
42.909100 3.479300
42.949900 3.140800
42.990600 3.154000
43.031400 3.836300
43.072200 4.098900
43.113000 3.863100
43.153700 3.758200
43.194500 3.512100
43.235300 3.406300
43.276100 4.075000
43.316800 4.730900
43.357600 4.998700
43.398400 5.150400
43.439200 5.057900
43.479900 4.411600
43.520700 3.828100
43.561500 3.957800
43.602300 4.248200
43.643000 5.192800
43.683800 6.261600
43.724600 5.991900
43.765400 5.156500
43.806100 4.653500
43.846900 4.950700
43.887700 5.455900
43.928500 5.279200
43.969200 4.799600
44.010000 4.642300
44.050800 5.218100
44.091500 5.529800
44.132300 5.423600
44.173100 6.018600
44.213900 6.597900
44.254600 6.562200
44.295400 5.871700
44.336200 4.840000
44.377000 3.846700
44.417700 3.839400
44.458500 4.292600
44.499300 4.510000
44.540100 5.357400
44.580800 5.653100
44.621600 5.166300
44.662400 5.163700
44.703200 5.962500
44.743900 5.460400
44.784700 4.266400
44.825500 4.634100
44.866300 5.766400
44.907000 5.924200
44.947800 4.871100
44.988600 4.187300
45.029400 4.745900
45.070100 5.157100
45.110900 5.066100
45.151700 5.348600
45.192500 5.114600
45.233200 4.522100
45.274000 3.935600
45.314800 4.520600
45.355600 5.681300
45.396300 7.150400
45.437100 8.462700
45.477900 7.681700
45.518700 6.614500
45.559400 6.979600
45.600200 6.830000
45.641000 5.773500
45.681800 5.070600
45.722500 4.910600
45.763300 5.309800
45.804100 5.947500
45.844900 6.229400
45.885600 5.724000
45.926400 4.527900
45.967200 3.856900
46.008000 3.760000
46.048700 4.287600
46.089500 4.351000
46.130300 3.936500
46.171100 4.512500
46.211800 5.421900
46.252600 5.768300
46.293400 4.962900
46.334200 4.189700
46.374900 4.190500
46.415700 3.551000
46.456500 3.409900
46.497200 4.555100
46.538000 4.158500
46.578800 3.119300
46.619600 3.400900
46.660300 4.090400
46.701100 4.492900
46.741900 4.541800
46.782700 4.320300
46.823400 4.895800
46.864200 5.499500
46.905000 5.238000
46.945800 4.344800
46.986500 3.660000
47.027300 3.788800
47.068100 3.853300
47.108900 3.476300
47.149600 3.298900
47.190400 3.487400
47.231200 3.234900
47.272000 3.008400
47.312700 2.847900
47.353500 2.472400
47.394300 2.180800
47.435100 2.596700
47.475800 3.117400
47.516600 3.507200
47.557400 3.567000
47.598200 3.229100
47.638900 3.836900
47.679700 4.337700
47.720500 3.800800
47.761300 3.436600
47.802000 3.453200
47.842800 4.152400
47.883600 4.619300
47.924400 4.629300
47.965100 4.345600
48.005900 3.628300
48.046700 3.335200
48.087500 3.272800
48.128200 2.814900
48.169000 2.312500
48.209800 2.540400
48.250600 3.554600
48.291300 4.073400
48.332100 3.906900
48.372900 4.088900
48.413700 4.197900
48.454400 4.019700
48.495200 3.840500
48.536000 3.879800
48.576800 4.340100
48.617500 4.002100
48.658300 3.398800
48.699100 3.169300
48.739800 3.040700
48.780600 3.379200
48.821400 3.373100
48.862200 2.822500
48.902900 3.221100
48.943700 3.451300
48.984500 3.054200
49.025300 3.325200
49.066000 4.551500
49.106800 5.269900
49.147600 4.990700
49.188400 4.439800
49.229100 4.136200
49.269900 4.215900
49.310700 4.145900
49.351500 3.993600
49.392200 3.960700
49.433000 4.371900
49.473800 4.269500
49.514600 3.573200
49.555300 3.389300
49.596100 3.925200
49.636900 3.788300
49.677700 3.391600
49.718400 3.649300
49.759200 3.885600
49.800000 3.582000
49.840800 3.209100
49.881500 3.456900
49.922300 3.670000
49.963100 3.399500
50.003900 3.140100
50.044600 2.966700
50.085400 3.524500
50.126200 3.711400
50.167000 3.375900
50.207700 3.348700
50.248500 3.245600
50.289300 2.903000
50.330100 2.498700
50.370800 2.948300
50.411600 3.479400
50.452400 3.307500
50.493200 3.266400
50.533900 3.319300
50.574700 3.234400
50.615500 3.168600
50.656300 2.833700
50.697000 2.653300
50.737800 2.947000
50.778600 3.221600
50.819400 3.275100
50.860100 3.387700
50.900900 3.487600
50.941700 3.636600
50.982400 4.042600
51.023200 4.083900
51.064000 3.566700
51.104800 2.795400
51.145500 2.505300
51.186300 2.687500
51.227100 2.947800
51.267900 2.945700
51.308600 2.859300
51.349400 3.343600
51.390200 3.840000
51.431000 3.805700
51.471700 3.668200
51.512500 3.347800
51.553300 3.228500
51.594100 3.177300
51.634800 2.793000
51.675600 2.479200
51.716400 2.543500
51.757200 2.621600
51.797900 2.611700
51.838700 2.566600
51.879500 2.476300
51.920300 2.532600
51.961000 2.723100
52.001800 3.022600
52.042600 3.177000
52.083400 2.896900
52.124100 2.636400
52.164900 2.507000
52.205700 2.336300
52.246500 2.461400
52.287200 2.792700
52.328000 3.196300
52.368800 3.400300
52.409600 3.121100
52.450300 2.753000
52.491100 2.693600
52.531900 2.567500
52.572700 2.337400
52.613400 2.301100
52.654200 2.635500
52.695000 2.777800
52.735800 2.356200
52.776500 1.878000
52.817300 1.732400
52.858100 1.640800
52.898900 1.412700
52.939600 1.276200
52.980400 1.192000
53.021200 1.097700
53.062000 1.033300
53.102700 1.065300
53.143500 1.135700
53.184300 1.134900
53.225100 0.965500
53.265800 0.714800
53.306600 0.548500
53.347400 0.450300
53.388100 0.466800
53.428900 0.489500
53.469700 0.430700
53.510500 0.364900
53.551200 0.277000
53.592000 0.195700
53.632800 0.198400
53.673600 0.288300
53.714300 0.315700
53.755100 0.184900
53.795900 0.113900
53.836700 0.120500
53.877400 0.092600
53.918200 0.072500
53.959000 0.068800
53.999800 0.048700
54.040500 0.027300
54.081300 0.007800
54.122100 0.000800
54.162900 0.000000
54.203600 0.000000
54.244400 0.000000
54.285200 0.000000
54.326000 0.000000
54.366700 0.000000
54.407500 0.000000
54.448300 0.000000
54.489100 0.000000
54.529800 0.000000
54.570600 0.000000
54.611400 0.000000
54.652200 0.000000
54.692900 0.000000
54.733700 0.000000
54.774500 0.000000
54.815300 0.000000
54.856000 0.000000
54.896800 0.000000
54.937600 0.000000
54.978400 0.000000
55.019100 0.000000
55.059900 0.000000
55.100700 0.000000
55.141500 0.000000
55.182200 0.000000
55.223000 0.000000
55.263800 0.000000
55.304600 0.000000
55.345300 0.000000
55.386100 0.000000
55.426900 0.000000
55.467700 0.000000
55.508400 0.000000
55.549200 0.000000
55.590000 0.000000
55.630700 0.000000
55.671500 0.000000
55.712300 0.000000
55.753100 0.000000
55.793800 0.000000
55.834600 0.000000
55.875400 0.000000
55.916200 0.000000
55.956900 0.000000
55.997700 0.000000
56.038500 0.000000
56.079300 0.000000
56.120000 0.000000
56.160800 0.000000
56.201600 0.000000
56.242400 0.000000
56.283100 0.000000
56.323900 0.000000
56.364700 0.000000
56.405500 0.000000
56.446200 0.000000
56.487000 0.000000
56.527800 0.000000
56.568600 0.000000
56.609300 0.000000
56.650100 0.000000
56.690900 0.000000
56.731700 0.000000
56.772400 0.000000
56.813200 0.000000
56.854000 0.000000
56.894800 0.000000
56.935500 0.000000
56.976300 0.000000
57.017100 0.000000
57.057900 0.000000
57.098600 0.000000
57.139400 0.000000
57.180200 0.000000
57.221000 0.000000
57.261700 0.000000
57.302500 0.000000
57.343300 0.000000
57.384100 0.000000
57.424800 0.000000
57.465600 0.000000
57.506400 0.000000
57.547200 0.000000
57.587900 0.000000
57.628700 0.000000
57.669500 0.000000
57.710300 0.000000
e
