set title 'mp-975461 - Density of States'
set xlabel 'Energy (eV)'
set ylabel 'DOS (states/eV)'
set grid
set xrange [-10:10]
set yrange [0:29.690]
set xzeroaxis lt -1
set terminal png size 800,600
set output 'mp-975461_dos_gnuplot.png'
plot '-' using 1:2 with lines title 'DOS'
-8.368600 0.000000
-8.351300 0.000000
-8.334000 0.000000
-8.316600 0.000000
-8.299300 0.000000
-8.281900 0.000000
-8.264600 0.000000
-8.247200 0.000000
-8.229900 0.000000
-8.212500 0.000000
-8.195200 0.000000
-8.177800 0.000000
-8.160500 0.000000
-8.143100 0.000000
-8.125800 0.000000
-8.108500 0.000000
-8.091100 0.000000
-8.073800 0.000000
-8.056400 0.000000
-8.039100 0.000000
-8.021700 0.000000
-8.004400 0.000000
-7.987000 0.000000
-7.969700 0.000000
-7.952300 0.000000
-7.935000 0.000000
-7.917700 0.000000
-7.900300 0.000000
-7.883000 0.000000
-7.865600 0.000000
-7.848300 0.000000
-7.830900 0.000000
-7.813600 0.000000
-7.796200 0.000000
-7.778900 0.000000
-7.761500 0.000000
-7.744200 0.000000
-7.726900 0.000000
-7.709500 0.000000
-7.692200 0.000000
-7.674800 0.000000
-7.657500 0.000000
-7.640100 0.000000
-7.622800 0.000000
-7.605400 0.000000
-7.588100 0.000000
-7.570700 0.000000
-7.553400 0.000000
-7.536100 0.000000
-7.518700 0.000000
-7.501400 0.000000
-7.484000 0.000000
-7.466700 0.000000
-7.449300 0.000000
-7.432000 0.000000
-7.414600 0.000000
-7.397300 0.000000
-7.379900 0.000000
-7.362600 0.000000
-7.345200 0.000000
-7.327900 0.000000
-7.310600 0.000000
-7.293200 0.000000
-7.275900 0.000000
-7.258500 0.000000
-7.241200 0.000000
-7.223800 0.000000
-7.206500 0.000000
-7.189100 0.000000
-7.171800 0.000000
-7.154400 0.000000
-7.137100 0.000000
-7.119800 0.000000
-7.102400 0.000000
-7.085100 0.000000
-7.067700 0.000000
-7.050400 0.000000
-7.033000 0.000000
-7.015700 0.000000
-6.998300 0.000000
-6.981000 0.000000
-6.963600 0.000000
-6.946300 0.000000
-6.929000 0.000000
-6.911600 0.000100
-6.894300 0.000400
-6.876900 0.001400
-6.859600 0.004600
-6.842200 0.011900
-6.824900 0.025000
-6.807500 0.044300
-6.790200 0.070500
-6.772800 0.107400
-6.755500 0.160700
-6.738200 0.229400
-6.720800 0.300200
-6.703500 0.356000
-6.686100 0.391400
-6.668800 0.417700
-6.651400 0.449200
-6.634100 0.484700
-6.616700 0.502600
-6.599400 0.480100
-6.582000 0.425000
-6.564700 0.386400
-6.547300 0.423800
-6.530000 0.557700
-6.512700 0.750200
-6.495300 0.930100
-6.478000 1.037500
-6.460600 1.054300
-6.443300 1.013300
-6.425900 0.979700
-6.408600 1.002200
-6.391200 1.062000
-6.373900 1.085400
-6.356500 1.027600
-6.339200 0.931500
-6.321900 0.884900
-6.304500 0.927500
-6.287200 1.017500
-6.269800 1.085300
-6.252500 1.114700
-6.235100 1.164300
-6.217800 1.299400
-6.200400 1.500700
-6.183100 1.662700
-6.165700 1.687300
-6.148400 1.570300
-6.131100 1.403600
-6.113700 1.309600
-6.096400 1.350000
-6.079000 1.474500
-6.061700 1.568700
-6.044300 1.567900
-6.027000 1.506700
-6.009600 1.461500
-5.992300 1.476600
-5.974900 1.553900
-5.957600 1.677700
-5.940300 1.836800
-5.922900 2.038300
-5.905600 2.300400
-5.888200 2.629800
-5.870900 3.033400
-5.853500 3.559400
-5.836200 4.287100
-5.818800 5.223400
-5.801500 6.196600
-5.784100 6.877100
-5.766800 6.963300
-5.749400 6.393300
-5.732100 5.374800
-5.714800 4.203400
-5.697400 3.074900
-5.680100 2.068900
-5.662700 1.237500
-5.645400 0.634600
-5.628000 0.271200
-5.610700 0.094800
-5.593300 0.026800
-5.576000 0.006100
-5.558600 0.001100
-5.541300 0.000200
-5.524000 0.000000
-5.506600 0.000000
-5.489300 0.000000
-5.471900 0.000000
-5.454600 0.000000
-5.437200 0.000000
-5.419900 0.000000
-5.402500 0.000000
-5.385200 0.000000
-5.367800 0.000000
-5.350500 0.000000
-5.333200 0.000000
-5.315800 0.000000
-5.298500 0.000000
-5.281100 0.000000
-5.263800 0.000000
-5.246400 0.000000
-5.229100 0.000000
-5.211700 0.000000
-5.194400 0.000000
-5.177000 0.000000
-5.159700 0.000000
-5.142400 0.000000
-5.125000 0.000000
-5.107700 0.000000
-5.090300 0.000000
-5.073000 0.000000
-5.055600 0.000000
-5.038300 0.000000
-5.020900 0.000000
-5.003600 0.000000
-4.986200 0.000000
-4.968900 0.000000
-4.951500 0.000000
-4.934200 0.000000
-4.916900 0.000000
-4.899500 0.000000
-4.882200 0.000000
-4.864800 0.000000
-4.847500 0.000000
-4.830100 0.000000
-4.812800 0.000000
-4.795400 0.000000
-4.778100 0.000000
-4.760700 0.000000
-4.743400 0.000000
-4.726100 0.000000
-4.708700 0.000000
-4.691400 0.000000
-4.674000 0.000000
-4.656700 0.000000
-4.639300 0.000000
-4.622000 0.000000
-4.604600 0.000000
-4.587300 0.000000
-4.569900 0.000000
-4.552600 0.000000
-4.535300 0.000000
-4.517900 0.000000
-4.500600 0.000000
-4.483200 0.000000
-4.465900 0.000000
-4.448500 0.000000
-4.431200 0.000000
-4.413800 0.000000
-4.396500 0.000000
-4.379100 0.000000
-4.361800 0.000000
-4.344500 0.000000
-4.327100 0.000000
-4.309800 0.000000
-4.292400 0.000000
-4.275100 0.000000
-4.257700 0.000000
-4.240400 0.000000
-4.223000 0.000000
-4.205700 0.000000
-4.188300 0.000000
-4.171000 0.000000
-4.153700 0.000000
-4.136300 0.000000
-4.119000 0.000300
-4.101600 0.001300
-4.084300 0.004900
-4.066900 0.015300
-4.049600 0.039500
-4.032200 0.087100
-4.014900 0.171000
-3.997500 0.313900
-3.980200 0.550700
-3.962800 0.911600
-3.945500 1.391600
-3.928200 1.952400
-3.910800 2.578700
-3.893500 3.310800
-3.876100 4.165200
-3.858800 5.023800
-3.841400 5.679500
-3.824100 6.035500
-3.806700 6.207700
-3.789400 6.411800
-3.772000 6.798000
-3.754700 7.375100
-3.737400 8.002500
-3.720000 8.459100
-3.702700 8.632100
-3.685300 8.675800
-3.668000 8.915000
-3.650600 9.563600
-3.633300 10.597200
-3.615900 11.908900
-3.598600 13.508800
-3.581200 15.509500
-3.563900 17.919800
-3.546600 20.477700
-3.529200 22.694400
-3.511900 24.112700
-3.494500 24.619700
-3.477200 24.541500
-3.459800 24.354800
-3.442500 24.291400
-3.425100 24.308100
-3.407800 24.399400
-3.390400 24.715700
-3.373100 25.286700
-3.355800 25.812000
-3.338400 25.884500
-3.321100 25.362500
-3.303700 24.440800
-3.286400 23.433700
-3.269000 22.589300
-3.251700 22.052600
-3.234300 21.835300
-3.217000 21.767100
-3.199600 21.575800
-3.182300 21.094400
-3.164900 20.377600
-3.147600 19.621300
-3.130300 19.033100
-3.112900 18.788400
-3.095600 19.001800
-3.078200 19.620800
-3.060900 20.354800
-3.043500 20.820300
-3.026200 20.808800
-3.008800 20.378200
-2.991500 19.713000
-2.974100 18.994200
-2.956800 18.399600
-2.939500 18.109300
-2.922100 18.254700
-2.904800 18.884500
-2.887400 19.951700
-2.870100 21.253400
-2.852700 22.382300
-2.835400 22.842000
-2.818000 22.323100
-2.800700 20.919400
-2.783300 19.085800
-2.766000 17.394700
-2.748700 16.308600
-2.731300 16.067200
-2.714000 16.625300
-2.696600 17.639100
-2.679300 18.584200
-2.661900 19.008300
-2.644600 18.799600
-2.627200 18.260200
-2.609900 17.839100
-2.592500 17.763100
-2.575200 18.026600
-2.557900 18.713300
-2.540500 20.082600
-2.523200 22.198600
-2.505800 24.602500
-2.488500 26.460100
-2.471100 26.991200
-2.453800 25.812600
-2.436400 23.099700
-2.419100 19.563100
-2.401700 16.168300
-2.384400 13.651400
-2.367000 12.160500
-2.349700 11.359500
-2.332400 10.862100
-2.315000 10.487800
-2.297700 10.139400
-2.280300 9.619100
-2.263000 8.686800
-2.245600 7.284900
-2.228300 5.654800
-2.210900 4.195700
-2.193600 3.183900
-2.176200 2.623200
-2.158900 2.347900
-2.141600 2.225400
-2.124200 2.232800
-2.106900 2.368600
-2.089500 2.557000
-2.072200 2.663900
-2.054800 2.587000
-2.037500 2.313400
-2.020100 1.913900
-2.002800 1.502700
-1.985400 1.183100
-1.968100 1.005600
-1.950800 0.972100
-1.933400 1.071800
-1.916100 1.288800
-1.898700 1.585300
-1.881400 1.924700
-1.864000 2.311800
-1.846700 2.750400
-1.829300 3.151300
-1.812000 3.359500
-1.794600 3.321600
-1.777300 3.161600
-1.760000 3.030200
-1.742600 2.924500
-1.725300 2.723100
-1.707900 2.367400
-1.690600 1.937100
-1.673200 1.564300
-1.655900 1.339000
-1.638500 1.299000
-1.621200 1.447100
-1.603800 1.730400
-1.586500 2.018700
-1.569100 2.156900
-1.551800 2.078300
-1.534500 1.861900
-1.517100 1.660500
-1.499800 1.572300
-1.482400 1.584200
-1.465100 1.626800
-1.447700 1.664700
-1.430400 1.717100
-1.413000 1.792700
-1.395700 1.832000
-1.378300 1.755000
-1.361000 1.570500
-1.343700 1.394500
-1.326300 1.338700
-1.309000 1.401500
-1.291600 1.485800
-1.274300 1.509900
-1.256900 1.485800
-1.239600 1.500400
-1.222200 1.637500
-1.204900 1.903300
-1.187500 2.193500
-1.170200 2.345500
-1.152900 2.263300
-1.135500 2.009300
-1.118200 1.758400
-1.100800 1.656500
-1.083500 1.717500
-1.066100 1.835300
-1.048800 1.872900
-1.031400 1.756300
-1.014100 1.514800
-0.996700 1.251600
-0.979400 1.066700
-0.962100 0.984200
-0.944700 0.949900
-0.927400 0.905100
-0.910000 0.856100
-0.892700 0.855800
-0.875300 0.929700
-0.858000 1.041600
-0.840600 1.132300
-0.823300 1.178800
-0.805900 1.206100
-0.788600 1.247500
-0.771200 1.316600
-0.753900 1.423600
-0.736600 1.588400
-0.719200 1.811200
-0.701900 2.038300
-0.684500 2.173600
-0.667200 2.131600
-0.649800 1.890000
-0.632500 1.501700
-0.615100 1.062300
-0.597800 0.664100
-0.580400 0.363100
-0.563100 0.174000
-0.545800 0.083600
-0.528400 0.074300
-0.511100 0.142200
-0.493700 0.294600
-0.476400 0.527300
-0.459000 0.803600
-0.441700 1.064300
-0.424300 1.260500
-0.407000 1.370300
-0.389600 1.384200
-0.372300 1.296600
-0.355000 1.131500
-0.337600 0.960100
-0.320300 0.861000
-0.302900 0.857100
-0.285600 0.899200
-0.268200 0.915800
-0.250900 0.883800
-0.233500 0.853300
-0.216200 0.891900
-0.198800 0.997000
-0.181500 1.081000
-0.164200 1.061300
-0.146800 0.952700
-0.129500 0.852500
-0.112100 0.838600
-0.094800 0.900900
-0.077400 0.974000
-0.060100 1.016100
-0.042700 1.032600
-0.025400 1.039600
-0.008000 1.054400
0.009300 1.121900
0.026700 1.288400
0.044000 1.519900
0.061300 1.695600
0.078700 1.719200
0.096000 1.604000
0.113400 1.433000
0.130700 1.277200
0.148100 1.171400
0.165400 1.133300
0.182800 1.185100
0.200100 1.352100
0.217500 1.629100
0.234800 1.939100
0.252100 2.149800
0.269500 2.158300
0.286800 1.961200
0.304200 1.638600
0.321500 1.287000
0.338900 0.982800
0.356200 0.790100
0.373600 0.759700
0.390900 0.891300
0.408300 1.105700
0.425600 1.284200
0.442900 1.355900
0.460300 1.334800
0.477600 1.271700
0.495000 1.200300
0.512300 1.141700
0.529700 1.124400
0.547000 1.161200
0.564400 1.215800
0.581700 1.230400
0.599100 1.188300
0.616400 1.124300
0.633700 1.071200
0.651100 1.031500
0.668400 1.014300
0.685800 1.059400
0.703100 1.190200
0.720500 1.357300
0.737800 1.462400
0.755200 1.449000
0.772500 1.358100
0.789900 1.292900
0.807200 1.337700
0.824500 1.512100
0.841900 1.774900
0.859200 2.056300
0.876600 2.300500
0.893900 2.493700
0.911300 2.642200
0.928600 2.736800
0.946000 2.766200
0.963300 2.756400
0.980700 2.756500
0.998000 2.781900
1.015400 2.794900
1.032700 2.745100
1.050000 2.617000
1.067400 2.431800
1.084700 2.213700
1.102100 1.986500
1.119400 1.815200
1.136800 1.795500
1.154100 1.945500
1.171500 2.143200
1.188800 2.238200
1.206200 2.215400
1.223500 2.191800
1.240800 2.259200
1.258200 2.394000
1.275500 2.515300
1.292900 2.558000
1.310200 2.469400
1.327600 2.206500
1.344900 1.781700
1.362300 1.289200
1.379600 0.860900
1.397000 0.592700
1.414300 0.501500
1.431600 0.539300
1.449000 0.644000
1.466300 0.772400
1.483700 0.897200
1.501000 1.002900
1.518400 1.105400
1.535700 1.248700
1.553100 1.445400
1.570400 1.620900
1.587800 1.648200
1.605100 1.466200
1.622400 1.154600
1.639800 0.878700
1.657100 0.775500
1.674500 0.887700
1.691800 1.159700
1.709200 1.465400
1.726500 1.674200
1.743900 1.735700
1.761200 1.695100
1.778600 1.619700
1.795900 1.544300
1.813300 1.501400
1.830600 1.547200
1.847900 1.713000
1.865300 1.946200
1.882600 2.121100
1.900000 2.115200
1.917300 1.899700
1.934700 1.569600
1.952000 1.270100
1.969400 1.085500
1.986700 1.009700
2.004100 1.007800
2.021400 1.065200
2.038700 1.169300
2.056100 1.288500
2.073400 1.401500
2.090800 1.514100
2.108100 1.608000
2.125500 1.605700
2.142800 1.438200
2.160200 1.136300
2.177500 0.812500
2.194900 0.566100
2.212200 0.436800
2.229500 0.433200
2.246900 0.562700
2.264200 0.823800
2.281600 1.192200
2.298900 1.615400
2.316300 2.008700
2.333600 2.266300
2.351000 2.314400
2.368300 2.162700
2.385700 1.894500
2.403000 1.608000
2.420300 1.373100
2.437700 1.224800
2.455000 1.171500
2.472400 1.202300
2.489700 1.298100
2.507100 1.437600
2.524400 1.592900
2.541800 1.734200
2.559100 1.850000
2.576500 1.960000
2.593800 2.094200
2.611200 2.247500
2.628500 2.351800
2.645800 2.314100
2.663200 2.105800
2.680500 1.810100
2.697900 1.572500
2.715200 1.501800
2.732600 1.599400
2.749900 1.758100
2.767300 1.838900
2.784600 1.772400
2.802000 1.600300
2.819300 1.432800
2.836600 1.377200
2.854000 1.476600
2.871300 1.679600
2.888700 1.879800
2.906000 2.008400
2.923400 2.080600
2.940700 2.151900
2.958100 2.251500
2.975400 2.357400
2.992800 2.404500
3.010100 2.314500
3.027400 2.063400
3.044800 1.742000
3.062100 1.517800
3.079500 1.506100
3.096800 1.677000
3.114200 1.889700
3.131500 2.009100
3.148900 1.995300
3.166200 1.904900
3.183600 1.822700
3.200900 1.807700
3.218200 1.885000
3.235600 2.039400
3.252900 2.196500
3.270300 2.251300
3.287600 2.157800
3.305000 1.987500
3.322300 1.885700
3.339700 1.965400
3.357000 2.226100
3.374400 2.543800
3.391700 2.743000
3.409100 2.716500
3.426400 2.496000
3.443700 2.203100
3.461100 1.940600
3.478400 1.747600
3.495800 1.634900
3.513100 1.624600
3.530500 1.744900
3.547800 2.006000
3.565200 2.374600
3.582500 2.750900
3.599900 2.985700
3.617200 2.965900
3.634500 2.704100
3.651900 2.331800
3.669200 2.002700
3.686600 1.790500
3.703900 1.657700
3.721300 1.511600
3.738600 1.296700
3.756000 1.046300
3.773300 0.865800
3.790700 0.865500
3.808000 1.081800
3.825300 1.434400
3.842700 1.768800
3.860000 1.960000
3.877400 1.981900
3.894700 1.890700
3.912100 1.768900
3.929400 1.682800
3.946800 1.651200
3.964100 1.639900
3.981500 1.603500
3.998800 1.537900
4.016100 1.483500
4.033500 1.493000
4.050800 1.613800
4.068200 1.883200
4.085500 2.292600
4.102900 2.741700
4.120200 3.064500
4.137600 3.142600
4.154900 2.989400
4.172300 2.703700
4.189600 2.358100
4.207000 1.974300
4.224300 1.589000
4.241600 1.291700
4.259000 1.175100
4.276300 1.255700
4.293700 1.447200
4.311000 1.617900
4.328400 1.694300
4.345700 1.728000
4.363100 1.850900
4.380400 2.140800
4.397800 2.529300
4.415100 2.856500
4.432400 2.997000
4.449800 2.903900
4.467100 2.580600
4.484500 2.080600
4.501800 1.526000
4.519200 1.063000
4.536500 0.782200
4.553900 0.692300
4.571200 0.761900
4.588600 0.963900
4.605900 1.271200
4.623200 1.622300
4.640600 1.920100
4.657900 2.088300
4.675300 2.129000
4.692600 2.105700
4.710000 2.067200
4.727300 2.004900
4.744700 1.903300
4.762000 1.805600
4.779400 1.780200
4.796700 1.819900
4.814000 1.825800
4.831400 1.702800
4.848700 1.445200
4.866100 1.128500
4.883400 0.848000
4.900800 0.669200
4.918100 0.616000
4.935500 0.682000
4.952800 0.842400
4.970200 1.056900
4.987500 1.277300
5.004900 1.462700
5.022200 1.583500
5.039500 1.613800
5.056900 1.549700
5.074200 1.444500
5.091600 1.400300
5.108900 1.500700
5.126300 1.745100
5.143600 2.040600
5.161000 2.254700
5.178300 2.300800
5.195700 2.202700
5.213000 2.075600
5.230300 2.018300
5.247700 2.019000
5.265000 1.988400
5.282400 1.879700
5.299700 1.747700
5.317100 1.696000
5.334400 1.785700
5.351800 1.986600
5.369100 2.194100
5.386500 2.299000
5.403800 2.261600
5.421100 2.131600
5.438500 1.988000
5.455800 1.854500
5.473200 1.698100
5.490500 1.512200
5.507900 1.363400
5.525200 1.331300
5.542600 1.429100
5.559900 1.606100
5.577300 1.808700
5.594600 2.007000
5.611900 2.166000
5.629300 2.244200
5.646600 2.237200
5.664000 2.177800
5.681300 2.078000
5.698700 1.915700
5.716000 1.685600
5.733400 1.420200
5.750700 1.166600
5.768100 0.981900
5.785400 0.929500
5.802700 1.024800
5.820100 1.183400
5.837400 1.266400
5.854800 1.193400
5.872100 0.997500
5.889500 0.780100
5.906800 0.630400
5.924200 0.578400
5.941500 0.594500
5.958900 0.625800
5.976200 0.639900
5.993600 0.649600
6.010900 0.707500
6.028200 0.871100
6.045600 1.151400
6.062900 1.486900
6.080300 1.774000
6.097600 1.927200
6.115000 1.919500
6.132300 1.774200
6.149700 1.531900
6.167000 1.240700
6.184400 0.975700
6.201700 0.835100
6.219000 0.880500
6.236400 1.071900
6.253700 1.279000
6.271100 1.383400
6.288400 1.377400
6.305800 1.350800
6.323100 1.382300
6.340500 1.467300
6.357800 1.549000
6.375200 1.582400
6.392500 1.553200
6.409800 1.463400
6.427200 1.325900
6.444500 1.174800
6.461900 1.067900
6.479200 1.055000
6.496600 1.139900
6.513900 1.293800
6.531300 1.507300
6.548600 1.794400
6.566000 2.124100
6.583300 2.384200
6.600600 2.450000
6.618000 2.286300
6.635300 1.964700
6.652700 1.598300
6.670000 1.278100
6.687400 1.056000
6.704700 0.955300
6.722100 0.976400
6.739400 1.099400
6.756800 1.284200
6.774100 1.468700
6.791500 1.590700
6.808800 1.640600
6.826100 1.674700
6.843500 1.737100
6.860800 1.788700
6.878200 1.760500
6.895500 1.665500
6.912900 1.600200
6.930200 1.629400
6.947600 1.710400
6.964900 1.737100
6.982300 1.633800
6.999600 1.407300
7.016900 1.136700
7.034300 0.924100
7.051600 0.842200
7.069000 0.921200
7.086300 1.170400
7.103700 1.581900
7.121000 2.102500
7.138400 2.630500
7.155700 3.062300
7.173100 3.335700
7.190400 3.429300
7.207700 3.337200
7.225100 3.045800
7.242400 2.554500
7.259800 1.936400
7.277100 1.357500
7.294500 0.997800
7.311800 0.942800
7.329200 1.136400
7.346500 1.421100
7.363900 1.632700
7.381200 1.688700
7.398500 1.617000
7.415900 1.513500
7.433200 1.466000
7.450600 1.495700
7.467900 1.560400
7.485300 1.615000
7.502600 1.656500
7.520000 1.713000
7.537300 1.815000
7.554700 1.988800
7.572000 2.246900
7.589400 2.551900
7.606700 2.812600
7.624000 2.949300
7.641400 2.947400
7.658700 2.827100
7.676100 2.609400
7.693400 2.355200
7.710800 2.177800
7.728100 2.147600
7.745500 2.210400
7.762800 2.253700
7.780200 2.236000
7.797500 2.217100
7.814800 2.281600
7.832200 2.452900
7.849500 2.666000
7.866900 2.807200
7.884200 2.791300
7.901600 2.624100
7.918900 2.392800
7.936300 2.197700
7.953600 2.087500
7.971000 2.043100
7.988300 2.012800
8.005600 1.981000
8.023000 2.000300
8.040300 2.125600
8.057700 2.311700
8.075000 2.423800
8.092400 2.382300
8.109700 2.273500
8.127100 2.267400
8.144400 2.420100
8.161800 2.606200
8.179100 2.676800
8.196400 2.656500
8.213800 2.728400
8.231100 3.003300
8.248500 3.344700
8.265800 3.479700
8.283200 3.283600
8.300500 2.905200
8.317900 2.612500
8.335200 2.556500
8.352600 2.680500
8.369900 2.808500
8.387300 2.803600
8.404600 2.673400
8.421900 2.551700
8.439300 2.568500
8.456600 2.716900
8.474000 2.842300
8.491300 2.774000
8.508700 2.471900
8.526000 2.061100
8.543400 1.747700
8.560700 1.686800
8.578100 1.880200
8.595400 2.176500
8.612700 2.395400
8.630100 2.467100
8.647400 2.450500
8.664800 2.431800
8.682100 2.431100
8.699500 2.415700
8.716800 2.376600
8.734200 2.351900
8.751500 2.382500
8.768900 2.478000
8.786200 2.613900
8.803500 2.734900
8.820900 2.786500
8.838200 2.775400
8.855600 2.774000
8.872900 2.843400
8.890300 2.974800
8.907600 3.106400
8.925000 3.157700
8.942300 3.051200
8.959700 2.757200
8.977000 2.335200
8.994300 1.901700
9.011700 1.547100
9.029000 1.290200
9.046400 1.106800
9.063700 0.983900
9.081100 0.944000
9.098400 1.028600
9.115800 1.259800
9.133100 1.600700
9.150500 1.948100
9.167800 2.190900
9.185200 2.293100
9.202500 2.313200
9.219800 2.339800
9.237200 2.414900
9.254500 2.502600
9.271900 2.525900
9.289200 2.447900
9.306600 2.317900
9.323900 2.217800
9.341300 2.179600
9.358600 2.187400
9.376000 2.244800
9.393300 2.384800
9.410600 2.598600
9.428000 2.788300
9.445300 2.825300
9.462700 2.655400
9.480000 2.349100
9.497400 2.066400
9.514700 1.968100
9.532100 2.114800
9.549400 2.413300
9.566800 2.680000
9.584100 2.795800
9.601400 2.803000
9.618800 2.824700
9.636100 2.898600
9.653500 2.935200
9.670800 2.845000
9.688200 2.656900
9.705500 2.482100
9.722900 2.393000
9.740200 2.368300
9.757600 2.327300
9.774900 2.187400
9.792200 1.922900
9.809600 1.613300
9.826900 1.421000
9.844300 1.478500
9.861600 1.761000
9.879000 2.073500
9.896300 2.194200
9.913700 2.060300
9.931000 1.817700
9.948400 1.692900
9.965700 1.809000
9.983100 2.106000
10.000400 2.420300
10.017700 2.635500
10.035100 2.751300
10.052400 2.819200
10.069800 2.842500
10.087100 2.770800
10.104500 2.583300
10.121800 2.336600
10.139200 2.111500
10.156500 1.947700
10.173900 1.846700
10.191200 1.801000
10.208500 1.799700
10.225900 1.831000
10.243200 1.898600
10.260600 2.026500
10.277900 2.223300
10.295300 2.438200
10.312600 2.580000
10.330000 2.603700
10.347300 2.564400
10.364700 2.571200
10.382000 2.690500
10.399300 2.900000
10.416700 3.115300
10.434000 3.237400
10.451400 3.190500
10.468700 2.955600
10.486100 2.590400
10.503400 2.211200
10.520800 1.940900
10.538100 1.847500
10.555500 1.913600
10.572800 2.062200
10.590100 2.225900
10.607500 2.397800
10.624800 2.602300
10.642200 2.809400
10.659500 2.914600
10.676900 2.837900
10.694200 2.620700
10.711600 2.388300
10.728900 2.235600
10.746300 2.169400
10.763600 2.136300
10.780900 2.078100
10.798300 1.977400
10.815600 1.870600
10.833000 1.818300
10.850300 1.857100
10.867700 1.975700
10.885000 2.133500
10.902400 2.296800
10.919700 2.449500
10.937100 2.572200
10.954400 2.630200
10.971800 2.605200
10.989100 2.528400
11.006400 2.463500
11.023800 2.461600
11.041100 2.546500
11.058500 2.718500
11.075800 2.935500
11.093200 3.096200
11.110500 3.087200
11.127900 2.874700
11.145200 2.540800
11.162600 2.226800
11.179900 2.054500
11.197200 2.076900
11.214600 2.253800
11.231900 2.464900
11.249300 2.585900
11.266600 2.569200
11.284000 2.435000
11.301300 2.198000
11.318700 1.862500
11.336000 1.487500
11.353400 1.181300
11.370700 1.005900
11.388000 0.929600
11.405400 0.886100
11.422700 0.845900
11.440100 0.822000
11.457400 0.833900
11.474800 0.888100
11.492100 0.982000
11.509500 1.112500
11.526800 1.288600
11.544200 1.544900
11.561500 1.913200
11.578800 2.351300
11.596200 2.727500
11.613500 2.923400
11.630900 2.935300
11.648200 2.835700
11.665600 2.665800
11.682900 2.416600
11.700300 2.101100
11.717600 1.791800
11.735000 1.565700
11.752300 1.435700
11.769700 1.361000
11.787000 1.315600
11.804300 1.316500
11.821700 1.392300
11.839000 1.561900
11.856400 1.840100
11.873700 2.207200
11.891100 2.555300
11.908400 2.716100
11.925800 2.586400
11.943100 2.217000
11.960500 1.769900
11.977800 1.403200
11.995100 1.196400
12.012500 1.152000
12.029800 1.235000
12.047200 1.400500
12.064500 1.617100
12.081900 1.909600
12.099200 2.348700
12.116600 2.924900
12.133900 3.439700
12.151300 3.616300
12.168600 3.353600
12.185900 2.829200
12.203300 2.339200
12.220600 2.064800
12.238000 1.989700
12.255300 1.992700
12.272700 1.976500
12.290000 1.908900
12.307400 1.788200
12.324700 1.622800
12.342100 1.442900
12.359400 1.291700
12.376700 1.195600
12.394100 1.164700
12.411400 1.217700
12.428800 1.374000
12.446100 1.612200
12.463500 1.859600
12.480800 2.037600
12.498200 2.108400
12.515500 2.079900
12.532900 1.982300
12.550200 1.847600
12.567600 1.704500
12.584900 1.580400
12.602200 1.500400
12.619600 1.490100
12.636900 1.591200
12.654300 1.863200
12.671600 2.340100
12.689000 2.963100
12.706300 3.555100
12.723700 3.897800
12.741000 3.866200
12.758400 3.490000
12.775700 2.897100
12.793000 2.239300
12.810400 1.670900
12.827700 1.336000
12.845100 1.323300
12.862400 1.617600
12.879800 2.085500
12.897100 2.511500
12.914500 2.690700
12.931800 2.544800
12.949200 2.174800
12.966500 1.790300
12.983800 1.570500
13.001200 1.566200
13.018500 1.692200
13.035900 1.789000
13.053200 1.723700
13.070600 1.490000
13.087900 1.226300
13.105300 1.110900
13.122600 1.218000
13.140000 1.465400
13.157300 1.686800
13.174600 1.751500
13.192000 1.646900
13.209300 1.487000
13.226700 1.442400
13.244000 1.614800
13.261400 1.946700
13.278700 2.264400
13.296100 2.426100
13.313400 2.422000
13.330800 2.336300
13.348100 2.251500
13.365500 2.209600
13.382800 2.224300
13.400100 2.275100
13.417500 2.304700
13.434800 2.272800
13.452200 2.219400
13.469500 2.238500
13.486900 2.384600
13.504200 2.638200
13.521600 2.949800
13.538900 3.261700
13.556300 3.474500
13.573600 3.460300
13.590900 3.171200
13.608300 2.726500
13.625600 2.345300
13.643000 2.165600
13.660300 2.136500
13.677700 2.097700
13.695000 1.949400
13.712400 1.740500
13.729700 1.617100
13.747100 1.706200
13.764400 2.029100
13.781700 2.479000
13.799100 2.870100
13.816400 3.045100
13.833800 2.972600
13.851100 2.740800
13.868500 2.457400
13.885800 2.179200
13.903200 1.928100
13.920500 1.733100
13.937900 1.633200
13.955200 1.649600
13.972500 1.761800
13.989900 1.911600
14.007200 2.038000
14.024600 2.113700
14.041900 2.144900
14.059300 2.157000
14.076600 2.192500
14.094000 2.294900
14.111300 2.464100
14.128700 2.641300
14.146000 2.756400
14.163400 2.769400
14.180700 2.654400
14.198000 2.392100
14.215400 2.029400
14.232700 1.717700
14.250100 1.628800
14.267400 1.821000
14.284800 2.213000
14.302100 2.676600
14.319500 3.113500
14.336800 3.432700
14.354200 3.518700
14.371500 3.290400
14.388800 2.805800
14.406200 2.284500
14.423500 2.008500
14.440900 2.162400
14.458200 2.713300
14.475600 3.414600
14.492900 3.941600
14.510300 4.070200
14.527600 3.799200
14.545000 3.339300
14.562300 2.970000
14.579600 2.886500
14.597000 3.147600
14.614300 3.688000
14.631700 4.323300
14.649000 4.800400
14.666400 4.936400
14.683700 4.727700
14.701100 4.308700
14.718400 3.824600
14.735800 3.365900
14.753100 2.986100
14.770400 2.731500
14.787800 2.647200
14.805100 2.761800
14.822500 3.075600
14.839800 3.564700
14.857200 4.180300
14.874500 4.846600
14.891900 5.483600
14.909200 6.029500
14.926600 6.395700
14.943900 6.417100
14.961200 5.943700
14.978600 5.031500
14.995900 3.979200
15.013300 3.126000
15.030600 2.634100
15.048000 2.459000
15.065300 2.463900
15.082700 2.529900
15.100000 2.591400
15.117400 2.625300
15.134700 2.641000
15.152100 2.670200
15.169400 2.740000
15.186700 2.845900
15.204100 2.955100
15.221400 3.030600
15.238800 3.053500
15.256100 3.041400
15.273500 3.072300
15.290800 3.277900
15.308200 3.759900
15.325500 4.464900
15.342900 5.156700
15.360200 5.561500
15.377500 5.563000
15.394900 5.253600
15.412200 4.832700
15.429600 4.477100
15.446900 4.246500
15.464300 4.044600
15.481600 3.709700
15.499000 3.195700
15.516300 2.641500
15.533700 2.243900
15.551000 2.104600
15.568300 2.201800
15.585700 2.431100
15.603000 2.646300
15.620400 2.736700
15.637700 2.716300
15.655100 2.700600
15.672400 2.765200
15.689800 2.859800
15.707100 2.872400
15.724500 2.752300
15.741800 2.565500
15.759100 2.451900
15.776500 2.527100
15.793800 2.812200
15.811200 3.241900
15.828500 3.723100
15.845900 4.186000
15.863200 4.609300
15.880600 4.998900
15.897900 5.305100
15.915300 5.367100
15.932600 5.010800
15.950000 4.250100
15.967300 3.357500
15.984600 2.689700
16.002000 2.445000
16.019300 2.595900
16.036700 2.982800
16.054000 3.397600
16.071400 3.630700
16.088700 3.565000
16.106100 3.256700
16.123400 2.872600
16.140800 2.544300
16.158100 2.314300
16.175400 2.209500
16.192800 2.296100
16.210100 2.604000
16.227500 3.015200
16.244800 3.304400
16.262200 3.331500
16.279500 3.152400
16.296900 2.918500
16.314200 2.724900
16.331600 2.599900
16.348900 2.584900
16.366200 2.734600
16.383600 3.025100
16.400900 3.308900
16.418300 3.407800
16.435600 3.259900
16.453000 2.958500
16.470300 2.642500
16.487700 2.378500
16.505000 2.170500
16.522400 2.046700
16.539700 2.070100
16.557000 2.243500
16.574400 2.448700
16.591700 2.525200
16.609100 2.414700
16.626400 2.214400
16.643800 2.100100
16.661100 2.197600
16.678500 2.506700
16.695800 2.930400
16.713200 3.371000
16.730500 3.795400
16.747900 4.212500
16.765200 4.611500
16.782500 4.925300
16.799900 5.064100
16.817200 5.011900
16.834600 4.873900
16.851900 4.785200
16.869300 4.781100
16.886600 4.792600
16.904000 4.721900
16.921300 4.479600
16.938700 4.026500
16.956000 3.453700
16.973300 2.966000
16.990700 2.708700
17.008000 2.624700
17.025400 2.529200
17.042700 2.331100
17.060100 2.156300
17.077400 2.223000
17.094800 2.602000
17.112100 3.129700
17.129500 3.559700
17.146800 3.767400
17.164100 3.797500
17.181500 3.751600
17.198800 3.669600
17.216200 3.525000
17.233500 3.312100
17.250900 3.111300
17.268200 3.051700
17.285600 3.222700
17.302900 3.612100
17.320300 4.106100
17.337600 4.561800
17.354900 4.902400
17.372300 5.125500
17.389600 5.219300
17.407000 5.127600
17.424300 4.827200
17.441700 4.396900
17.459000 3.965400
17.476400 3.609200
17.493700 3.339700
17.511100 3.171200
17.528400 3.139400
17.545800 3.231100
17.563100 3.351800
17.580400 3.418500
17.597800 3.466400
17.615100 3.605400
17.632500 3.849900
17.649800 4.041500
17.667200 3.984300
17.684500 3.645400
17.701900 3.201200
17.719200 2.903700
17.736600 2.907600
17.753900 3.176600
17.771200 3.517100
17.788600 3.730200
17.805900 3.766000
17.823300 3.738400
17.840600 3.791400
17.858000 3.955800
17.875300 4.124400
17.892700 4.145600
17.910000 3.948000
17.927400 3.596300
17.944700 3.244100
17.962000 3.038300
17.979400 3.048300
17.996700 3.236900
18.014100 3.475600
18.031400 3.624600
18.048800 3.621300
18.066100 3.480100
18.083500 3.222800
18.100800 2.862800
18.118200 2.468400
18.135500 2.184300
18.152800 2.146000
18.170200 2.379700
18.187500 2.787400
18.204900 3.206100
18.222200 3.492900
18.239600 3.595600
18.256900 3.555800
18.274300 3.433600
18.291600 3.245200
18.309000 2.991600
18.326300 2.723500
18.343700 2.546300
18.361000 2.558100
18.378300 2.787400
18.395700 3.159200
18.413000 3.497900
18.430400 3.601600
18.447700 3.376400
18.465100 2.921800
18.482400 2.470800
18.499800 2.239400
18.517100 2.316700
18.534500 2.654100
18.551800 3.132500
18.569100 3.636500
18.586500 4.063000
18.603800 4.286900
18.621200 4.193600
18.638500 3.792900
18.655900 3.262300
18.673200 2.823800
18.690600 2.582300
18.707900 2.509700
18.725300 2.560300
18.742600 2.740800
18.759900 3.050200
18.777300 3.393900
18.794600 3.608200
18.812000 3.590900
18.829300 3.376400
18.846700 3.064000
18.864000 2.730000
18.881400 2.458900
18.898700 2.400400
18.916100 2.693800
18.933400 3.305000
18.950700 3.976000
18.968100 4.378200
18.985400 4.342100
19.002800 3.957500
19.020100 3.474600
19.037500 3.113800
19.054800 2.953100
19.072200 2.957700
19.089500 3.068800
19.106900 3.233400
19.124200 3.374200
19.141600 3.396000
19.158900 3.257600
19.176200 3.018100
19.193600 2.785700
19.210900 2.628400
19.228300 2.557000
19.245600 2.585800
19.263000 2.756700
19.280300 3.060500
19.297700 3.358700
19.315000 3.455900
19.332400 3.294600
19.349700 3.042000
19.367000 2.938700
19.384400 3.072400
19.401700 3.314500
19.419100 3.456100
19.436400 3.381900
19.453800 3.134900
19.471100 2.857000
19.488500 2.685100
19.505800 2.677700
19.523200 2.796900
19.540500 2.951500
19.557800 3.070800
19.575200 3.139700
19.592500 3.168600
19.609900 3.156800
19.627200 3.097900
19.644600 3.006200
19.661900 2.910700
19.679300 2.818500
19.696600 2.701400
19.714000 2.547400
19.731300 2.413900
19.748600 2.387300
19.766000 2.482100
19.783300 2.628200
19.800700 2.766300
19.818000 2.903500
19.835400 3.058100
19.852700 3.195600
19.870100 3.250400
19.887400 3.209500
19.904800 3.154700
19.922100 3.184700
19.939400 3.282800
19.956800 3.301500
19.974100 3.107600
19.991500 2.722000
20.008800 2.302000
20.026200 2.015200
20.043500 1.948900
20.060900 2.109300
20.078200 2.447900
20.095600 2.862600
20.112900 3.214600
20.130300 3.404700
20.147600 3.456300
20.164900 3.500500
20.182300 3.648900
20.199600 3.878100
20.217000 4.051300
20.234300 4.046600
20.251700 3.865400
20.269000 3.636200
20.286400 3.516200
20.303700 3.560800
20.321100 3.686500
20.338400 3.758800
20.355700 3.694700
20.373100 3.489500
20.390400 3.201400
20.407800 2.936800
20.425100 2.811500
20.442500 2.866800
20.459800 3.012200
20.477200 3.083600
20.494500 2.997800
20.511900 2.856800
20.529200 2.883600
20.546500 3.234800
20.563900 3.860000
20.581200 4.528500
20.598600 4.987000
20.615900 5.109600
20.633300 4.945600
20.650600 4.667900
20.668000 4.448600
20.685300 4.341100
20.702700 4.288500
20.720000 4.245000
20.737300 4.220000
20.754700 4.189400
20.772000 4.058900
20.789400 3.774700
20.806700 3.420500
20.824100 3.149700
20.841400 3.034100
20.858800 3.014600
20.876100 3.001400
20.893500 2.982600
20.910800 3.012200
20.928200 3.125500
20.945500 3.311200
20.962800 3.537200
20.980200 3.745800
20.997500 3.846200
21.014900 3.775200
21.032200 3.564600
21.049600 3.310200
21.066900 3.092400
21.084300 2.952700
21.101600 2.906800
21.119000 2.937200
21.136300 2.997600
21.153600 3.064600
21.171000 3.179900
21.188300 3.413700
21.205700 3.771400
21.223000 4.156700
21.240400 4.460900
21.257700 4.681500
21.275100 4.908500
21.292400 5.187200
21.309800 5.430400
21.327100 5.482000
21.344400 5.241700
21.361800 4.730900
21.379100 4.067400
21.396500 3.397600
21.413800 2.846500
21.431200 2.503800
21.448500 2.416000
21.465900 2.567200
21.483200 2.869700
21.500600 3.180800
21.517900 3.366200
21.535200 3.390000
21.552600 3.337200
21.569900 3.325400
21.587300 3.411000
21.604600 3.580500
21.622000 3.781700
21.639300 3.948300
21.656700 4.051400
21.674000 4.152600
21.691400 4.359000
21.708700 4.680600
21.726100 4.938900
21.743400 4.857600
21.760700 4.291400
21.778100 3.388700
21.795400 2.512000
21.812800 1.991400
21.830100 1.958100
21.847500 2.364400
21.864800 3.060400
21.882200 3.824100
21.899500 4.404700
21.916900 4.630100
21.934200 4.492000
21.951500 4.117900
21.968900 3.665800
21.986200 3.255800
22.003600 2.981100
22.020900 2.932600
22.038300 3.172000
22.055600 3.662200
22.073000 4.222600
22.090300 4.592000
22.107700 4.611100
22.125000 4.354100
22.142300 4.032500
22.159700 3.779000
22.177000 3.579900
22.194400 3.391400
22.211700 3.240900
22.229100 3.203700
22.246400 3.313600
22.263800 3.501400
22.281100 3.634800
22.298500 3.649500
22.315800 3.624900
22.333100 3.674400
22.350500 3.773700
22.367800 3.757700
22.385200 3.498000
22.402500 3.049600
22.419900 2.624900
22.437200 2.444600
22.454600 2.607900
22.471900 3.071800
22.489300 3.721000
22.506600 4.438500
22.524000 5.095900
22.541300 5.500400
22.558600 5.452200
22.576000 4.932500
22.593300 4.185400
22.610700 3.551700
22.628000 3.237000
22.645400 3.239600
22.662700 3.430700
22.680100 3.665000
22.697400 3.848100
22.714800 3.949500
22.732100 3.988700
22.749400 4.009800
22.766800 4.046800
22.784100 4.110100
22.801500 4.212200
22.818800 4.380200
22.836200 4.627200
22.853500 4.940400
22.870900 5.306400
22.888200 5.716800
22.905600 6.127500
22.922900 6.421300
22.940200 6.435300
22.957600 6.071800
22.974900 5.397100
22.992300 4.599700
23.009600 3.854800
23.027000 3.268800
23.044300 2.907700
23.061700 2.788600
23.079000 2.844400
23.096400 2.970700
23.113700 3.139900
23.131000 3.445400
23.148400 3.989400
23.165700 4.702700
23.183100 5.311100
23.200400 5.528800
23.217800 5.291800
23.235100 4.792000
23.252500 4.311800
23.269800 4.036600
23.287200 3.968300
23.304500 3.968800
23.321900 3.900500
23.339200 3.746200
23.356500 3.591600
23.373900 3.515500
23.391200 3.520000
23.408600 3.547000
23.425900 3.539600
23.443300 3.499700
23.460600 3.499200
23.478000 3.612400
23.495300 3.802900
23.512700 3.891600
23.530000 3.697200
23.547300 3.223700
23.564700 2.668600
23.582000 2.247300
23.599400 2.054600
23.616700 2.080800
23.634100 2.281800
23.651400 2.597600
23.668800 2.945300
23.686100 3.243600
23.703500 3.445400
23.720800 3.526100
23.738100 3.466500
23.755500 3.286700
23.772800 3.075100
23.790200 2.937200
23.807500 2.901000
23.824900 2.875900
23.842200 2.714700
23.859600 2.337900
23.876900 1.813200
23.894300 1.317200
23.911600 1.020100
23.928900 0.986100
23.946300 1.148300
23.963600 1.356800
23.981000 1.463100
23.998300 1.400900
24.015700 1.223100
24.033000 1.051000
24.050400 0.962300
24.067700 0.933300
24.085100 0.893500
24.102400 0.804600
24.119800 0.671700
24.137100 0.516900
24.154400 0.371300
24.171800 0.276800
24.189100 0.262000
24.206500 0.309400
24.223800 0.357900
24.241200 0.349000
24.258500 0.273200
24.275900 0.169700
24.293200 0.083500
24.310600 0.033600
24.327900 0.014900
24.345200 0.017800
24.362600 0.037500
24.379900 0.070900
24.397300 0.107800
24.414600 0.130300
24.432000 0.125400
24.449300 0.096000
24.466700 0.058600
24.484000 0.028400
24.501400 0.011000
24.518700 0.003400
24.536000 0.000800
24.553400 0.000200
24.570700 0.000000
24.588100 0.000000
24.605400 0.000000
24.622800 0.000000
24.640100 0.000300
24.657500 0.001100
24.674800 0.003700
24.692200 0.009800
24.709500 0.020200
24.726800 0.033200
24.744200 0.042900
24.761500 0.043800
24.778900 0.035400
24.796200 0.022500
24.813600 0.011300
24.830900 0.004500
24.848300 0.001400
24.865600 0.000400
24.883000 0.000100
24.900300 0.000000
24.917600 0.000000
24.935000 0.000000
24.952300 0.000000
24.969700 0.000000
24.987000 0.000000
25.004400 0.000000
25.021700 0.000000
25.039100 0.000000
25.056400 0.000000
25.073800 0.000000
25.091100 0.000000
25.108500 0.000000
25.125800 0.000000
25.143100 0.000000
25.160500 0.000000
25.177800 0.000000
25.195200 0.000000
25.212500 0.000000
25.229900 0.000000
25.247200 0.000000
25.264600 0.000000
25.281900 0.000000
25.299300 0.000000
25.316600 0.000000
25.333900 0.000000
25.351300 0.000000
25.368600 0.000000
25.386000 0.000000
25.403300 0.000000
25.420700 0.000000
25.438000 0.000000
25.455400 0.000000
25.472700 0.000000
25.490100 0.000000
25.507400 0.000000
25.524700 0.000000
25.542100 0.000000
25.559400 0.000000
25.576800 0.000000
25.594100 0.000000
25.611500 0.000000
25.628800 0.000000
25.646200 0.000000
25.663500 0.000000
25.680900 0.000000
25.698200 0.000000
25.715500 0.000000
25.732900 0.000000
25.750200 0.000000
25.767600 0.000000
25.784900 0.000000
25.802300 0.000000
25.819600 0.000000
25.837000 0.000000
25.854300 0.000000
25.871700 0.000000
25.889000 0.000000
25.906400 0.000000
25.923700 0.000000
25.941000 0.000000
25.958400 0.000000
25.975700 0.000000
25.993100 0.000000
26.010400 0.000000
26.027800 0.000000
26.045100 0.000000
26.062500 0.000000
26.079800 0.000000
26.097200 0.000000
26.114500 0.000000
26.131800 0.000000
26.149200 0.000000
26.166500 0.000000
26.183900 0.000000
26.201200 0.000000
26.218600 0.000000
26.235900 0.000000
26.253300 0.000000
26.270600 0.000000
26.288000 0.000000
26.305300 0.000000
26.322600 0.000000
e
