set title 'mp-1069815 - Density of States'
set xlabel 'Energy (eV)'
set ylabel 'DOS (states/eV)'
set grid
set xrange [-10:10]
set yrange [0:128.225]
set xzeroaxis lt -1
set terminal png size 800,600
set output 'mp-1069815_dos_gnuplot.png'
plot '-' using 1:2 with lines title 'DOS'
-8.382100 0.000000
-8.366500 0.000000
-8.350900 0.000000
-8.335400 0.000000
-8.319800 0.000000
-8.304200 0.000000
-8.288700 0.000000
-8.273100 0.000000
-8.257600 0.000000
-8.242000 0.000000
-8.226400 0.000000
-8.210900 0.000000
-8.195300 0.000000
-8.179800 0.000000
-8.164200 0.000000
-8.148600 0.000000
-8.133100 0.000000
-8.117500 0.000000
-8.101900 0.000000
-8.086400 0.000000
-8.070800 0.000000
-8.055300 0.000000
-8.039700 0.000000
-8.024100 0.000000
-8.008600 0.000000
-7.993000 0.000000
-7.977400 0.000000
-7.961900 0.000000
-7.946300 0.000000
-7.930800 0.000000
-7.915200 0.000000
-7.899600 0.000000
-7.884100 0.000000
-7.868500 0.000000
-7.853000 0.000000
-7.837400 0.000000
-7.821800 0.000000
-7.806300 0.000000
-7.790700 0.000000
-7.775100 0.000000
-7.759600 0.000000
-7.744000 0.000000
-7.728500 0.000000
-7.712900 0.000000
-7.697300 0.000000
-7.681800 0.000000
-7.666200 0.000000
-7.650700 0.000000
-7.635100 0.000000
-7.619500 0.000000
-7.604000 0.000000
-7.588400 0.000000
-7.572800 0.000000
-7.557300 0.000000
-7.541700 0.000000
-7.526200 0.000000
-7.510600 0.000000
-7.495000 0.000000
-7.479500 0.000000
-7.463900 0.000000
-7.448300 0.000000
-7.432800 0.000000
-7.417200 0.000000
-7.401700 0.000000
-7.386100 0.000000
-7.370500 0.000000
-7.355000 0.000000
-7.339400 0.000000
-7.323900 0.000000
-7.308300 0.000000
-7.292700 0.000000
-7.277200 0.000000
-7.261600 0.000000
-7.246000 0.000000
-7.230500 0.000000
-7.214900 0.000000
-7.199400 0.000000
-7.183800 0.000000
-7.168200 0.000000
-7.152700 0.000000
-7.137100 0.000000
-7.121500 0.000000
-7.106000 0.000000
-7.090400 0.000000
-7.074900 0.000000
-7.059300 0.000000
-7.043700 0.000000
-7.028200 0.000000
-7.012600 0.000000
-6.997100 0.000000
-6.981500 0.000000
-6.965900 0.249500
-6.950400 6.534500
-6.934800 11.048900
-6.919200 16.703800
-6.903700 29.043600
-6.888100 37.804600
-6.872600 33.399300
-6.857000 49.844600
-6.841400 59.068000
-6.825900 59.370700
-6.810300 62.677800
-6.794700 80.549000
-6.779200 62.841100
-6.763600 67.146300
-6.748100 83.304000
-6.732500 113.868700
-6.716900 64.426500
-6.701400 74.493300
-6.685800 62.678000
-6.670300 87.896700
-6.654700 116.568300
-6.639100 57.408000
-6.623600 80.671100
-6.608000 54.804200
-6.592400 52.109800
-6.576900 64.460100
-6.561300 77.359700
-6.545800 60.784500
-6.530200 68.053000
-6.514600 32.162500
-6.499100 16.078700
-6.483500 11.832700
-6.468000 17.279700
-6.452400 28.298900
-6.436800 18.371800
-6.421300 19.468700
-6.405700 22.103800
-6.390100 19.044000
-6.374600 18.762600
-6.359000 18.043700
-6.343500 2.703600
-6.327900 0.000000
-6.312300 0.000000
-6.296800 0.000000
-6.281200 0.000000
-6.265600 0.000000
-6.250100 0.000000
-6.234500 0.000000
-6.219000 0.000000
-6.203400 0.000000
-6.187800 0.000000
-6.172300 0.000000
-6.156700 0.000000
-6.141200 0.000000
-6.125600 0.000000
-6.110000 0.000000
-6.094500 0.000000
-6.078900 0.000000
-6.063300 0.000000
-6.047800 0.000000
-6.032200 0.000000
-6.016700 0.000000
-6.001100 0.000000
-5.985500 0.000000
-5.970000 0.000000
-5.954400 0.000000
-5.938800 0.000000
-5.923300 0.000000
-5.907700 0.000000
-5.892200 0.000000
-5.876600 0.000000
-5.861000 0.000000
-5.845500 0.000000
-5.829900 0.000000
-5.814400 0.000000
-5.798800 0.000000
-5.783200 0.000000
-5.767700 0.000000
-5.752100 0.000000
-5.736500 0.000000
-5.721000 0.000000
-5.705400 0.000000
-5.689900 0.000000
-5.674300 0.000000
-5.658700 0.000000
-5.643200 0.000000
-5.627600 0.000000
-5.612100 0.000000
-5.596500 0.000000
-5.580900 0.000000
-5.565400 0.000000
-5.549800 0.000000
-5.534200 0.000000
-5.518700 0.000000
-5.503100 0.000000
-5.487600 0.000000
-5.472000 0.000000
-5.456400 0.000000
-5.440900 0.000000
-5.425300 0.000000
-5.409700 0.000000
-5.394200 0.000000
-5.378600 0.000000
-5.363100 0.000000
-5.347500 0.000000
-5.331900 0.000000
-5.316400 0.000000
-5.300800 0.000000
-5.285300 0.000000
-5.269700 0.000000
-5.254100 0.000000
-5.238600 0.000000
-5.223000 0.000000
-5.207400 0.000000
-5.191900 0.000000
-5.176300 0.000000
-5.160800 0.000000
-5.145200 0.000000
-5.129600 0.000000
-5.114100 0.000000
-5.098500 0.000000
-5.082900 0.000000
-5.067400 0.000000
-5.051800 0.000000
-5.036300 0.000000
-5.020700 0.000000
-5.005100 0.000000
-4.989600 0.000000
-4.974000 0.000000
-4.958500 0.000000
-4.942900 0.000000
-4.927300 0.000000
-4.911800 0.000000
-4.896200 0.000000
-4.880600 0.000000
-4.865100 0.000000
-4.849500 0.000000
-4.834000 0.000000
-4.818400 0.000000
-4.802800 0.000000
-4.787300 0.000000
-4.771700 0.000000
-4.756200 0.000000
-4.740600 0.000000
-4.725000 0.000000
-4.709500 0.000000
-4.693900 0.000000
-4.678300 0.000000
-4.662800 0.000000
-4.647200 0.000000
-4.631700 0.000000
-4.616100 0.000000
-4.600500 0.000000
-4.585000 0.000000
-4.569400 0.000000
-4.553800 0.000000
-4.538300 0.000000
-4.522700 0.000000
-4.507200 0.000000
-4.491600 0.000000
-4.476000 0.000000
-4.460500 0.000000
-4.444900 0.000000
-4.429400 0.000000
-4.413800 0.000000
-4.398200 0.000000
-4.382700 0.000000
-4.367100 0.000000
-4.351500 0.000000
-4.336000 0.000000
-4.320400 0.000000
-4.304900 0.000000
-4.289300 0.000000
-4.273700 0.000000
-4.258200 0.000000
-4.242600 0.000000
-4.227000 0.000000
-4.211500 0.000000
-4.195900 0.000000
-4.180400 0.000000
-4.164800 0.000000
-4.149200 0.000000
-4.133700 0.000000
-4.118100 0.000000
-4.102600 0.000000
-4.087000 0.000000
-4.071400 0.000000
-4.055900 0.000000
-4.040300 0.000000
-4.024700 0.000000
-4.009200 0.000000
-3.993600 0.000000
-3.978100 0.000000
-3.962500 0.000000
-3.946900 0.000000
-3.931400 0.000000
-3.915800 0.000000
-3.900200 0.000000
-3.884700 0.000000
-3.869100 0.000000
-3.853600 0.000000
-3.838000 0.000000
-3.822400 0.000000
-3.806900 0.000000
-3.791300 0.000000
-3.775800 0.000000
-3.760200 0.000000
-3.744600 0.000000
-3.729100 0.000000
-3.713500 0.000000
-3.697900 0.000000
-3.682400 0.000000
-3.666800 0.000000
-3.651300 0.000000
-3.635700 0.000000
-3.620100 0.000000
-3.604600 0.000000
-3.589000 0.000000
-3.573500 0.000000
-3.557900 0.000000
-3.542300 0.000000
-3.526800 0.000000
-3.511200 0.000000
-3.495600 0.000000
-3.480100 0.000000
-3.464500 0.000000
-3.449000 0.000000
-3.433400 0.000000
-3.417800 0.000000
-3.402300 0.000000
-3.386700 0.000000
-3.371100 0.000000
-3.355600 0.000000
-3.340000 0.000000
-3.324500 0.000000
-3.308900 0.000000
-3.293300 0.000000
-3.277800 0.000000
-3.262200 0.000000
-3.246700 0.000000
-3.231100 0.000000
-3.215500 0.000000
-3.200000 0.000000
-3.184400 0.000000
-3.168800 0.000000
-3.153300 0.000000
-3.137700 0.000000
-3.122200 0.000000
-3.106600 0.000000
-3.091000 0.000000
-3.075500 0.000000
-3.059900 0.000000
-3.044300 0.000000
-3.028800 0.000000
-3.013200 0.000000
-2.997700 0.000000
-2.982100 0.000000
-2.966500 0.000000
-2.951000 0.000000
-2.935400 0.000000
-2.919900 0.000000
-2.904300 0.000000
-2.888700 0.000000
-2.873200 0.000000
-2.857600 0.000000
-2.842000 0.000000
-2.826500 0.000000
-2.810900 0.000000
-2.795400 0.000000
-2.779800 0.000000
-2.764200 0.000000
-2.748700 0.000000
-2.733100 0.000000
-2.717600 0.000000
-2.702000 0.000000
-2.686400 0.000000
-2.670900 0.000000
-2.655300 0.000000
-2.639700 0.000000
-2.624200 0.000000
-2.608600 0.000000
-2.593100 0.000000
-2.577500 0.000000
-2.561900 0.000000
-2.546400 0.000000
-2.530800 0.000000
-2.515200 0.000000
-2.499700 0.000000
-2.484100 0.000000
-2.468600 0.000000
-2.453000 0.000000
-2.437400 0.000000
-2.421900 0.000000
-2.406300 0.000000
-2.390800 0.000000
-2.375200 0.000000
-2.359600 0.000000
-2.344100 0.000000
-2.328500 0.000000
-2.312900 0.000000
-2.297400 0.000000
-2.281800 0.000000
-2.266300 0.000000
-2.250700 0.000000
-2.235100 0.000000
-2.219600 0.000000
-2.204000 0.000000
-2.188400 0.000000
-2.172900 0.000000
-2.157300 0.000000
-2.141800 0.000000
-2.126200 0.000000
-2.110600 0.009800
-2.095100 0.040600
-2.079500 0.091800
-2.064000 0.136600
-2.048400 0.151100
-2.032800 0.153400
-2.017300 0.164100
-2.001700 0.182100
-1.986100 0.200600
-1.970600 0.219800
-1.955000 0.239300
-1.939500 0.254400
-1.923900 0.263700
-1.908300 0.267400
-1.892800 0.272000
-1.877200 0.279800
-1.861700 0.289500
-1.846100 0.300000
-1.830500 0.310400
-1.815000 0.320900
-1.799400 0.331300
-1.783800 0.341700
-1.768300 0.352600
-1.752700 0.363900
-1.737200 0.374300
-1.721600 0.380700
-1.706000 0.385500
-1.690500 0.391200
-1.674900 0.398500
-1.659300 0.405600
-1.643800 0.412500
-1.628200 0.419200
-1.612700 0.426000
-1.597100 0.433000
-1.581500 0.440300
-1.566000 0.447800
-1.550400 0.455800
-1.534900 0.464100
-1.519300 0.472500
-1.503700 0.481000
-1.488200 0.489600
-1.472600 0.498500
-1.457000 0.507300
-1.441500 0.515400
-1.425900 0.522300
-1.410400 0.528500
-1.394800 0.535100
-1.379200 0.542200
-1.363700 0.549800
-1.348100 0.557400
-1.332500 0.565100
-1.317000 0.572700
-1.301400 0.580400
-1.285900 0.588000
-1.270300 0.595700
-1.254700 0.603600
-1.239200 0.622700
-1.223600 0.653500
-1.208100 0.681300
-1.192500 0.705900
-1.176900 0.668000
-1.161400 0.672400
-1.145800 0.676600
-1.130200 0.680500
-1.114700 0.684300
-1.099100 0.687800
-1.083600 0.690000
-1.068000 0.690100
-1.052400 0.686800
-1.036900 0.684400
-1.021300 0.682300
-1.005700 0.682500
-0.990200 0.683900
-0.974600 0.685400
-0.959100 0.686900
-0.943500 0.688500
-0.927900 0.690000
-0.912400 0.691600
-0.896800 0.693200
-0.881300 0.694800
-0.865700 0.696300
-0.850100 0.697700
-0.834600 0.694100
-0.819000 0.695100
-0.803400 0.696100
-0.787900 0.697200
-0.772300 0.698400
-0.756800 0.699600
-0.741200 0.700900
-0.725600 0.702500
-0.710100 0.704600
-0.694500 0.706600
-0.679000 0.708600
-0.663400 0.710500
-0.647800 0.712000
-0.632300 0.713200
-0.616700 0.714200
-0.601100 0.715400
-0.585600 0.716800
-0.570000 0.718200
-0.554500 0.718900
-0.538900 0.718900
-0.523300 0.719100
-0.507800 0.719500
-0.492200 0.720800
-0.476600 0.722400
-0.461100 0.724100
-0.445500 0.726000
-0.430000 0.728000
-0.414400 0.730100
-0.398800 0.732200
-0.383300 0.734400
-0.367700 0.736600
-0.352200 0.738900
-0.336600 0.741300
-0.321000 0.743800
-0.305500 0.746400
-0.289900 0.748900
-0.274300 0.751500
-0.258800 0.754200
-0.243200 0.757200
-0.227700 0.760500
-0.212100 0.764000
-0.196500 0.767800
-0.181000 0.809300
-0.165400 0.853600
-0.149800 0.901800
-0.134300 0.861300
-0.118700 0.873900
-0.103200 0.887000
-0.087600 0.901100
-0.072000 0.916400
-0.056500 0.932900
-0.040900 0.945300
-0.025400 0.956000
-0.009800 0.966800
0.005800 0.981000
0.021300 1.004500
0.036900 1.076800
0.052500 1.130100
0.068000 1.152900
0.083600 1.143700
0.099100 1.126000
0.114700 1.108800
0.130300 1.099300
0.145800 1.091900
0.161400 1.091700
0.176900 1.090000
0.192500 1.085900
0.208100 1.079100
0.223600 1.069700
0.239200 1.061700
0.254800 1.054500
0.270300 1.049000
0.285900 1.049600
0.301400 1.061900
0.317000 1.085700
0.332600 1.113500
0.348100 1.110900
0.363700 1.087200
0.379300 1.058400
0.394800 1.048500
0.410400 1.043200
0.425900 1.038600
0.441500 1.033900
0.457100 1.028800
0.472600 1.022500
0.488200 1.015100
0.503700 1.008300
0.519300 1.003500
0.534900 1.000300
0.550400 0.997400
0.566000 0.994500
0.581600 0.991700
0.597100 0.988800
0.612700 0.986100
0.628200 0.983600
0.643800 0.981300
0.659400 0.979000
0.674900 0.975400
0.690500 0.971700
0.706100 0.968200
0.721600 0.964900
0.737200 0.962300
0.752700 1.001500
0.768300 0.990300
0.783900 0.980100
0.799400 0.950700
0.815000 0.960600
0.830500 0.974400
0.846100 0.991500
0.861700 1.014300
0.877200 1.044500
0.892800 1.106300
0.908400 1.216600
0.923900 1.389600
0.939500 1.324300
0.955000 1.331500
0.970600 1.340600
0.986200 1.336700
1.001700 1.357700
1.017300 1.378700
1.032900 1.388000
1.048400 1.424500
1.064000 1.521200
1.079500 1.608300
1.095100 1.743600
1.110700 1.916000
1.126200 1.954700
1.141800 1.988100
1.157300 2.024800
1.172900 2.024400
1.188500 1.969800
1.204000 1.941600
1.219600 1.940100
1.235200 1.944300
1.250700 1.951100
1.266300 1.954600
1.281800 1.959100
1.297400 1.973400
1.313000 1.983000
1.328500 1.981600
1.344100 1.983400
1.359600 1.986000
1.375200 2.012900
1.390800 2.000700
1.406300 1.997000
1.421900 1.986300
1.437500 1.977000
1.453000 1.970800
1.468600 1.972400
1.484100 2.021100
1.499700 2.000900
1.515300 2.221500
1.530800 2.199900
1.546400 2.214000
1.562000 2.218500
1.577500 2.221900
1.593100 2.233000
1.608600 2.273900
1.624200 2.316200
1.639800 2.282400
1.655300 2.191300
1.670900 2.094000
1.686400 2.031300
1.702000 1.971000
1.717600 1.912400
1.733100 1.830500
1.748700 1.803500
1.764300 1.792500
1.779800 1.803700
1.795400 1.813600
1.810900 1.810100
1.826500 1.820800
1.842100 1.826900
1.857600 1.878100
1.873200 1.957200
1.888800 2.069000
1.904300 2.194700
1.919900 2.336300
1.935400 2.460600
1.951000 2.597000
1.966600 2.830000
1.982100 3.223900
1.997700 3.628200
2.013200 4.357900
2.028800 4.807600
2.044400 4.827400
2.059900 5.913600
2.075500 4.314600
2.091100 4.535400
2.106600 4.202500
2.122200 3.371100
2.137700 3.080900
2.153300 2.885600
2.168900 3.025800
2.184400 2.690200
2.200000 2.532800
2.215500 2.378600
2.231100 2.206600
2.246700 2.044900
2.262200 1.900700
2.277800 1.793300
2.293400 1.707400
2.308900 1.635800
2.324500 1.569500
2.340000 1.530100
2.355600 1.500600
2.371200 1.629600
2.386700 1.889400
2.402300 1.943400
2.417900 1.977300
2.433400 1.998900
2.449000 2.005900
2.464500 2.007600
2.480100 2.005500
2.495700 1.991200
2.511200 1.980600
2.526800 1.936700
2.542300 1.874200
2.557900 1.812400
2.573500 1.762400
2.589000 1.721700
2.604600 1.683900
2.620200 1.647200
2.635700 1.608200
2.651300 1.570900
2.666800 1.540900
2.682400 1.515200
2.698000 1.524400
2.713500 1.502400
2.729100 1.481600
2.744700 1.467500
2.760200 1.457100
2.775800 1.448900
2.791300 1.442300
2.806900 1.437000
2.822500 1.433700
2.838000 1.431200
2.853600 1.427900
2.869100 1.423400
2.884700 1.417700
2.900300 1.411200
2.915800 1.405100
2.931400 1.400400
2.947000 1.398900
2.962500 1.400200
2.978100 1.403100
2.993600 1.408000
3.009200 1.418300
3.024800 1.432400
3.040300 1.453100
3.055900 1.475300
3.071400 1.493400
3.087000 1.507700
3.102600 1.521400
3.118100 1.539200
3.133700 1.561400
3.149300 1.581400
3.164800 1.599100
3.180400 1.615600
3.195900 1.698300
3.211500 1.655300
3.227100 1.643100
3.242600 1.669000
3.258200 1.734600
3.273800 1.803700
3.289300 2.391900
3.304900 2.893000
3.320400 3.191100
3.336000 3.541500
3.351600 4.018800
3.367100 4.630100
3.382700 5.698700
3.398200 5.670000
3.413800 4.901600
3.429400 4.760900
3.444900 4.731600
3.460500 4.837300
3.476100 4.967300
3.491600 5.132900
3.507200 5.345300
3.522700 5.275900
3.538300 5.293200
3.553900 5.575300
3.569400 5.675900
3.585000 5.926700
3.600600 5.519600
3.616100 5.363800
3.631700 5.182500
3.647200 4.963200
3.662800 5.205000
3.678400 4.908000
3.693900 4.645700
3.709500 4.357100
3.725000 4.086500
3.740600 3.967100
3.756200 3.871200
3.771700 3.772800
3.787300 3.696400
3.802900 3.890200
3.818400 4.765000
3.834000 5.209300
3.849500 5.724700
3.865100 6.257500
3.880700 6.099700
3.896200 6.199200
3.911800 6.221800
3.927400 6.218900
3.942900 6.327400
3.958500 6.751900
3.974000 7.234400
3.989600 7.509800
4.005200 8.554500
4.020700 9.325100
4.036300 10.292600
4.051800 10.901700
4.067400 12.194600
4.083000 16.282600
4.098500 12.799700
4.114100 10.100200
4.129700 9.025400
4.145200 8.504200
4.160800 8.043500
4.176300 7.563100
4.191900 7.265700
4.207500 6.974400
4.223000 6.734200
4.238600 8.117300
4.254100 8.318700
4.269700 5.501100
4.285300 4.632300
4.300800 5.652800
4.316400 6.151300
4.332000 6.118100
4.347500 5.658200
4.363100 5.527600
4.378600 5.881900
4.394200 5.950200
4.409800 5.969900
4.425300 6.065400
4.440900 6.220500
4.456500 6.182500
4.472000 6.276700
4.487600 6.059900
4.503100 5.928300
4.518700 5.853200
4.534300 5.857900
4.549800 6.201700
4.565400 6.475500
4.580900 5.790200
4.596500 5.449400
4.612100 5.530700
4.627600 5.618100
4.643200 5.827600
4.658800 6.155200
4.674300 6.673900
4.689900 7.609000
4.705400 7.254200
4.721000 6.683900
4.736600 6.389300
4.752100 6.211100
4.767700 6.174300
4.783300 6.362100
4.798800 7.026500
4.814400 7.929700
4.829900 8.932000
4.845500 8.843600
4.861100 8.912100
4.876600 8.519600
4.892200 8.151600
4.907700 7.718500
4.923300 7.247800
4.938900 6.788600
4.954400 6.277800
4.970000 5.985500
4.985600 5.965100
5.001100 5.755000
5.016700 5.550200
5.032200 5.350400
5.047800 4.261100
5.063400 3.987600
5.078900 3.767500
5.094500 3.578500
5.110000 3.599500
5.125600 3.797300
5.141200 4.811500
5.156700 7.124300
5.172300 7.945500
5.187900 10.224700
5.203400 11.760500
5.219000 18.017300
5.234500 17.302800
5.250100 16.946100
5.265700 14.741800
5.281200 13.135600
5.296800 10.766300
5.312400 9.798500
5.327900 9.231500
5.343500 9.741000
5.359000 9.467800
5.374600 8.850800
5.390200 8.716600
5.405700 8.559300
5.421300 9.922700
5.436800 10.751900
5.452400 10.247600
5.468000 9.296600
5.483500 8.689700
5.499100 8.399600
5.514700 8.327300
5.530200 8.161200
5.545800 8.270900
5.561300 8.452600
5.576900 8.549400
5.592500 8.657300
5.608000 8.440200
5.623600 7.776500
5.639200 7.390400
5.654700 7.486900
5.670300 7.556300
5.685800 7.542500
5.701400 7.454000
5.717000 8.009200
5.732500 6.213800
5.748100 3.896000
5.763600 3.501100
5.779200 3.426100
5.794800 3.412300
5.810300 3.495400
5.825900 3.577200
5.841500 3.709100
5.857000 3.855900
5.872600 3.390500
5.888100 2.858600
5.903700 2.426600
5.919300 2.227400
5.934800 2.074200
5.950400 1.986200
5.965900 1.908600
5.981500 1.845300
5.997100 1.798900
6.012600 1.767100
6.028200 1.756400
6.043800 1.745100
6.059300 1.750500
6.074900 1.764700
6.090400 1.797500
6.106000 1.915400
6.121600 1.994200
6.137100 2.020600
6.152700 2.010100
6.168300 2.011100
6.183800 1.933100
6.199400 1.985700
6.214900 2.033500
6.230500 2.095000
6.246100 2.184200
6.261600 2.250500
6.277200 2.280200
6.292700 2.305400
6.308300 2.324000
6.323900 2.403700
6.339400 2.515200
6.355000 2.619900
6.370600 3.031900
6.386100 3.010100
6.401700 2.996400
6.417200 2.862400
6.432800 2.820600
6.448400 2.810400
6.463900 2.813100
6.479500 2.711900
6.495100 2.700100
6.510600 2.711800
6.526200 2.772700
6.541700 2.739200
6.557300 2.676600
6.572900 2.641400
6.588400 2.621700
6.604000 2.615800
6.619500 2.608100
6.635100 2.573600
6.650700 2.547700
6.666200 2.546400
6.681800 2.553000
6.697400 2.565400
6.712900 2.574600
6.728500 2.580200
6.744000 2.589700
6.759600 2.609100
6.775200 2.639500
6.790700 2.616300
6.806300 2.614600
6.821900 2.614800
6.837400 2.615700
6.853000 2.614200
6.868500 2.604200
6.884100 2.576000
6.899700 2.550300
6.915200 2.523600
6.930800 2.494400
6.946300 2.471800
6.961900 2.451100
6.977500 2.434200
6.993000 2.430100
7.008600 2.448400
7.024200 2.450200
7.039700 2.450600
7.055300 2.446000
7.070800 2.436500
7.086400 2.423100
7.102000 2.420400
7.117500 2.459300
7.133100 2.489700
7.148600 2.492100
7.164200 2.426100
7.179800 2.352700
7.195300 2.287600
7.210900 2.217800
7.226500 2.146600
7.242000 2.051800
7.257600 1.933300
7.273100 1.901000
7.288700 1.874300
7.304300 1.848100
7.319800 1.822600
7.335400 1.797700
7.351000 1.773700
7.366500 1.751200
7.382100 1.730800
7.397600 1.712200
7.413200 1.697000
7.428800 1.685500
7.444300 1.670300
7.459900 1.649100
7.475400 1.630500
7.491000 1.615500
7.506600 1.599500
7.522100 1.580200
7.537700 1.560500
7.553300 1.540600
7.568800 1.513100
7.584400 1.486300
7.599900 1.460300
7.615500 1.434400
7.631100 1.410000
7.646600 1.386200
7.662200 1.366100
7.677800 1.349700
7.693300 1.333000
7.708900 1.316500
7.724400 1.299000
7.740000 1.283100
7.755600 1.270200
7.771100 1.258500
7.786700 1.245300
7.802200 1.232700
7.817800 1.220400
7.833400 1.207100
7.848900 1.192200
7.864500 1.177300
7.880100 1.162200
7.895600 1.149300
7.911200 1.137000
7.926700 1.125300
7.942300 1.114300
7.957900 1.104300
7.973400 1.095400
7.989000 1.086500
8.004500 1.077300
8.020100 1.180000
8.035700 1.188400
8.051200 1.195100
8.066800 1.198800
8.082400 1.204800
8.097900 1.218200
8.113500 1.232900
8.129000 1.248900
8.144600 1.259000
8.160200 1.272500
8.175700 1.290400
8.191300 1.315700
8.206900 1.337000
8.222400 1.373700
8.238000 1.410000
8.253500 1.491900
8.269100 1.727600
8.284700 1.546300
8.300200 1.514500
8.315800 1.470900
8.331300 1.399200
8.346900 1.279500
8.362500 1.143100
8.378000 1.126100
8.393600 1.123800
8.409200 1.122300
8.424700 1.132400
8.440300 1.142200
8.455800 1.150500
8.471400 1.158100
8.487000 1.163400
8.502500 1.165600
8.518100 1.164500
8.533700 1.154200
8.549200 1.142100
8.564800 1.123500
8.580300 1.105500
8.595900 1.090000
8.611500 1.075300
8.627000 1.062800
8.642600 1.052100
8.658100 1.042900
8.673700 1.036600
8.689300 1.031800
8.704800 1.027800
8.720400 1.024600
8.736000 1.022300
8.751500 1.021200
8.767100 1.021600
8.782600 1.023300
8.798200 1.025600
8.813800 1.028600
8.829300 1.031700
8.844900 1.035200
8.860400 1.039800
8.876000 1.068500
8.891600 1.219900
8.907100 1.350300
8.922700 1.449100
8.938300 1.526900
8.953800 1.600000
8.969400 1.676800
8.984900 1.797900
9.000500 1.933900
9.016100 2.082100
9.031600 2.238000
9.047200 2.404600
9.062800 2.433200
9.078300 2.321200
9.093900 2.317500
9.109400 2.319800
9.125000 2.352700
9.140600 2.395100
9.156100 2.435300
9.171700 2.466700
9.187200 2.488500
9.202800 2.507700
9.218400 2.529600
9.233900 2.527400
9.249500 2.490000
9.265100 2.462300
9.280600 2.454000
9.296200 2.458700
9.311700 2.473400
9.327300 2.457500
9.342900 2.423900
9.358400 2.422000
9.374000 2.443700
9.389600 2.397800
9.405100 2.347300
9.420700 2.326600
9.436200 2.297600
9.451800 2.299600
9.467400 2.333000
9.482900 2.396300
9.498500 2.403400
9.514000 2.364000
9.529600 2.298800
9.545200 2.230800
9.560700 2.174400
9.576300 2.111800
9.591900 2.041600
9.607400 1.955900
9.623000 1.842100
9.638500 1.748600
9.654100 1.678100
9.669700 1.632500
9.685200 1.600800
9.700800 1.573400
9.716400 1.557800
9.731900 1.578500
9.747500 1.611000
9.763000 1.647700
9.778600 1.693300
9.794200 1.744300
9.809700 1.800100
9.825300 1.861200
9.840800 1.924700
9.856400 1.989800
9.872000 2.056500
9.887500 2.123400
9.903100 2.208300
9.918700 2.298800
9.934200 2.416800
9.949800 2.557000
9.965300 2.689400
9.980900 2.748900
9.996500 2.804600
10.012000 2.874900
10.027600 2.946600
10.043100 2.984400
10.058700 3.002400
10.074300 3.039400
10.089800 3.070100
10.105400 3.105800
10.121000 3.046900
10.136500 3.032400
10.152100 3.093500
10.167600 2.975200
10.183200 2.867400
10.198800 2.656400
10.214300 2.481400
10.229900 2.328000
10.245500 2.215200
10.261000 2.145200
10.276600 2.107900
10.292100 2.075000
10.307700 2.036800
10.323300 2.007300
10.338800 1.993600
10.354400 2.002500
10.369900 1.974800
10.385500 1.904000
10.401100 1.833500
10.416600 1.835800
10.432200 1.839400
10.447800 1.851200
10.463300 1.862000
10.478900 1.844300
10.494400 1.851800
10.510000 1.916300
10.525600 2.017800
10.541100 2.098400
10.556700 2.176800
10.572300 2.253900
10.587800 2.314800
10.603400 2.363800
10.618900 2.400800
10.634500 2.441400
10.650100 2.502900
10.665600 2.544200
10.681200 2.579700
10.696700 2.616100
10.712300 2.656800
10.727900 2.695200
10.743400 2.710200
10.759000 2.713400
10.774600 2.707200
10.790100 2.696600
10.805700 2.772400
10.821200 2.795200
10.836800 2.630000
10.852400 2.539400
10.867900 2.459500
10.883500 2.445500
10.899000 2.452300
10.914600 2.466000
10.930200 2.429000
10.945700 2.443500
10.961300 2.380100
10.976900 2.365100
10.992400 2.370900
11.008000 2.356200
11.023500 2.293400
11.039100 2.246000
11.054700 2.218600
11.070200 2.172400
11.085800 2.116300
11.101400 2.071800
11.116900 2.036600
11.132500 2.005600
11.148000 2.018100
11.163600 2.087500
11.179200 2.058100
11.194700 2.034100
11.210300 2.021700
11.225800 2.016700
11.241400 2.013800
11.257000 1.996500
11.272500 1.988400
11.288100 1.979200
11.303700 1.960600
11.319200 1.921500
11.334800 1.893800
11.350300 1.877800
11.365900 1.875500
11.381500 1.880900
11.397000 1.868500
11.412600 1.855700
11.428200 1.848100
11.443700 1.844600
11.459300 1.842700
11.474800 1.845600
11.490400 1.847000
11.506000 1.852800
11.521500 1.861300
11.537100 1.870500
11.552600 1.904000
11.568200 1.915800
11.583800 1.937600
11.599300 1.967100
11.614900 2.005400
11.630500 2.077700
11.646000 2.135100
11.661600 2.179700
11.677100 2.218800
11.692700 2.250400
11.708300 2.271100
11.723800 2.300700
11.739400 2.329900
11.755000 2.346200
11.770500 2.356700
11.786100 2.374300
11.801600 2.401500
11.817200 2.410500
11.832800 2.421000
11.848300 2.431900
11.863900 2.440300
11.879400 2.440700
11.895000 2.438400
11.910600 2.425600
11.926100 2.435200
11.941700 2.451900
11.957300 2.465500
11.972800 2.480100
11.988400 2.498200
12.003900 2.514700
12.019500 2.533400
12.035100 2.555900
12.050600 2.578100
12.066200 2.590300
12.081700 2.572400
12.097300 2.537100
12.112900 2.524600
12.128400 2.533400
12.144000 2.553300
12.159600 2.574700
12.175100 2.602700
12.190700 2.634200
12.206200 2.662300
12.221800 2.676800
12.237400 2.664900
12.252900 2.626500
12.268500 2.591400
12.284100 2.564000
12.299600 2.552700
12.315200 2.537500
12.330700 2.527800
12.346300 2.519900
12.361900 2.512900
12.377400 2.505500
12.393000 2.501400
12.408500 2.490300
12.424100 2.485000
12.439700 2.484700
12.455200 2.485500
12.470800 2.495500
12.486400 2.568700
12.501900 2.714200
12.517500 2.669400
12.533000 2.683100
12.548600 2.704000
12.564200 2.724900
12.579700 2.742600
12.595300 2.710500
12.610900 2.667900
12.626400 2.645700
12.642000 2.609200
12.657500 2.525400
12.673100 2.462100
12.688700 2.398900
12.704200 2.398700
12.719800 2.459200
12.735300 2.523600
12.750900 2.575400
12.766500 2.613700
12.782000 2.573800
12.797600 2.524300
12.813200 2.471800
12.828700 2.422200
12.844300 2.384700
12.859800 2.352300
12.875400 2.368700
12.891000 2.493000
12.906500 2.656000
12.922100 2.650100
12.937600 2.613900
12.953200 2.528400
12.968800 2.483800
12.984300 2.414700
12.999900 2.383800
13.015500 2.413700
13.031000 2.495900
13.046600 2.573800
13.062100 2.557800
13.077700 2.486100
13.093300 2.457600
13.108800 2.434200
13.124400 2.430500
13.140000 2.430000
13.155500 2.476800
13.171100 2.436400
13.186600 2.335600
13.202200 2.336600
13.217800 2.367700
13.233300 2.389400
13.248900 2.405700
13.264400 2.418300
13.280000 2.425100
13.295600 2.428800
13.311100 2.415000
13.326700 2.387400
13.342300 2.396800
13.357800 2.473400
13.373400 2.502400
13.388900 2.514200
13.404500 2.539800
13.420100 2.546800
13.435600 2.531100
13.451200 2.479200
13.466800 2.449000
13.482300 2.498100
13.497900 2.488300
13.513400 2.471900
13.529000 2.456700
13.544600 2.463500
13.560100 2.456400
13.575700 2.477700
13.591200 2.505300
13.606800 2.522800
13.622400 2.538900
13.637900 2.589000
13.653500 2.560900
13.669100 2.549700
13.684600 2.533600
13.700200 2.531400
13.715700 2.532300
13.731300 2.533000
13.746900 2.530100
13.762400 2.550000
13.778000 2.581000
13.793500 2.620500
13.809100 2.552500
13.824700 2.574600
13.840200 2.564700
13.855800 2.553400
13.871400 2.570400
13.886900 2.684400
13.902500 2.679000
13.918000 2.598200
13.933600 2.615000
13.949200 2.641900
13.964700 2.665300
13.980300 2.684800
13.995900 2.699500
14.011400 2.714300
14.027000 2.729800
14.042500 2.694400
14.058100 2.675400
14.073700 2.699100
14.089200 2.720200
14.104800 2.742300
14.120300 2.746200
14.135900 2.747400
14.151500 2.806900
14.167000 2.802600
14.182600 2.768900
14.198200 2.786300
14.213700 2.840600
14.229300 2.817800
14.244800 2.722400
14.260400 2.697200
14.276000 2.680300
14.291500 2.662800
14.307100 2.634600
14.322700 2.604200
14.338200 2.574100
14.353800 2.551300
14.369300 2.535900
14.384900 2.520700
14.400500 2.497200
14.416000 2.477700
14.431600 2.462100
14.447100 2.449200
14.462700 2.439400
14.478300 2.411200
14.493800 2.381200
14.509400 2.352200
14.525000 2.327700
14.540500 2.308700
14.556100 2.304500
14.571600 2.310400
14.587200 2.320700
14.602800 2.333500
14.618300 2.338000
14.633900 2.342000
14.649500 2.347700
14.665000 2.358500
14.680600 2.386700
14.696100 2.420400
14.711700 2.445800
14.727300 2.445000
14.742800 2.473300
14.758400 2.487100
14.773900 2.519900
14.789500 2.545900
14.805100 2.576600
14.820600 2.612600
14.836200 2.668200
14.851800 2.686900
14.867300 2.711400
14.882900 2.734300
14.898400 2.771200
14.914000 2.772900
14.929600 2.904400
14.945100 2.725300
14.960700 2.686400
14.976200 2.633200
14.991800 2.601200
15.007400 2.571500
15.022900 2.543500
15.038500 2.516200
15.054100 2.491300
15.069600 2.474400
15.085200 2.474100
15.100700 2.476500
15.116300 2.481400
15.131900 2.526800
15.147400 2.487300
15.163000 2.381300
15.178600 2.359800
15.194100 2.345200
15.209700 2.342000
15.225200 2.340900
15.240800 2.330100
15.256400 2.318200
15.271900 2.313700
15.287500 2.308300
15.303000 2.302200
15.318600 2.292500
15.334200 2.281900
15.349700 2.464700
15.365300 2.328800
15.380900 2.326200
15.396400 2.338100
15.412000 2.329900
15.427500 2.318900
15.443100 2.303800
15.458700 2.287500
15.474200 2.270800
15.489800 2.255900
15.505400 2.242000
15.520900 2.230200
15.536500 2.248400
15.552000 2.247200
15.567600 2.252700
15.583200 2.263800
15.598700 2.280500
15.614300 2.319300
15.629800 2.366200
15.645400 2.446300
15.661000 2.510200
15.676500 2.516100
15.692100 2.518400
15.707700 2.494500
15.723200 2.459700
15.738800 2.419000
15.754300 2.363700
15.769900 2.323100
15.785500 2.289400
15.801000 2.271500
15.816600 2.272400
15.832100 2.268500
15.847700 2.308900
15.863300 2.294200
15.878800 2.279100
15.894400 2.237800
15.910000 2.238000
15.925500 2.237600
15.941100 2.235500
15.956600 2.231900
15.972200 2.229000
15.987800 2.224900
16.003300 2.219700
16.018900 2.214300
16.034500 2.206700
16.050000 2.192400
16.065600 2.170400
16.081100 2.158500
16.096700 2.161000
16.112300 2.170600
16.127800 2.203700
16.143400 2.241300
16.158900 2.249800
16.174500 2.288000
16.190100 2.360100
16.205600 2.379600
16.221200 2.373000
16.236800 2.367800
16.252300 2.365000
16.267900 2.364800
16.283400 2.358200
16.299000 2.345400
16.314600 2.343100
16.330100 2.340400
16.345700 2.339700
16.361300 2.343400
16.376800 2.355400
16.392400 2.371100
16.407900 2.392000
16.423500 2.423100
16.439100 2.467900
16.454600 2.478300
16.470200 2.438600
16.485700 2.371900
16.501300 2.325500
16.516900 2.289300
16.532400 2.239800
16.548000 2.224000
16.563600 2.210400
16.579100 2.219400
16.594700 2.202900
16.610200 2.194500
16.625800 2.191300
16.641400 2.193400
16.656900 2.169100
16.672500 2.185100
16.688000 2.205600
16.703600 2.229100
16.719200 2.251300
16.734700 2.280800
16.750300 2.311900
16.765900 2.341200
16.781400 2.367100
16.797000 2.380200
16.812500 2.387900
16.828100 2.372900
16.843700 2.354600
16.859200 2.336600
16.874800 2.316700
16.890400 2.294100
16.905900 2.268800
16.921500 2.241600
16.937000 2.216800
16.952600 2.174100
16.968200 2.171300
16.983700 2.176400
16.999300 2.201500
17.014800 2.234900
17.030400 2.271800
17.046000 2.290900
17.061500 2.307400
17.077100 2.316300
17.092700 2.323100
17.108200 2.330900
17.123800 2.346200
17.139300 2.361500
17.154900 2.345300
17.170500 2.288800
17.186000 2.268300
17.201600 2.248300
17.217200 2.202800
17.232700 2.172900
17.248300 2.158500
17.263800 2.151100
17.279400 2.162300
17.295000 2.192900
17.310500 2.285500
17.326100 2.365700
17.341600 2.444800
17.357200 2.529400
17.372800 2.612900
17.388300 2.693100
17.403900 2.701800
17.419500 2.729300
17.435000 2.730400
17.450600 2.723100
17.466100 2.715800
17.481700 2.702500
17.497300 2.702300
17.512800 2.729100
17.528400 2.771000
17.544000 2.802700
17.559500 2.828100
17.575100 2.834900
17.590600 2.841200
17.606200 2.851100
17.621800 2.863400
17.637300 2.845200
17.652900 2.840900
17.668400 2.842000
17.684000 2.837600
17.699600 2.831700
17.715100 2.825100
17.730700 2.808900
17.746300 2.784600
17.761800 2.780700
17.777400 2.786400
17.792900 2.802100
17.808500 2.825800
17.824100 2.801400
17.839600 2.710300
17.855200 2.553900
17.870700 2.375600
17.886300 2.226500
17.901900 2.174900
17.917400 2.220600
17.933000 2.261300
17.948600 2.223000
17.964100 2.170200
17.979700 2.142800
17.995200 2.144400
18.010800 2.164200
18.026400 2.188800
18.041900 2.219200
18.057500 2.254600
18.073100 2.296400
18.088600 2.342800
18.104200 2.389900
18.119700 2.441800
18.135300 2.509000
18.150900 2.610100
18.166400 2.819800
18.182000 2.832400
18.197500 2.859600
18.213100 2.865700
18.228700 2.873400
18.244200 2.906800
18.259800 2.947700
18.275400 2.985900
18.290900 3.021200
18.306500 3.062900
18.322000 3.117400
18.337600 3.160800
18.353200 3.195900
18.368700 3.236700
18.384300 3.270900
18.399900 3.299400
18.415400 3.318800
18.431000 3.305800
18.446500 3.235700
18.462100 3.172800
18.477700 3.121000
18.493200 3.062500
18.508800 3.018500
18.524300 2.994000
18.539900 2.970800
18.555500 2.906500
18.571000 2.895600
18.586600 2.880500
18.602200 2.857200
18.617700 2.836100
18.633300 2.825000
18.648800 2.819500
18.664400 2.819700
18.680000 2.822000
18.695500 2.825600
18.711100 2.833700
18.726600 2.850100
18.742200 2.877000
18.757800 2.955300
18.773300 3.182500
18.788900 3.034400
18.804500 2.981500
18.820000 2.921400
18.835600 2.870000
18.851100 2.862900
18.866700 2.862900
18.882300 2.871200
18.897800 2.884200
18.913400 2.920300
18.929000 2.975400
18.944500 3.006200
18.960100 3.059900
18.975600 3.147500
18.991200 3.208300
19.006800 3.342100
19.022300 3.348500
19.037900 3.353600
19.053400 3.297600
19.069000 3.210300
19.084600 3.161900
19.100100 3.116800
19.115700 3.057800
19.131300 3.061300
19.146800 2.998700
19.162400 2.870800
19.177900 2.772800
19.193500 2.698300
19.209100 2.649200
19.224600 2.626700
19.240200 2.720100
19.255800 2.787300
19.271300 2.854200
19.286900 2.937200
19.302400 3.019000
19.318000 3.088600
19.333600 3.140000
19.349100 3.129800
19.364700 3.131800
19.380200 3.120800
19.395800 3.118100
19.411400 3.123900
19.426900 3.137500
19.442500 3.157800
19.458100 3.180600
19.473600 3.214500
19.489200 3.238300
19.504700 3.264800
19.520300 3.286100
19.535900 3.292000
19.551400 3.275200
19.567000 3.241400
19.582500 3.171000
19.598100 3.104900
19.613700 3.073000
19.629200 3.024400
19.644800 2.949700
19.660400 2.864300
19.675900 2.762200
19.691500 2.650400
19.707000 2.536000
19.722600 2.436900
19.738200 2.385200
19.753700 2.391500
19.769300 2.348300
19.784900 2.218700
19.800400 2.127400
19.816000 2.051900
19.831500 1.957800
19.847100 1.874200
19.862700 1.797000
19.878200 1.727600
19.893800 1.663900
19.909300 1.605000
19.924900 1.542100
19.940500 1.500900
19.956000 1.463700
19.971600 1.414300
19.987200 1.374000
20.002700 1.390500
20.018300 1.356700
20.033800 1.333100
20.049400 1.320700
20.065000 1.407900
20.080500 1.411000
20.096100 1.338800
20.111700 1.383200
20.127200 1.397500
20.142800 1.355200
20.158300 1.316900
20.173900 1.285800
20.189500 1.334700
20.205000 1.320400
20.220600 1.354900
20.236100 1.368600
20.251700 1.343200
20.267300 1.278600
20.282800 1.180000
20.298400 1.040400
20.314000 0.940400
20.329500 0.879100
20.345100 0.712700
20.360600 0.582900
20.376200 0.500900
20.391800 0.446400
20.407300 0.399600
20.422900 0.361100
20.438500 0.332700
20.454000 0.309400
20.469600 0.289200
20.485100 0.272100
20.500700 0.257700
20.516300 0.244100
20.531800 0.231100
20.547400 0.218500
20.562900 0.206400
20.578500 0.194900
20.594100 0.183900
20.609600 0.173300
20.625200 0.163300
20.640800 0.153800
20.656300 0.144900
20.671900 0.136400
20.687400 0.128700
20.703000 0.121400
20.718600 0.114400
20.734100 0.107700
20.749700 0.101200
20.765200 0.095200
20.780800 0.089700
20.796400 0.055400
20.811900 0.052900
20.827500 0.050700
20.843100 0.049000
20.858600 0.049200
20.874200 0.047700
20.889700 0.046300
20.905300 0.044800
20.920900 0.043400
20.936400 0.042000
20.952000 0.040700
20.967600 0.039300
20.983100 0.038000
20.998700 0.036600
21.014200 0.035300
21.029800 0.034000
21.045400 0.032700
21.060900 0.031500
21.076500 0.030200
21.092000 0.029000
21.107600 0.027800
21.123200 0.026600
21.138700 0.025400
21.154300 0.024300
21.169900 0.023100
21.185400 0.022000
21.201000 0.020900
21.216500 0.019800
21.232100 0.018700
21.247700 0.017600
21.263200 0.016600
21.278800 0.015500
21.294400 0.014500
21.309900 0.013500
21.325500 0.012500
21.341000 0.000000
21.356600 0.000000
21.372200 0.000000
21.387700 0.000000
21.403300 0.000000
21.418800 0.000000
21.434400 0.000000
21.450000 0.000000
21.465500 0.000000
21.481100 0.000000
21.496700 0.000000
21.512200 0.000000
21.527800 0.000000
21.543300 0.000000
21.558900 0.000000
21.574500 0.000000
21.590000 0.000000
21.605600 0.000000
21.621100 0.000000
21.636700 0.000000
21.652300 0.000000
21.667800 0.000000
21.683400 0.000000
21.699000 0.000000
21.714500 0.000000
21.730100 0.000000
21.745600 0.000000
21.761200 0.000000
21.776800 0.000000
21.792300 0.000000
21.807900 0.000000
21.823500 0.000000
21.839000 0.000000
21.854600 0.000000
21.870100 0.000000
21.885700 0.000000
21.901300 0.000000
21.916800 0.000000
21.932400 0.000000
21.947900 0.000000
21.963500 0.000000
21.979100 0.000000
21.994600 0.000000
22.010200 0.000000
22.025800 0.000000
22.041300 0.000000
22.056900 0.000000
22.072400 0.000000
22.088000 0.000000
22.103600 0.000000
22.119100 0.000000
22.134700 0.000000
22.150300 0.000000
22.165800 0.000000
22.181400 0.000000
22.196900 0.000000
22.212500 0.000000
22.228100 0.000000
22.243600 0.000000
22.259200 0.000000
22.274700 0.000000
22.290300 0.000000
22.305900 0.000000
22.321400 0.000000
22.337000 0.000000
22.352600 0.000000
22.368100 0.000000
22.383700 0.000000
22.399200 0.000000
22.414800 0.000000
22.430400 0.000000
22.445900 0.000000
22.461500 0.000000
22.477100 0.000000
22.492600 0.000000
22.508200 0.000000
22.523700 0.000000
22.539300 0.000000
22.554900 0.000000
22.570400 0.000000
22.586000 0.000000
22.601500 0.000000
22.617100 0.000000
22.632700 0.000000
22.648200 0.000000
22.663800 0.000000
22.679400 0.000000
22.694900 0.000000
22.710500 0.000000
22.726000 0.000000
22.741600 0.000000
e
