set title 'mp-1223990 - Density of States'
set xlabel 'Energy (eV)'
set ylabel 'DOS (states/eV)'
set grid
set xrange [-10:10]
set yrange [0:173.894]
set xzeroaxis lt -1
set terminal png size 800,600
set output 'mp-1223990_dos_gnuplot.png'
plot '-' using 1:2 with lines title 'DOS'
-9.846300 0.000000
-9.827300 0.000000
-9.808200 0.000000
-9.789100 0.000000
-9.770000 0.000000
-9.750900 0.000000
-9.731900 0.000000
-9.712800 0.000000
-9.693700 0.000000
-9.674600 0.000000
-9.655500 0.000000
-9.636500 0.000000
-9.617400 0.000000
-9.598300 0.000000
-9.579200 0.000000
-9.560100 0.000000
-9.541100 0.000000
-9.522000 0.000000
-9.502900 0.000000
-9.483800 0.000000
-9.464700 0.000000
-9.445700 0.000000
-9.426600 0.000000
-9.407500 0.000000
-9.388400 0.000000
-9.369300 0.000000
-9.350300 0.000000
-9.331200 0.000000
-9.312100 0.000000
-9.293000 0.000000
-9.273900 0.000000
-9.254900 0.000000
-9.235800 0.000000
-9.216700 0.000000
-9.197600 0.000000
-9.178500 0.000000
-9.159500 0.000000
-9.140400 0.000000
-9.121300 0.000000
-9.102200 0.000000
-9.083100 0.000000
-9.064100 0.000000
-9.045000 0.000000
-9.025900 0.000000
-9.006800 0.000000
-8.987700 0.000000
-8.968700 0.000000
-8.949600 0.000000
-8.930500 0.000000
-8.911400 0.000000
-8.892300 0.000000
-8.873200 0.000000
-8.854200 0.000000
-8.835100 0.000000
-8.816000 0.000000
-8.796900 0.000000
-8.777800 0.000000
-8.758800 0.000000
-8.739700 0.000000
-8.720600 0.000000
-8.701500 0.000000
-8.682400 0.000000
-8.663400 0.000000
-8.644300 0.000000
-8.625200 0.000000
-8.606100 0.000000
-8.587000 0.000000
-8.568000 0.000000
-8.548900 0.000000
-8.529800 0.000000
-8.510700 0.000000
-8.491600 0.000000
-8.472600 0.000000
-8.453500 0.000000
-8.434400 0.000000
-8.415300 0.000000
-8.396200 0.000000
-8.377200 0.000000
-8.358100 0.000000
-8.339000 0.000000
-8.319900 0.000000
-8.300800 0.000000
-8.281800 0.000000
-8.262700 0.000000
-8.243600 0.000000
-8.224500 0.000000
-8.205400 0.000000
-8.186400 0.000000
-8.167300 0.000000
-8.148200 0.000000
-8.129100 0.000000
-8.110000 3.430400
-8.091000 14.957900
-8.071900 16.282500
-8.052800 31.501700
-8.033700 60.225800
-8.014600 55.764800
-7.995600 67.898700
-7.976500 97.157800
-7.957400 117.478500
-7.938300 136.665400
-7.919200 117.160700
-7.900100 78.743600
-7.881100 53.493500
-7.862000 65.120800
-7.842900 90.743800
-7.823800 158.085200
-7.804700 121.530300
-7.785700 111.147300
-7.766600 120.789500
-7.747500 132.172600
-7.728400 113.783400
-7.709300 79.054100
-7.690300 66.777700
-7.671200 49.030800
-7.652100 28.354000
-7.633000 33.000300
-7.613900 34.930500
-7.594900 5.543300
-7.575800 0.000000
-7.556700 0.000000
-7.537600 0.000000
-7.518500 0.000000
-7.499500 0.000000
-7.480400 0.000000
-7.461300 0.000000
-7.442200 0.000000
-7.423100 0.000000
-7.404100 0.000000
-7.385000 0.000000
-7.365900 0.000000
-7.346800 0.000000
-7.327700 0.000000
-7.308700 0.000000
-7.289600 0.000000
-7.270500 0.000000
-7.251400 0.000000
-7.232300 0.000000
-7.213300 0.000000
-7.194200 0.000000
-7.175100 0.000000
-7.156000 0.000000
-7.136900 0.000000
-7.117900 0.000000
-7.098800 0.000000
-7.079700 0.000000
-7.060600 0.000000
-7.041500 0.000000
-7.022500 0.000000
-7.003400 0.000000
-6.984300 0.000000
-6.965200 0.000000
-6.946100 0.000000
-6.927000 0.000000
-6.908000 0.000000
-6.888900 0.000000
-6.869800 0.000000
-6.850700 0.000000
-6.831600 0.000000
-6.812600 0.000000
-6.793500 0.000000
-6.774400 0.000000
-6.755300 0.000000
-6.736200 0.000000
-6.717200 0.000000
-6.698100 0.000000
-6.679000 0.000000
-6.659900 0.000000
-6.640800 0.000000
-6.621800 0.000000
-6.602700 0.000000
-6.583600 0.000000
-6.564500 0.000000
-6.545400 0.000000
-6.526400 0.000000
-6.507300 0.000000
-6.488200 0.000000
-6.469100 0.000000
-6.450000 0.000000
-6.431000 0.000000
-6.411900 0.000000
-6.392800 0.000000
-6.373700 0.000000
-6.354600 0.000000
-6.335600 0.000000
-6.316500 0.000000
-6.297400 0.000000
-6.278300 0.000000
-6.259200 0.000000
-6.240200 0.064500
-6.221100 0.227100
-6.202000 0.389700
-6.182900 0.552200
-6.163800 0.425600
-6.144800 0.359800
-6.125700 0.373000
-6.106600 0.386100
-6.087500 0.399200
-6.068400 0.412300
-6.049400 0.425400
-6.030300 0.434400
-6.011200 0.441700
-5.992100 0.448200
-5.973000 0.424100
-5.953900 0.400000
-5.934900 0.400700
-5.915800 0.401300
-5.896700 0.402000
-5.877600 0.404300
-5.858500 0.409100
-5.839500 0.413900
-5.820400 0.418700
-5.801300 0.423500
-5.782200 0.428300
-5.763100 0.423100
-5.744100 0.427200
-5.725000 0.431300
-5.705900 0.435500
-5.686800 0.439600
-5.667700 0.432200
-5.648700 0.424600
-5.629600 0.418600
-5.610500 0.417200
-5.591400 0.416500
-5.572300 0.418500
-5.553300 0.420600
-5.534200 0.422600
-5.515100 0.424600
-5.496000 0.426700
-5.476900 0.428700
-5.457900 0.430700
-5.438800 0.431600
-5.419700 0.432400
-5.400600 0.433200
-5.381500 0.433900
-5.362500 0.434900
-5.343400 0.437600
-5.324300 0.440300
-5.305200 0.442900
-5.286100 0.445600
-5.267100 0.448200
-5.248000 0.440300
-5.228900 0.440400
-5.209800 0.440500
-5.190700 0.440700
-5.171700 0.440800
-5.152600 0.440900
-5.133500 0.441000
-5.114400 0.441200
-5.095300 0.442700
-5.076300 0.444600
-5.057200 0.446500
-5.038100 0.448400
-5.019000 0.450300
-4.999900 0.449900
-4.980800 0.451500
-4.961800 0.453100
-4.942700 0.454600
-4.923600 0.456200
-4.904500 0.457800
-4.885400 0.459300
-4.866400 0.460900
-4.847300 0.462500
-4.828200 0.464500
-4.809100 0.466800
-4.790000 0.469000
-4.771000 0.471200
-4.751900 0.473400
-4.732800 0.473600
-4.713700 0.473300
-4.694600 0.474100
-4.675600 0.475300
-4.656500 0.476500
-4.637400 0.478200
-4.618300 0.479900
-4.599200 0.481700
-4.580200 0.483500
-4.561100 0.485200
-4.542000 0.487000
-4.522900 0.489100
-4.503800 0.491300
-4.484800 0.493500
-4.465700 0.495600
-4.446600 0.498000
-4.427500 0.500400
-4.408400 0.503000
-4.389400 0.505600
-4.370300 0.508100
-4.351200 0.510700
-4.332100 0.513300
-4.313000 0.515900
-4.294000 0.518400
-4.274900 0.521000
-4.255800 0.523700
-4.236700 0.526700
-4.217600 0.529600
-4.198600 0.532500
-4.179500 0.535400
-4.160400 0.540800
-4.141300 0.546600
-4.122200 0.552500
-4.103200 0.557400
-4.084100 0.562100
-4.065000 0.566900
-4.045900 0.571700
-4.026800 0.576500
-4.007700 0.581300
-3.988700 0.589000
-3.969600 0.595100
-3.950500 0.602000
-3.931400 0.609100
-3.912300 0.616200
-3.893300 0.623400
-3.874200 0.631100
-3.855100 0.638700
-3.836000 0.646400
-3.816900 0.654000
-3.797900 0.661600
-3.778800 0.669300
-3.759700 0.676900
-3.740600 0.684600
-3.721500 0.694000
-3.702500 0.706700
-3.683400 0.719400
-3.664300 0.732200
-3.645200 0.745000
-3.626100 0.801800
-3.607100 0.863700
-3.588000 0.923700
-3.568900 0.982400
-3.549800 1.321800
-3.530700 1.212300
-3.511700 1.102900
-3.492600 0.993700
-3.473500 0.899300
-3.454400 0.807500
-3.435300 0.942800
-3.416300 0.890900
-3.397200 0.838700
-3.378100 0.786500
-3.359000 0.734300
-3.339900 0.682100
-3.320900 0.649700
-3.301800 0.648700
-3.282700 0.647900
-3.263600 0.647100
-3.244500 0.646300
-3.225500 0.645400
-3.206400 0.644600
-3.187300 0.644400
-3.168200 0.614900
-3.149100 0.569900
-3.130100 0.552200
-3.111000 0.559900
-3.091900 0.567500
-3.072800 0.575100
-3.053700 0.593400
-3.034600 0.588200
-3.015600 0.583100
-2.996500 0.576400
-2.977400 0.568600
-2.958300 0.560800
-2.939200 0.554600
-2.920200 0.551800
-2.901100 0.548900
-2.882000 0.546100
-2.862900 0.543200
-2.843800 0.549600
-2.824800 0.557500
-2.805700 0.572200
-2.786600 0.588500
-2.767500 0.604700
-2.748400 0.620900
-2.729400 0.633600
-2.710300 0.793500
-2.691200 0.752500
-2.672100 0.711500
-2.653000 1.044700
-2.634000 0.754300
-2.614900 0.408400
-2.595800 0.242400
-2.576700 0.108400
-2.557600 0.000000
-2.538600 0.000000
-2.519500 0.000000
-2.500400 0.000000
-2.481300 0.000000
-2.462200 0.000000
-2.443200 0.000000
-2.424100 0.000000
-2.405000 0.000000
-2.385900 0.000000
-2.366800 0.000000
-2.347800 0.000000
-2.328700 0.000000
-2.309600 0.000000
-2.290500 0.000000
-2.271400 0.000000
-2.252400 0.000000
-2.233300 0.000000
-2.214200 0.000000
-2.195100 0.000000
-2.176000 0.000000
-2.157000 0.000000
-2.137900 0.000000
-2.118800 0.000000
-2.099700 0.018200
-2.080600 0.087800
-2.061500 0.183600
-2.042500 0.305500
-2.023400 0.392100
-2.004300 0.382000
-1.985200 0.387500
-1.966100 0.368500
-1.947100 0.347000
-1.928000 0.357200
-1.908900 0.368400
-1.889800 0.379600
-1.870700 0.389600
-1.851700 0.397700
-1.832600 0.403900
-1.813500 0.399000
-1.794400 0.388900
-1.775300 0.377600
-1.756300 0.368600
-1.737200 0.362700
-1.718100 0.360800
-1.699000 0.362400
-1.679900 0.364800
-1.660900 0.368000
-1.641800 0.372300
-1.622700 0.383300
-1.603600 0.403200
-1.584500 0.431900
-1.565500 0.464400
-1.546400 0.489200
-1.527300 0.511200
-1.508200 0.533600
-1.489100 0.557200
-1.470100 0.577200
-1.451000 0.595700
-1.431900 0.642300
-1.412800 0.699300
-1.393700 0.750100
-1.374700 0.794800
-1.355600 0.751100
-1.336500 0.728800
-1.317400 0.735200
-1.298300 0.741200
-1.279300 0.746400
-1.260200 0.750900
-1.241100 0.754900
-1.222000 0.758600
-1.202900 0.760600
-1.183900 0.761700
-1.164800 0.758900
-1.145700 0.752100
-1.126600 0.746200
-1.107500 0.746500
-1.088400 0.748000
-1.069400 0.750300
-1.050300 0.754000
-1.031200 0.758600
-1.012100 0.762700
-0.993000 0.762100
-0.974000 0.760200
-0.954900 0.758400
-0.935800 0.755900
-0.916700 0.754300
-0.897600 0.750000
-0.878600 0.749100
-0.859500 0.748100
-0.840400 0.747500
-0.821300 0.744100
-0.802200 0.740400
-0.783200 0.738700
-0.764100 0.739100
-0.745000 0.740000
-0.725900 0.741100
-0.706800 0.743000
-0.687800 0.745100
-0.668700 0.747100
-0.649600 0.747400
-0.630500 0.765700
-0.611400 0.819400
-0.592400 0.876000
-0.573300 0.936000
-0.554200 0.943400
-0.535100 0.915700
-0.516000 0.929900
-0.497000 0.944400
-0.477900 0.959300
-0.458800 0.974500
-0.439700 0.990400
-0.420600 1.007100
-0.401600 1.022700
-0.382500 1.036400
-0.363400 1.047500
-0.344300 1.049500
-0.325200 1.050300
-0.306200 1.057200
-0.287100 1.067200
-0.268000 1.077900
-0.248900 1.089800
-0.229800 1.102800
-0.210800 1.115900
-0.191700 1.125900
-0.172600 1.131300
-0.153500 1.132200
-0.134400 1.129900
-0.115300 1.132900
-0.096300 1.132800
-0.077200 1.135500
-0.058100 1.138100
-0.039000 1.140400
-0.019900 1.139500
-0.000900 1.135700
0.018200 1.133400
0.037300 1.132600
0.056400 1.131800
0.075500 1.131700
0.094500 1.132600
0.113600 1.134100
0.132700 1.135300
0.151800 1.136500
0.170900 1.137600
0.189900 1.138700
0.209000 1.139600
0.228100 1.140600
0.247200 1.141300
0.266300 1.140900
0.285300 1.139900
0.304400 1.139200
0.323500 1.138700
0.342600 1.138800
0.361700 1.139400
0.380700 1.139700
0.399800 1.139100
0.418900 1.139600
0.438000 1.140100
0.457100 1.141100
0.476100 1.146100
0.495200 1.156000
0.514300 1.169700
0.533400 1.181200
0.552500 1.190400
0.571500 1.200100
0.590600 1.210400
0.609700 1.221100
0.628800 1.232200
0.647900 1.243700
0.666900 1.255800
0.686000 1.268200
0.705100 1.280900
0.724200 1.292700
0.743300 1.304300
0.762300 1.315500
0.781400 1.326800
0.800500 1.336900
0.819600 1.348000
0.838700 1.359200
0.857800 1.371500
0.876800 1.384600
0.895900 1.398100
0.915000 1.411900
0.934100 1.454300
0.953200 1.518400
0.972200 1.580700
0.991300 1.641100
1.010400 1.572400
1.029500 1.571400
1.048600 1.581700
1.067600 1.591100
1.086700 1.600000
1.105800 1.608500
1.124900 1.617000
1.144000 1.624300
1.163000 1.631300
1.182100 1.634600
1.201200 1.631300
1.220300 1.629100
1.239400 1.634500
1.258400 1.640300
1.277500 1.647300
1.296600 1.658100
1.315700 1.684200
1.334800 1.715800
1.353800 1.748000
1.372900 1.780400
1.392000 1.812700
1.411100 1.842800
1.430200 1.874800
1.449200 1.908400
1.468300 2.593400
1.487400 3.237700
1.506500 1.864700
1.525600 1.855200
1.544600 1.846800
1.563700 1.839800
1.582800 1.833000
1.601900 1.827100
1.621000 1.821500
1.640000 1.817800
1.659100 1.818400
1.678200 1.819000
1.697300 1.819300
1.716400 1.815600
1.735500 1.811200
1.754500 1.812700
1.773600 1.818800
1.792700 1.825200
1.811800 1.831300
1.830900 1.836100
1.849900 1.841100
1.869000 1.846900
1.888100 1.854400
1.907200 1.875400
1.926300 1.901600
1.945300 1.915200
1.964400 1.930400
1.983500 1.949800
2.002600 1.973700
2.021700 2.028000
2.040700 2.068700
2.059800 2.005800
2.078900 2.744300
2.098000 2.657600
2.117100 2.351100
2.136100 2.059500
2.155200 2.054800
2.174300 2.049500
2.193400 2.043700
2.212500 2.037600
2.231500 2.030400
2.250600 2.025100
2.269700 2.021600
2.288800 2.024600
2.307900 2.027000
2.326900 2.031000
2.346000 2.048900
2.365100 2.076600
2.384200 2.091100
2.403300 2.066600
2.422300 2.067600
2.441400 2.067900
2.460500 2.067000
2.479600 2.048800
2.498700 2.023700
2.517700 2.003100
2.536800 1.988600
2.555900 1.974800
2.575000 1.963800
2.594100 2.091500
2.613100 1.982900
2.632200 1.868400
2.651300 1.858000
2.670400 1.861100
2.689500 1.884100
2.708600 1.920200
2.727600 1.923000
2.746700 1.917600
2.765800 1.909400
2.784900 1.908000
2.804000 1.909300
2.823000 1.933600
2.842100 1.956200
2.861200 1.985500
2.880300 2.043200
2.899400 2.056500
2.918400 2.069700
2.937500 2.054400
2.956600 2.025200
2.975700 2.017600
2.994800 2.008900
3.013800 2.004600
3.032900 2.047700
3.052000 2.096500
3.071100 2.133600
3.090200 2.185000
3.109200 2.108400
3.128300 2.025900
3.147400 1.913400
3.166500 1.819200
3.185600 1.761400
3.204600 1.739200
3.223700 1.730800
3.242800 1.726800
3.261900 1.718400
3.281000 1.711400
3.300000 1.717600
3.319100 1.752500
3.338200 1.857300
3.357300 2.050200
3.376400 2.176000
3.395400 2.246300
3.414500 2.300500
3.433600 2.352200
3.452700 2.428000
3.471800 2.426100
3.490800 2.378600
3.509900 2.217100
3.529000 2.152600
3.548100 2.095400
3.567200 2.051900
3.586200 2.020000
3.605300 2.065100
3.624400 2.105900
3.643500 2.123800
3.662600 2.134500
3.681700 2.233100
3.700700 2.139500
3.719800 2.082900
3.738900 2.121600
3.758000 2.112700
3.777100 2.044900
3.796100 1.989100
3.815200 1.935500
3.834300 1.868800
3.853400 1.799100
3.872500 1.762400
3.891500 1.756000
3.910600 1.762200
3.929700 1.780400
3.948800 1.790100
3.967900 1.796200
3.986900 1.806100
4.006000 1.842100
4.025100 1.862500
4.044200 1.925200
4.063300 1.914900
4.082300 1.898800
4.101400 1.884000
4.120500 1.878700
4.139600 1.882400
4.158700 1.926100
4.177700 1.945500
4.196800 1.916600
4.215900 1.851900
4.235000 1.777000
4.254100 1.814100
4.273100 1.919300
4.292200 2.032300
4.311300 2.138800
4.330400 2.242100
4.349500 2.351800
4.368500 2.409300
4.387600 2.394800
4.406700 2.308800
4.425800 2.259900
4.444900 2.258800
4.463900 2.311500
4.483000 2.362400
4.502100 2.335900
4.521200 2.270600
4.540300 2.218000
4.559300 2.186000
4.578400 2.162300
4.597500 2.111300
4.616600 2.126600
4.635700 2.119000
4.654800 2.118200
4.673800 2.159400
4.692900 2.205900
4.712000 2.185100
4.731100 2.104700
4.750200 2.003800
4.769200 2.043000
4.788300 2.233800
4.807400 2.502000
4.826500 2.512100
4.845600 2.348400
4.864600 2.149600
4.883700 2.008400
4.902800 1.983800
4.921900 2.001800
4.941000 2.038800
4.960000 2.075600
4.979100 2.015000
4.998200 1.892400
5.017300 1.826300
5.036400 1.828700
5.055400 1.846000
5.074500 1.869900
5.093600 1.910300
5.112700 1.939400
5.131800 1.996300
5.150800 2.052500
5.169900 2.033800
5.189000 2.065200
5.208100 2.115600
5.227200 2.174800
5.246200 2.229400
5.265300 2.284500
5.284400 2.341400
5.303500 2.407100
5.322600 2.473300
5.341600 2.545200
5.360700 2.796600
5.379800 3.061100
5.398900 2.982000
5.418000 2.919300
5.437000 2.804500
5.456100 2.722100
5.475200 2.719200
5.494300 2.757000
5.513400 2.793600
5.532400 2.792000
5.551500 2.803400
5.570600 2.961000
5.589700 3.059400
5.608800 3.121900
5.627900 3.158500
5.646900 3.212400
5.666000 3.199000
5.685100 3.347400
5.704200 3.097200
5.723300 2.914800
5.742300 2.855000
5.761400 2.838600
5.780500 2.780800
5.799600 2.733200
5.818700 2.686100
5.837700 2.634500
5.856800 2.570000
5.875900 2.496100
5.895000 2.415700
5.914100 2.332200
5.933100 2.278100
5.952200 2.264200
5.971300 2.276300
5.990400 2.308700
6.009500 2.391800
6.028500 2.677700
6.047600 2.351800
6.066700 2.326400
6.085800 2.311200
6.104900 2.319800
6.123900 2.341800
6.143000 2.379000
6.162100 2.414100
6.181200 2.423000
6.200300 2.357100
6.219300 2.306100
6.238400 2.289900
6.257500 2.317800
6.276600 2.360800
6.295700 2.442700
6.314700 2.598800
6.333800 2.624200
6.352900 2.486400
6.372000 2.413100
6.391100 2.369900
6.410100 2.328100
6.429200 2.316300
6.448300 2.332900
6.467400 2.358500
6.486500 2.389300
6.505500 2.421600
6.524600 2.465200
6.543700 2.470700
6.562800 2.484900
6.581900 2.518000
6.601000 2.593400
6.620000 2.674800
6.639100 2.741600
6.658200 2.802400
6.677300 2.746200
6.696400 2.726800
6.715400 2.700000
6.734500 2.641500
6.753600 2.594700
6.772700 2.563000
6.791800 2.543800
6.810800 2.547900
6.829900 2.558300
6.849000 2.569100
6.868100 2.587100
6.887200 2.613200
6.906200 2.634000
6.925300 2.641200
6.944400 2.639700
6.963500 2.649300
6.982600 2.661600
7.001600 2.668700
7.020700 2.672000
7.039800 2.684400
7.058900 2.688400
7.078000 2.717800
7.097000 2.768200
7.116100 2.796200
7.135200 2.801100
7.154300 2.789400
7.173400 2.789800
7.192400 2.799400
7.211500 2.809100
7.230600 2.841000
7.249700 2.863700
7.268800 2.853300
7.287800 2.821300
7.306900 2.872300
7.326000 2.911600
7.345100 2.936600
7.364200 2.870900
7.383200 2.831400
7.402300 2.793000
7.421400 2.765900
7.440500 2.742400
7.459600 2.729200
7.478600 2.731100
7.497700 2.740300
7.516800 2.714300
7.535900 2.723500
7.555000 2.687100
7.574100 2.644300
7.593100 2.602300
7.612200 2.533200
7.631300 2.530600
7.650400 2.542400
7.669500 2.569100
7.688500 2.614100
7.707600 2.652400
7.726700 2.636800
7.745800 2.638100
7.764900 2.642700
7.783900 2.651200
7.803000 2.683300
7.822100 2.699300
7.841200 2.687000
7.860300 2.674800
7.879300 2.720300
7.898400 2.760000
7.917500 2.767400
7.936600 2.777000
7.955700 2.766800
7.974700 2.767300
7.993800 2.774500
8.012900 2.792500
8.032000 2.827800
8.051100 2.868900
8.070100 2.910200
8.089200 2.959300
8.108300 2.997800
8.127400 3.000300
8.146500 3.026500
8.165500 3.061700
8.184600 3.036900
8.203700 3.071400
8.222800 3.100400
8.241900 3.093800
8.260900 3.121400
8.280000 3.168700
8.299100 3.228400
8.318200 3.225700
8.337300 3.181600
8.356300 3.187800
8.375400 3.206900
8.394500 3.233500
8.413600 3.253900
8.432700 3.257300
8.451700 3.238100
8.470800 3.199900
8.489900 3.157300
8.509000 3.107400
8.528100 3.053100
8.547200 2.991900
8.566200 2.930100
8.585300 2.873700
8.604400 2.832500
8.623500 2.800900
8.642600 2.767600
8.661600 2.725800
8.680700 2.691400
8.699800 2.657300
8.718900 2.638200
8.738000 2.648000
8.757000 2.675700
8.776100 2.722600
8.795200 2.789700
8.814300 2.870100
8.833400 2.926000
8.852400 2.963000
8.871500 2.948600
8.890600 2.909600
8.909700 2.852900
8.928800 2.791400
8.947800 2.748000
8.966900 2.722700
8.986000 2.713100
9.005100 2.715900
9.024200 2.723200
9.043200 2.733600
9.062300 2.744400
9.081400 2.758600
9.100500 2.780600
9.119600 2.823000
9.138600 2.891700
9.157700 2.966100
9.176800 3.012000
9.195900 3.020600
9.215000 3.031400
9.234000 3.033500
9.253100 3.030500
9.272200 3.027600
9.291300 3.040400
9.310400 3.082100
9.329400 3.121800
9.348500 3.151500
9.367600 3.165400
9.386700 3.175200
9.405800 3.183600
9.424800 3.190900
9.443900 3.191400
9.463000 3.194600
9.482100 3.223800
9.501200 3.288000
9.520300 3.399300
9.539300 3.486600
9.558400 3.549700
9.577500 3.583100
9.596600 3.611300
9.615700 3.626300
9.634700 3.673000
9.653800 3.780800
9.672900 3.734800
9.692000 3.690800
9.711100 3.655800
9.730100 3.660500
9.749200 3.659500
9.768300 3.627000
9.787400 3.611700
9.806500 3.586900
9.825500 3.547100
9.844600 3.484000
9.863700 3.422000
9.882800 3.369300
9.901900 3.342300
9.920900 3.317900
9.940000 3.306400
9.959100 3.297500
9.978200 3.295200
9.997300 3.313500
10.016300 3.336700
10.035400 3.333500
10.054500 3.269800
10.073600 3.227600
10.092700 3.207700
10.111700 3.188700
10.130800 3.171100
10.149900 3.173200
10.169000 3.183200
10.188100 3.177600
10.207100 3.149200
10.226200 3.136800
10.245300 3.153100
10.264400 3.206200
10.283500 3.290900
10.302500 3.369200
10.321600 3.434600
10.340700 3.480100
10.359800 3.503500
10.378900 3.525100
10.397900 3.515100
10.417000 3.477500
10.436100 3.420500
10.455200 3.364900
10.474300 3.319200
10.493400 3.308800
10.512400 3.303500
10.531500 3.257500
10.550600 3.235800
10.569700 3.225800
10.588800 3.222700
10.607800 3.207000
10.626900 3.180800
10.646000 3.175300
10.665100 3.156100
10.684200 3.137800
10.703200 3.118800
10.722300 3.089000
10.741400 3.073200
10.760500 3.059300
10.779600 3.027300
10.798600 3.002600
10.817700 2.985400
10.836800 2.966200
10.855900 2.966000
10.875000 2.977900
10.894000 2.996100
10.913100 3.022400
10.932200 3.069000
10.951300 3.117700
10.970400 3.181800
10.989400 3.259000
11.008500 3.342900
11.027600 3.408700
11.046700 3.455700
11.065800 3.551800
11.084800 3.491500
11.103900 3.460800
11.123000 3.427500
11.142100 3.366200
11.161200 3.284800
11.180200 3.256800
11.199300 3.107300
11.218400 3.071700
11.237500 3.069100
11.256600 3.046900
11.275600 2.984300
11.294700 2.986000
11.313800 2.998000
11.332900 3.014500
11.352000 3.037600
11.371000 3.059300
11.390100 3.077500
11.409200 3.099600
11.428300 3.137600
11.447400 3.135200
11.466500 3.135100
11.485500 3.138000
11.504600 3.140400
11.523700 3.139000
11.542800 3.137500
11.561900 3.132000
11.580900 3.126400
11.600000 3.124600
11.619100 3.126900
11.638200 3.132400
11.657300 3.129600
11.676300 3.073300
11.695400 3.040100
11.714500 3.013500
11.733600 2.983700
11.752700 2.971600
11.771700 2.967500
11.790800 2.959600
11.809900 2.959600
11.829000 2.961200
11.848100 2.963700
11.867100 2.968300
11.886200 2.975100
11.905300 2.951800
11.924400 2.958200
11.943500 2.964400
11.962500 2.960400
11.981600 2.959300
12.000700 2.964600
12.019800 2.970100
12.038900 2.971700
12.057900 2.969800
12.077000 2.962900
12.096100 2.949500
12.115200 2.960000
12.134300 2.979200
12.153300 2.996300
12.172400 3.009000
12.191500 3.017700
12.210600 3.025200
12.229700 3.030100
12.248700 3.039900
12.267800 3.064200
12.286900 3.044400
12.306000 3.009100
12.325100 2.980300
12.344100 2.972900
12.363200 3.015400
12.382300 3.045200
12.401400 3.045700
12.420500 3.036800
12.439600 3.029700
12.458600 3.013200
12.477700 2.997700
12.496800 2.984600
12.515900 2.974200
12.535000 3.008600
12.554000 3.013400
12.573100 2.993900
12.592200 3.000000
12.611300 2.965200
12.630400 2.916200
12.649400 2.883100
12.668500 2.875100
12.687600 2.881600
12.706700 2.888700
12.725800 2.883500
12.744800 2.895600
12.763900 2.921900
12.783000 2.954800
12.802100 2.996100
12.821200 3.047600
12.840200 3.102300
12.859300 3.147300
12.878400 3.319000
12.897500 3.285300
12.916600 3.102600
12.935600 3.074900
12.954700 3.130900
12.973800 3.215600
12.992900 3.160700
13.012000 2.997400
13.031000 2.906000
13.050100 2.868900
13.069200 2.857900
13.088300 2.862600
13.107400 2.878300
13.126400 2.882200
13.145500 2.867700
13.164600 2.850700
13.183700 2.837100
13.202800 2.825500
13.221800 2.817200
13.240900 2.809500
13.260000 2.801900
13.279100 2.792100
13.298200 2.783400
13.317300 2.776800
13.336300 2.772100
13.355400 2.773500
13.374500 2.829100
13.393600 2.830500
13.412700 2.773500
13.431700 2.780300
13.450800 2.805400
13.469900 2.846700
13.489000 2.878900
13.508100 2.903400
13.527100 2.935000
13.546200 2.973100
13.565300 3.011200
13.584400 3.042900
13.603500 3.074400
13.622500 3.103700
13.641600 3.126200
13.660700 3.150700
13.679800 3.182200
13.698900 3.274100
13.717900 3.349600
13.737000 3.394100
13.756100 3.420100
13.775200 3.424100
13.794300 3.408600
13.813300 3.383000
13.832400 3.338100
13.851500 3.294500
13.870600 3.258200
13.889700 3.244800
13.908700 3.248600
13.927800 3.271200
13.946900 3.306700
13.966000 3.348700
13.985100 3.393800
14.004100 3.490400
14.023200 3.545600
14.042300 3.541500
14.061400 3.468700
14.080500 3.451400
14.099500 3.464900
14.118600 3.483600
14.137700 3.518400
14.156800 3.585200
14.175900 3.592600
14.194900 3.573800
14.214000 3.549200
14.233100 3.524400
14.252200 3.452700
14.271300 3.424500
14.290400 3.397400
14.309400 3.370300
14.328500 3.341800
14.347600 3.328300
14.366700 3.265900
14.385800 3.226300
14.404800 3.197500
14.423900 3.167700
14.443000 3.139300
14.462100 3.181500
14.481200 3.192400
14.500200 3.192900
14.519300 3.188100
14.538400 3.167500
14.557500 3.136700
14.576600 3.141700
14.595600 3.151000
14.614700 3.180200
14.633800 3.209200
14.652900 3.329000
14.672000 3.278500
14.691000 3.336800
14.710100 3.600400
14.729200 3.447300
14.748300 3.364300
14.767400 3.360700
14.786400 3.365200
14.805500 3.377100
14.824600 3.434800
14.843700 3.481200
14.862800 3.417500
14.881800 3.361900
14.900900 3.322800
14.920000 3.306500
14.939100 3.305100
14.958200 3.321500
14.977200 3.335900
14.996300 3.346400
15.015400 3.354700
15.034500 3.363600
15.053600 3.368400
15.072600 3.363900
15.091700 3.376200
15.110800 3.346700
15.129900 3.295300
15.149000 3.255600
15.168000 3.220700
15.187100 3.214900
15.206200 3.226900
15.225300 3.229200
15.244400 3.228800
15.263500 3.243300
15.282500 3.236800
15.301600 3.232800
15.320700 3.298700
15.339800 3.274600
15.358900 3.244100
15.377900 3.230000
15.397000 3.228100
15.416100 3.208900
15.435200 3.217300
15.454300 3.267100
15.473300 3.266700
15.492400 3.275900
15.511500 3.273300
15.530600 3.269800
15.549700 3.259100
15.568700 3.238800
15.587800 3.227100
15.606900 3.222400
15.626000 3.224200
15.645100 3.229700
15.664100 3.266900
15.683200 3.285500
15.702300 3.311100
15.721400 3.343400
15.740500 3.369700
15.759500 3.361000
15.778600 3.384200
15.797700 3.387500
15.816800 3.410500
15.835900 3.445200
15.854900 3.485300
15.874000 3.519500
15.893100 3.511100
15.912200 3.511000
15.931300 3.538200
15.950300 3.559000
15.969400 3.552700
15.988500 3.534600
16.007600 3.512700
16.026700 3.491600
16.045700 3.453300
16.064800 3.414700
16.083900 3.387900
16.103000 3.399400
16.122100 3.385600
16.141100 3.392800
16.160200 3.415900
16.179300 3.469900
16.198400 3.531400
16.217500 3.605000
16.236600 3.680100
16.255600 3.754100
16.274700 3.831400
16.293800 3.940400
16.312900 4.059000
16.332000 4.127600
16.351000 4.089800
16.370100 3.966100
16.389200 3.935100
16.408300 3.908000
16.427400 3.883000
16.446400 3.862900
16.465500 3.869700
16.484600 3.944800
16.503700 3.931600
16.522800 3.783500
16.541800 3.796600
16.560900 3.858300
16.580000 3.886800
16.599100 3.952400
16.618200 4.034000
16.637200 4.096000
16.656300 4.169900
16.675400 4.225000
16.694500 4.337800
16.713600 4.431100
16.732600 4.492800
16.751700 4.542300
16.770800 4.572000
16.789900 4.491100
16.809000 4.400000
16.828000 4.372100
16.847100 4.361600
16.866200 4.354700
16.885300 4.338500
16.904400 4.311900
16.923400 4.264400
16.942500 4.278300
16.961600 4.241200
16.980700 4.205000
16.999800 4.227700
17.018800 4.200000
17.037900 4.375000
17.057000 4.219800
17.076100 4.089000
17.095200 4.002500
17.114200 3.975200
17.133300 4.018400
17.152400 3.962600
17.171500 3.840600
17.190600 3.834900
17.209700 3.902900
17.228700 3.915200
17.247800 3.861300
17.266900 3.850400
17.286000 3.863200
17.305100 3.886400
17.324100 3.943600
17.343200 4.032900
17.362300 4.091600
17.381400 4.120400
17.400500 4.119900
17.419500 4.125400
17.438600 4.135500
17.457700 4.139600
17.476800 4.165100
17.495900 4.215600
17.514900 4.367100
17.534000 4.136000
17.553100 4.083400
17.572200 4.065900
17.591300 3.990100
17.610300 3.972400
17.629400 3.874300
17.648500 3.833700
17.667600 3.819300
17.686700 3.836600
17.705700 3.866400
17.724800 3.809000
17.743900 3.776500
17.763000 3.775800
17.782100 3.773300
17.801100 3.790600
17.820200 3.834600
17.839300 3.878700
17.858400 3.915500
17.877500 3.941600
17.896500 3.980100
17.915600 4.015800
17.934700 4.008400
17.953800 4.009400
17.972900 3.992400
17.991900 3.970100
18.011000 3.952100
18.030100 3.957400
18.049200 4.017000
18.068300 4.198000
18.087300 4.210200
18.106400 4.257000
18.125500 4.293800
18.144600 4.317800
18.163700 4.362700
18.182800 4.409500
18.201800 4.447000
18.220900 4.731700
18.240000 4.743400
18.259100 4.793700
18.278200 4.792200
18.297200 4.545100
18.316300 4.530300
18.335400 4.484200
18.354500 4.431800
18.373600 4.361100
18.392600 4.379600
18.411700 4.339400
18.430800 4.355700
18.449900 4.359900
18.469000 4.344900
18.488000 4.290400
18.507100 4.207500
18.526200 4.217800
18.545300 4.208600
18.564400 4.234100
18.583400 4.239900
18.602500 4.247200
18.621600 4.260300
18.640700 4.325700
18.659800 4.450800
18.678800 4.532600
18.697900 4.575800
18.717000 4.631400
18.736100 4.686900
18.755200 4.734400
18.774200 4.793100
18.793300 4.779700
18.812400 4.940100
18.831500 4.989300
18.850600 4.984600
18.869600 5.035000
18.888700 5.073800
18.907800 4.997800
18.926900 4.928600
18.946000 4.840700
18.965000 4.729500
18.984100 4.721600
19.003200 4.740500
19.022300 4.787400
19.041400 4.882100
19.060400 4.903000
19.079500 4.920800
19.098600 4.834200
19.117700 4.765600
19.136800 4.736100
19.155900 4.739300
19.174900 4.662800
19.194000 4.616500
19.213100 4.623100
19.232200 4.617500
19.251300 4.503900
19.270300 4.418700
19.289400 4.362500
19.308500 4.271800
19.327600 4.239200
19.346700 4.246100
19.365700 4.271200
19.384800 4.128700
19.403900 4.148100
19.423000 4.181300
19.442100 4.177700
19.461100 4.231300
19.480200 4.278000
19.499300 4.306900
19.518400 4.371700
19.537500 4.468900
19.556500 4.577900
19.575600 4.651500
19.594700 4.723200
19.613800 4.664500
19.632900 4.716800
19.651900 4.787600
19.671000 4.852800
19.690100 4.844800
19.709200 4.881300
19.728300 4.858300
19.747300 4.857000
19.766400 4.829500
19.785500 4.822500
19.804600 4.843600
19.823700 4.829100
19.842700 4.672000
19.861800 4.555100
19.880900 4.497100
19.900000 4.454000
19.919100 4.439600
19.938100 4.469700
19.957200 4.456900
19.976300 4.434100
19.995400 4.432900
20.014500 4.439000
20.033500 4.432200
20.052600 4.424100
20.071700 4.392700
20.090800 4.352000
20.109900 4.318400
20.129000 4.266100
20.148000 4.204000
20.167100 4.202800
20.186200 4.207100
20.205300 4.213900
20.224400 4.214700
20.243400 4.220900
20.262500 4.268800
20.281600 4.468600
20.300700 4.560700
20.319800 4.598700
20.338800 4.661600
20.357900 4.502700
20.377000 4.467500
20.396100 4.437300
20.415200 4.359600
20.434200 4.281900
20.453300 4.207000
20.472400 4.103700
20.491500 4.026200
20.510600 4.026500
20.529600 4.151100
20.548700 4.198400
20.567800 4.314700
20.586900 4.457800
20.606000 4.601800
20.625000 4.803600
20.644100 4.987600
20.663200 5.163200
20.682300 5.316400
20.701400 5.506700
20.720400 5.669600
20.739500 5.717400
20.758600 5.731400
20.777700 5.559500
20.796800 5.320100
20.815800 5.245900
20.834900 5.205600
20.854000 5.230500
20.873100 5.245100
20.892200 5.202600
20.911200 5.152500
20.930300 5.180800
20.949400 5.216400
20.968500 5.226200
20.987600 5.262300
21.006600 5.381900
21.025700 5.216000
21.044800 5.318700
21.063900 5.303500
21.083000 5.136300
21.102100 5.030700
21.121100 5.007500
21.140200 5.012700
21.159300 5.041800
21.178400 5.037900
21.197500 5.037300
21.216500 5.039700
21.235600 5.100300
21.254700 5.356200
21.273800 5.180900
21.292900 5.080000
21.311900 5.031300
21.331000 4.976800
21.350100 4.920100
21.369200 4.952600
21.388300 4.999200
21.407300 5.068200
21.426400 4.983500
21.445500 4.995200
21.464600 5.104100
21.483700 5.104400
21.502700 5.147200
21.521800 5.114100
21.540900 5.052700
21.560000 4.989100
21.579100 4.955600
21.598100 4.980300
21.617200 5.006400
21.636300 5.076400
21.655400 5.063800
21.674500 5.122600
21.693500 5.166100
21.712600 5.134200
21.731700 5.153300
21.750800 5.170400
21.769900 5.140100
21.788900 5.124400
21.808000 5.072300
21.827100 5.023800
21.846200 4.985900
21.865300 4.960200
21.884300 4.955100
21.903400 4.985700
21.922500 4.955900
21.941600 5.346700
21.960700 4.957900
21.979700 4.917100
21.998800 4.867100
22.017900 4.787100
22.037000 4.744000
22.056100 4.728300
22.075200 4.719500
22.094200 4.726400
22.113300 4.747100
22.132400 4.775200
22.151500 4.830600
22.170600 4.915000
22.189600 5.018400
22.208700 5.190600
22.227800 5.223800
22.246900 5.081900
22.266000 5.033000
22.285000 4.998800
22.304100 4.988800
22.323200 5.237600
22.342300 5.372300
22.361400 5.059600
22.380400 5.098100
22.399500 5.091400
22.418600 5.098300
22.437700 5.050400
22.456800 4.987300
22.475800 4.948200
22.494900 4.933200
22.514000 4.944300
22.533100 4.990600
22.552200 4.963900
22.571200 4.939200
22.590300 4.931500
22.609400 4.923000
22.628500 5.235300
22.647600 4.963800
22.666600 5.027600
22.685700 5.126000
22.704800 5.265300
22.723900 5.386300
22.743000 5.507300
22.762000 5.634500
22.781100 5.886700
22.800200 5.848700
22.819300 5.700800
22.838400 5.565500
22.857400 5.525100
22.876500 5.517500
22.895600 5.432100
22.914700 5.390600
22.933800 5.342000
22.952800 5.322700
22.971900 5.284100
22.991000 5.272200
23.010100 5.292300
23.029200 5.367000
23.048300 5.327000
23.067300 5.288000
23.086400 5.182700
23.105500 5.050400
23.124600 4.979000
23.143700 4.921800
23.162700 4.868000
23.181800 4.834000
23.200900 4.789600
23.220000 4.788200
23.239100 4.912800
23.258100 4.935500
23.277200 4.927400
23.296300 4.858000
23.315400 4.753900
23.334500 4.736600
23.353500 4.762800
23.372600 4.800200
23.391700 4.821000
23.410800 4.841700
23.429900 4.870100
23.448900 4.889500
23.468000 4.898100
23.487100 4.883200
23.506200 4.861700
23.525300 4.841800
23.544300 4.866600
23.563400 4.888200
23.582500 4.910100
23.601600 4.906300
23.620700 4.873100
23.639700 4.767000
23.658800 4.624100
23.677900 4.526500
23.697000 4.423700
23.716100 4.379600
23.735100 4.346000
23.754200 4.313300
23.773300 4.270900
23.792400 4.216500
23.811500 4.188000
23.830500 4.182500
23.849600 4.221500
23.868700 4.257000
23.887800 4.267800
23.906900 4.257800
23.925900 4.213700
23.945000 4.179900
23.964100 4.147600
23.983200 4.188900
24.002300 4.216900
24.021400 4.197300
24.040400 4.128500
24.059500 4.071600
24.078600 4.045200
24.097700 4.008900
24.116800 3.962500
24.135800 3.914300
24.154900 3.880400
24.174000 3.816300
24.193100 3.770800
24.212200 3.700900
24.231200 3.645000
24.250300 3.593100
24.269400 3.533500
24.288500 3.487400
24.307600 3.491500
24.326600 3.465000
24.345700 3.471600
24.364800 3.528000
24.383900 3.598400
24.403000 3.610900
24.422000 3.737300
24.441100 3.454700
24.460200 3.372200
24.479300 3.315800
24.498400 3.280200
24.517400 3.260200
24.536500 3.266200
24.555600 3.334100
24.574700 3.448100
24.593800 3.541000
24.612800 3.623000
24.631900 3.678000
24.651000 3.720900
24.670100 3.779800
24.689200 3.713200
24.708200 3.712200
24.727300 3.693900
24.746400 3.650500
24.765500 3.579800
24.784600 3.542600
24.803600 3.542100
24.822700 3.550700
24.841800 3.553300
24.860900 3.437100
24.880000 3.243800
24.899000 3.259700
24.918100 3.127500
24.937200 2.921900
24.956300 2.881300
24.975400 2.928400
24.994500 2.992600
25.013500 3.060300
25.032600 3.190300
25.051700 3.190500
25.070800 3.148100
25.089900 3.161500
25.108900 3.169800
25.128000 3.171200
25.147100 3.170700
25.166200 3.158400
25.185300 3.098400
25.204300 3.045400
25.223400 3.111900
25.242500 2.992900
25.261600 2.860300
25.280700 2.637400
25.299700 2.539100
25.318800 2.479500
25.337900 2.410700
25.357000 2.332700
25.376100 2.254600
25.395100 2.239900
25.414200 2.217000
25.433300 2.008200
25.452400 1.986200
25.471500 1.942000
25.490500 1.896800
25.509600 1.862100
25.528700 1.825700
25.547800 1.789600
25.566900 1.718200
25.585900 1.634000
25.605000 1.581600
25.624100 1.545600
25.643200 1.505900
25.662300 1.461000
25.681300 1.379600
25.700400 1.293700
25.719500 1.197400
25.738600 1.058700
25.757700 0.969300
25.776700 0.908200
25.795800 0.864000
25.814900 0.830000
25.834000 0.802200
25.853100 0.777900
25.872200 0.751400
25.891200 0.734600
25.910300 0.715300
25.929400 0.694200
25.948500 0.708700
25.967600 0.735400
25.986600 0.682800
26.005700 0.635900
26.024800 0.548600
26.043900 0.443100
26.063000 0.356600
26.082000 0.299000
26.101100 0.258800
26.120200 0.231600
26.139300 0.209500
26.158400 0.190700
26.177400 0.175200
26.196500 0.163200
26.215600 0.153200
26.234700 0.143000
26.253800 0.133700
26.272800 0.124700
26.291900 0.112600
26.311000 0.094200
26.330100 0.079600
26.349200 0.067600
26.368200 0.056700
26.387300 0.047000
26.406400 0.038800
26.425500 0.031700
26.444600 0.025700
26.463600 0.020600
26.482700 0.016500
26.501800 0.012700
26.520900 0.009100
26.540000 0.005900
26.559000 0.002900
26.578100 0.000200
26.597200 0.000000
26.616300 0.000000
26.635400 0.000000
26.654400 0.000000
26.673500 0.000000
26.692600 0.000000
26.711700 0.000000
26.730800 0.000000
26.749800 0.000000
26.768900 0.000000
26.788000 0.000000
26.807100 0.000000
26.826200 0.000000
26.845300 0.000000
26.864300 0.000000
26.883400 0.000000
26.902500 0.000000
26.921600 0.000000
26.940700 0.000000
26.959700 0.000000
26.978800 0.000000
26.997900 0.000000
27.017000 0.000000
27.036100 0.000000
27.055100 0.000000
27.074200 0.000000
27.093300 0.000000
27.112400 0.000000
27.131500 0.000000
27.150500 0.000000
27.169600 0.000000
27.188700 0.000000
27.207800 0.000000
27.226900 0.000000
27.245900 0.000000
27.265000 0.000000
27.284100 0.000000
27.303200 0.000000
27.322300 0.000000
27.341300 0.000000
27.360400 0.000000
27.379500 0.000000
27.398600 0.000000
27.417700 0.000000
27.436700 0.000000
27.455800 0.000000
27.474900 0.000000
27.494000 0.000000
27.513100 0.000000
27.532100 0.000000
27.551200 0.000000
27.570300 0.000000
27.589400 0.000000
27.608500 0.000000
27.627500 0.000000
27.646600 0.000000
27.665700 0.000000
27.684800 0.000000
27.703900 0.000000
27.722900 0.000000
27.742000 0.000000
27.761100 0.000000
27.780200 0.000000
27.799300 0.000000
27.818400 0.000000
27.837400 0.000000
27.856500 0.000000
27.875600 0.000000
27.894700 0.000000
27.913800 0.000000
27.932800 0.000000
27.951900 0.000000
27.971000 0.000000
27.990100 0.000000
28.009200 0.000000
28.028200 0.000000
28.047300 0.000000
28.066400 0.000000
28.085500 0.000000
28.104600 0.000000
28.123600 0.000000
28.142700 0.000000
28.161800 0.000000
28.180900 0.000000
28.200000 0.000000
28.219000 0.000000
28.238100 0.000000
28.257200 0.000000
28.276300 0.000000
28.295400 0.000000
28.314400 0.000000
e
