set title 'mp-971948 - Density of States'
set xlabel 'Energy (eV)'
set ylabel 'DOS (states/eV)'
set grid
set xrange [-10:10]
set yrange [0:18.198]
set xzeroaxis lt -1
set terminal png size 800,600
set output 'mp-971948_dos_gnuplot.png'
plot '-' using 1:2 with lines title 'DOS'
-8.909500 0.000000
-8.884700 0.000000
-8.859800 0.000000
-8.835000 0.000000
-8.810100 0.000000
-8.785200 0.000000
-8.760400 0.000000
-8.735500 0.000000
-8.710700 0.000000
-8.685800 0.000000
-8.661000 0.000000
-8.636100 0.000000
-8.611300 0.000000
-8.586400 0.000000
-8.561500 0.000000
-8.536700 0.000000
-8.511800 0.000000
-8.487000 0.000000
-8.462100 0.000000
-8.437300 0.000000
-8.412400 0.000000
-8.387600 0.000000
-8.362700 0.000000
-8.337800 0.000000
-8.313000 0.000000
-8.288100 0.000000
-8.263300 0.000000
-8.238400 0.000000
-8.213600 0.000000
-8.188700 0.000000
-8.163900 0.000000
-8.139000 0.000000
-8.114100 0.000000
-8.089300 0.000000
-8.064400 0.000000
-8.039600 0.000000
-8.014700 0.000000
-7.989900 0.000000
-7.965000 0.000000
-7.940100 0.000000
-7.915300 0.000000
-7.890400 0.000000
-7.865600 0.000000
-7.840700 0.000000
-7.815900 0.000000
-7.791000 0.000000
-7.766200 0.000000
-7.741300 0.000000
-7.716400 0.000000
-7.691600 0.000000
-7.666700 0.000000
-7.641900 0.000000
-7.617000 0.000000
-7.592200 0.000000
-7.567300 0.000000
-7.542500 0.000000
-7.517600 0.000000
-7.492700 0.000000
-7.467900 0.000000
-7.443000 0.000000
-7.418200 0.000000
-7.393300 0.000000
-7.368500 0.000000
-7.343600 0.000000
-7.318800 0.000000
-7.293900 0.000000
-7.269000 0.000000
-7.244200 0.000000
-7.219300 0.000000
-7.194500 0.000000
-7.169600 0.000000
-7.144800 0.000000
-7.119900 0.000000
-7.095000 0.000000
-7.070200 0.000000
-7.045300 0.000000
-7.020500 0.000000
-6.995600 0.000000
-6.970800 0.000000
-6.945900 0.000000
-6.921100 0.000000
-6.896200 0.000000
-6.871300 0.000000
-6.846500 0.000000
-6.821600 0.000000
-6.796800 0.000000
-6.771900 0.000000
-6.747100 0.000000
-6.722200 0.000000
-6.697400 0.000000
-6.672500 0.000000
-6.647600 0.000000
-6.622800 0.003800
-6.597900 0.016600
-6.573100 0.035100
-6.548200 0.048500
-6.523400 0.052600
-6.498500 0.057500
-6.473700 0.063300
-6.448800 0.070200
-6.423900 0.073400
-6.399100 0.079800
-6.374200 0.086600
-6.349400 0.092800
-6.324500 0.096900
-6.299700 0.098900
-6.274800 0.102800
-6.250000 0.106800
-6.225100 0.110300
-6.200200 0.113600
-6.175400 0.117000
-6.150500 0.120400
-6.125700 0.124300
-6.100800 0.128300
-6.076000 0.132500
-6.051100 0.137000
-6.026200 0.141800
-6.001400 0.146000
-5.976500 0.149300
-5.951700 0.152100
-5.926800 0.154700
-5.902000 0.157500
-5.877100 0.160700
-5.852300 0.164000
-5.827400 0.167300
-5.802500 0.170700
-5.777700 0.174000
-5.752800 0.177700
-5.728000 0.181500
-5.703100 0.185500
-5.678300 0.189600
-5.653400 0.193800
-5.628600 0.198000
-5.603700 0.202400
-5.578800 0.206800
-5.554000 0.211200
-5.529100 0.215200
-5.504300 0.219000
-5.479400 0.223000
-5.454600 0.227300
-5.429700 0.231700
-5.404900 0.236400
-5.380000 0.241300
-5.355100 0.246400
-5.330300 0.251700
-5.305400 0.257100
-5.280600 0.262700
-5.255700 0.269100
-5.230900 0.276100
-5.206000 0.283200
-5.181100 0.290700
-5.156300 0.298500
-5.131400 0.306600
-5.106600 0.315100
-5.081700 0.324400
-5.056900 0.335400
-5.032000 0.347100
-5.007200 0.360600
-4.982300 0.378100
-4.957400 0.392500
-4.932600 0.403900
-4.907700 0.414200
-4.882900 0.433700
-4.858000 0.450900
-4.833200 0.466700
-4.808300 0.481800
-4.783500 0.496200
-4.758600 0.512200
-4.733700 0.530500
-4.708900 0.555800
-4.684000 0.584000
-4.659200 0.615900
-4.634300 0.659300
-4.609500 0.718200
-4.584600 0.794000
-4.559800 1.067300
-4.534900 1.252300
-4.510000 1.499900
-4.485200 1.807600
-4.460300 2.344700
-4.435500 3.669700
-4.410600 4.228100
-4.385800 4.796500
-4.360900 5.765600
-4.336100 4.452000
-4.311200 4.611300
-4.286300 6.543900
-4.261500 7.624300
-4.236600 9.077500
-4.211800 7.882200
-4.186900 8.010400
-4.162100 8.731900
-4.137200 10.322400
-4.112300 10.541700
-4.087500 10.644100
-4.062600 13.032400
-4.037800 11.977600
-4.012900 13.167300
-3.988100 9.483700
-3.963200 9.982300
-3.938400 9.394400
-3.913500 10.347600
-3.888600 8.760500
-3.863800 7.391700
-3.838900 7.930800
-3.814100 5.712100
-3.789200 8.090400
-3.764400 9.218900
-3.739500 9.911000
-3.714700 7.358700
-3.689800 7.649600
-3.664900 8.204100
-3.640100 9.996900
-3.615200 7.909200
-3.590400 13.304100
-3.565500 11.069200
-3.540700 11.659300
-3.515800 10.883400
-3.491000 16.543300
-3.466100 12.022000
-3.441200 11.606700
-3.416400 10.474600
-3.391500 12.553100
-3.366700 14.074800
-3.341800 15.774100
-3.317000 14.315700
-3.292100 8.211200
-3.267300 15.627400
-3.242400 10.808400
-3.217500 8.853200
-3.192700 9.975600
-3.167800 10.017800
-3.143000 10.145900
-3.118100 8.757500
-3.093300 8.623800
-3.068400 8.789000
-3.043500 7.577200
-3.018700 14.328100
-2.993800 9.642100
-2.969000 6.207200
-2.944100 4.366400
-2.919300 4.706800
-2.894400 4.241400
-2.869600 2.516800
-2.844700 2.190400
-2.819800 1.880300
-2.795000 1.553400
-2.770100 1.323200
-2.745300 1.252300
-2.720400 0.677700
-2.695600 0.634700
-2.670700 0.619800
-2.645900 0.604700
-2.621000 0.591800
-2.596100 0.566800
-2.571300 0.553700
-2.546400 0.545100
-2.521600 0.545400
-2.496700 0.547100
-2.471900 0.535300
-2.447000 0.510200
-2.422200 0.487900
-2.397300 0.466200
-2.372400 0.452300
-2.347600 0.441200
-2.322700 0.431500
-2.297900 0.423100
-2.273000 0.415200
-2.248200 0.409300
-2.223300 0.405700
-2.198400 0.384700
-2.173600 0.367400
-2.148700 0.356200
-2.123900 0.346500
-2.099000 0.345100
-2.074200 0.352400
-2.049300 0.362400
-2.024500 0.374000
-1.999600 0.392800
-1.974700 0.401300
-1.949900 0.406700
-1.925000 0.409200
-1.900200 0.414200
-1.875300 0.423300
-1.850500 0.435600
-1.825600 0.448300
-1.800800 0.460700
-1.775900 0.480300
-1.751000 0.510700
-1.726200 0.537600
-1.701300 0.548100
-1.676500 0.547000
-1.651600 0.545500
-1.626800 0.538300
-1.601900 0.532600
-1.577100 0.526000
-1.552200 0.517400
-1.527300 0.509800
-1.502500 0.504400
-1.477600 0.496400
-1.452800 0.487900
-1.427900 0.483200
-1.403100 0.484600
-1.378200 0.487300
-1.353400 0.490800
-1.328500 0.494600
-1.303600 0.507200
-1.278800 0.513400
-1.253900 0.505500
-1.229100 0.497200
-1.204200 0.488100
-1.179400 0.478400
-1.154500 0.467900
-1.129600 0.454600
-1.104800 0.455800
-1.079900 0.424700
-1.055100 0.402000
-1.030200 0.389900
-1.005400 0.390300
-0.980500 0.393700
-0.955700 0.396600
-0.930800 0.399200
-0.905900 0.402500
-0.881100 0.406400
-0.856200 0.410200
-0.831400 0.413900
-0.806500 0.417400
-0.781700 0.420700
-0.756800 0.423800
-0.732000 0.426800
-0.707100 0.428600
-0.682200 0.431600
-0.657400 0.438700
-0.632500 0.454900
-0.607700 0.458100
-0.582800 0.458800
-0.558000 0.459100
-0.533100 0.459700
-0.508300 0.460600
-0.483400 0.462500
-0.458500 0.463900
-0.433700 0.465100
-0.408800 0.465900
-0.384000 0.467900
-0.359100 0.470100
-0.334300 0.472400
-0.309400 0.474100
-0.284500 0.475600
-0.259700 0.477000
-0.234800 0.478300
-0.210000 0.479500
-0.185100 0.480600
-0.160300 0.482000
-0.135400 0.483700
-0.110600 0.486400
-0.085700 0.493000
-0.060800 0.518900
-0.036000 0.497300
-0.011100 0.502100
0.013700 0.508600
0.038600 0.517100
0.063400 0.525900
0.088300 0.534600
0.113100 0.541600
0.138000 0.547900
0.162900 0.557700
0.187700 0.572000
0.212600 0.574000
0.237400 0.575300
0.262300 0.578700
0.287100 0.595800
0.312000 0.616300
0.336800 0.625000
0.361700 0.633800
0.386600 0.644700
0.411400 0.658400
0.436300 0.667500
0.461100 0.659400
0.486000 0.671500
0.510800 0.690100
0.535700 0.706800
0.560500 0.711000
0.585400 0.727300
0.610300 0.742900
0.635100 0.757200
0.660000 0.774700
0.684800 0.800500
0.709700 0.834800
0.734500 0.882500
0.759400 0.932000
0.784300 0.946200
0.809100 0.929300
0.834000 0.935900
0.858800 0.941100
0.883700 0.955000
0.908500 0.979300
0.933400 0.966600
0.958200 0.962000
0.983100 0.966600
1.008000 0.967400
1.032800 0.979700
1.057700 0.999800
1.082500 1.013100
1.107400 1.010200
1.132200 1.007500
1.157100 1.003100
1.181900 0.949800
1.206800 0.945900
1.231700 0.937300
1.256500 0.913800
1.281400 0.874300
1.306200 0.892500
1.331100 0.909300
1.355900 0.977800
1.380800 1.063600
1.405600 1.309300
1.430500 1.649500
1.455400 1.695900
1.480200 1.731100
1.505100 1.674800
1.529900 1.519700
1.554800 1.402000
1.579600 1.375200
1.604500 1.388600
1.629300 1.506700
1.654200 1.481600
1.679100 1.637300
1.703900 1.806600
1.728800 1.528800
1.753600 1.508600
1.778500 1.597500
1.803300 1.787400
1.828200 2.313900
1.853100 2.457700
1.877900 2.170900
1.902800 2.244100
1.927600 2.175400
1.952500 2.160500
1.977300 2.105100
2.002200 2.096500
2.027000 2.389500
2.051900 2.580900
2.076800 2.878300
2.101600 3.707900
2.126500 4.056700
2.151300 4.066500
2.176200 4.074700
2.201000 4.103500
2.225900 4.583500
2.250700 7.100000
2.275600 6.591600
2.300500 5.022500
2.325300 4.477200
2.350200 4.311400
2.375000 3.680000
2.399900 3.728200
2.424700 3.432900
2.449600 2.833000
2.474400 2.310700
2.499300 2.210800
2.524200 2.651700
2.549000 3.125100
2.573900 4.393000
2.598700 5.038500
2.623600 6.286500
2.648400 5.462200
2.673300 2.614700
2.698200 2.367300
2.723000 2.146700
2.747900 1.975800
2.772700 1.898800
2.797600 1.798900
2.822400 1.646700
2.847300 1.543300
2.872100 1.478500
2.897000 1.427600
2.921900 1.392200
2.946700 1.372600
2.971600 1.334300
2.996400 1.273500
3.021300 1.219900
3.046100 1.176300
3.071000 1.132700
3.095800 1.096000
3.120700 1.054300
3.145600 1.009400
3.170400 0.977200
3.195300 0.948500
3.220100 0.917800
3.245000 0.881500
3.269800 0.868500
3.294700 0.870600
3.319500 0.859100
3.344400 0.852900
3.369300 0.856800
3.394100 0.872700
3.419000 0.903400
3.443800 0.925000
3.468700 0.947700
3.493500 0.847600
3.518400 0.816900
3.543200 0.782700
3.568100 0.782100
3.593000 0.782600
3.617800 0.730200
3.642700 0.705400
3.667500 0.687300
3.692400 0.670300
3.717200 0.657300
3.742100 0.632000
3.767000 0.617000
3.791800 0.601400
3.816700 0.589400
3.841500 0.572700
3.866400 0.560200
3.891200 0.549200
3.916100 0.538700
3.940900 0.531400
3.965800 0.522200
3.990700 0.512800
4.015500 0.504700
4.040400 0.495500
4.065200 0.492100
4.090100 0.483200
4.114900 0.470100
4.139800 0.455200
4.164600 0.440400
4.189500 0.436400
4.214400 0.433200
4.239200 0.431700
4.264100 0.430400
4.288900 0.427400
4.313800 0.421900
4.338600 0.416100
4.363500 0.410900
4.388300 0.407100
4.413200 0.403500
4.438100 0.400000
4.462900 0.398000
4.487800 0.396500
4.512600 0.395200
4.537500 0.394000
4.562300 0.394700
4.587200 0.397200
4.612100 0.403000
4.636900 0.401400
4.661800 0.399400
4.686600 0.397200
4.711500 0.393100
4.736300 0.399700
4.761200 0.434500
4.786000 0.500900
4.810900 0.562600
4.835800 0.610200
4.860600 0.643800
4.885500 0.675500
4.910300 0.694300
4.935200 0.695300
4.960000 0.654700
4.984900 0.624600
5.009700 0.604800
5.034600 0.587100
5.059500 0.588100
5.084300 0.554800
5.109200 0.533600
5.134000 0.519400
5.158900 0.512900
5.183700 0.512700
5.208600 0.518400
5.233400 0.535200
5.258300 0.545700
5.283200 0.567700
5.308000 0.568200
5.332900 0.563500
5.357700 0.574000
5.382600 0.615600
5.407400 0.659400
5.432300 0.664000
5.457100 0.688500
5.482000 0.694200
5.506900 0.715600
5.531700 0.724000
5.556600 0.704600
5.581400 0.675300
5.606300 0.657400
5.631100 0.650800
5.656000 0.652600
5.680900 0.657200
5.705700 0.663800
5.730600 0.636600
5.755400 0.620400
5.780300 0.608700
5.805100 0.602000
5.830000 0.596600
5.854800 0.587400
5.879700 0.576000
5.904600 0.573200
5.929400 0.576000
5.954300 0.581900
5.979100 0.591200
6.004000 0.603900
6.028800 0.618500
6.053700 0.622100
6.078500 0.638900
6.103400 0.657500
6.128300 0.703600
6.153100 0.676700
6.178000 0.676100
6.202800 0.676600
6.227700 0.668600
6.252500 0.655300
6.277400 0.643100
6.302200 0.624600
6.327100 0.620300
6.352000 0.617400
6.376800 0.614700
6.401700 0.605900
6.426500 0.599900
6.451400 0.588200
6.476200 0.577700
6.501100 0.574600
6.525900 0.566700
6.550800 0.567300
6.575700 0.562200
6.600500 0.560300
6.625400 0.562500
6.650200 0.568000
6.675100 0.571200
6.699900 0.574300
6.724800 0.576700
6.749700 0.578600
6.774500 0.580300
6.799400 0.585400
6.824200 0.589100
6.849100 0.589300
6.873900 0.596400
6.898800 0.610400
6.923600 0.610900
6.948500 0.613800
6.973400 0.617300
6.998200 0.617100
7.023100 0.621000
7.047900 0.622900
7.072800 0.623700
7.097600 0.625000
7.122500 0.626700
7.147300 0.629400
7.172200 0.629800
7.197100 0.644900
7.221900 0.632000
7.246800 0.630600
7.271600 0.629400
7.296500 0.626800
7.321300 0.621600
7.346200 0.615200
7.371000 0.608700
7.395900 0.605600
7.420800 0.606200
7.445600 0.608500
7.470500 0.618400
7.495300 0.620000
7.520200 0.621300
7.545000 0.622100
7.569900 0.623100
7.594800 0.624600
7.619600 0.626900
7.644500 0.630000
7.669300 0.634500
7.694200 0.623600
7.719000 0.622400
7.743900 0.620800
7.768700 0.620600
7.793600 0.621600
7.818500 0.623100
7.843300 0.625100
7.868200 0.627400
7.893000 0.618100
7.917900 0.613200
7.942700 0.610700
7.967600 0.607300
7.992400 0.603100
8.017300 0.593900
8.042200 0.585400
8.067000 0.578100
8.091900 0.570800
8.116700 0.565100
8.141600 0.561900
8.166400 0.573300
8.191300 0.571700
8.216100 0.570500
8.241000 0.569700
8.265900 0.568300
8.290700 0.568200
8.315600 0.568100
8.340400 0.568400
8.365300 0.568800
8.390100 0.563200
8.415000 0.563600
8.439800 0.564600
8.464700 0.566500
8.489600 0.568300
8.514400 0.570000
8.539300 0.571500
8.564100 0.573600
8.589000 0.576000
8.613800 0.580600
8.638700 0.586900
8.663600 0.594000
8.688400 0.600300
8.713300 0.605800
8.738100 0.613700
8.763000 0.622000
8.787800 0.624300
8.812700 0.632200
8.837500 0.647700
8.862400 0.660500
8.887300 0.672900
8.912100 0.684500
8.937000 0.683400
8.961800 0.688100
8.986700 0.688400
9.011500 0.685500
9.036400 0.685000
9.061200 0.681600
9.086100 0.680600
9.111000 0.678700
9.135800 0.676700
9.160700 0.675300
9.185500 0.675100
9.210400 0.677800
9.235200 0.683400
9.260100 0.689200
9.284900 0.695700
9.309800 0.698700
9.334700 0.701500
9.359500 0.704800
9.384400 0.711500
9.409200 0.719200
9.434100 0.727200
9.458900 0.734800
9.483800 0.742100
9.508700 0.748800
9.533500 0.756900
9.558400 0.769900
9.583200 0.775900
9.608100 0.780700
9.632900 0.787600
9.657800 0.793900
9.682600 0.801200
9.707500 0.807800
9.732400 0.809700
9.757200 0.810300
9.782100 0.810000
9.806900 0.804900
9.831800 0.803800
9.856600 0.801800
9.881500 0.802800
9.906300 0.814400
9.931200 0.807400
9.956100 0.804500
9.980900 0.806100
10.005800 0.803200
10.030600 0.799300
10.055500 0.797300
10.080300 0.789500
10.105200 0.785600
10.130000 0.785300
10.154900 0.784600
10.179800 0.780200
10.204600 0.735500
10.229500 0.725700
10.254300 0.720000
10.279200 0.716500
10.304000 0.717500
10.328900 0.722000
10.353700 0.719700
10.378600 0.717100
10.403500 0.715800
10.428300 0.714300
10.453200 0.713400
10.478000 0.713300
10.502900 0.717800
10.527700 0.727500
10.552600 0.730200
10.577500 0.729100
10.602300 0.720300
10.627200 0.709300
10.652000 0.697600
10.676900 0.685200
10.701700 0.674600
10.726600 0.665000
10.751400 0.661000
10.776300 0.664600
10.801200 0.668700
10.826000 0.671600
10.850900 0.671500
10.875700 0.669300
10.900600 0.666800
10.925400 0.662200
10.950300 0.656000
10.975100 0.649100
11.000000 0.662300
11.024900 0.640300
11.049700 0.632000
11.074600 0.627800
11.099400 0.624000
11.124300 0.637800
11.149100 0.662100
11.174000 0.672000
11.198800 0.686000
11.223700 0.660200
11.248600 0.651700
11.273400 0.651000
11.298300 0.661500
11.323100 0.658200
11.348000 0.646500
11.372800 0.641500
11.397700 0.663900
11.422500 0.674600
11.447400 0.678400
11.472300 0.683700
11.497100 0.687600
11.522000 0.697800
11.546800 0.706700
11.571700 0.713000
11.596500 0.718000
11.621400 0.723700
11.646300 0.729900
11.671100 0.737100
11.696000 0.765700
11.720800 0.777400
11.745700 0.779700
11.770500 0.794000
11.795400 0.766000
11.820200 0.775400
11.845100 0.780200
11.870000 0.781700
11.894800 0.780700
11.919700 0.778200
11.944500 0.775200
11.969400 0.774200
11.994200 0.777600
12.019100 0.790400
12.043900 0.758000
12.068800 0.751600
12.093700 0.747900
12.118500 0.746500
12.143400 0.747300
12.168200 0.745700
12.193100 0.755000
12.217900 0.770800
12.242800 0.791500
12.267600 0.817200
12.292500 0.848600
12.317400 0.888800
12.342200 0.894900
12.367100 0.864100
12.391900 0.848000
12.416800 0.838800
12.441600 0.833100
12.466500 0.827500
12.491400 0.824300
12.516200 0.820800
12.541100 0.824900
12.565900 0.841300
12.590800 0.856200
12.615600 0.846900
12.640500 0.837600
12.665300 0.827600
12.690200 0.817000
12.715100 0.812700
12.739900 0.808400
12.764800 0.802700
12.789600 0.799500
12.814500 0.801700
12.839300 0.807900
12.864200 0.817300
12.889000 0.820500
12.913900 0.815400
12.938800 0.815800
12.963600 0.815900
12.988500 0.812800
13.013300 0.811100
13.038200 0.810900
13.063000 0.814700
13.087900 0.834800
13.112700 0.921300
13.137600 0.927300
13.162500 0.849900
13.187300 0.852700
13.212200 0.857300
13.237000 0.863900
13.261900 0.869300
13.286700 0.872400
13.311600 0.873100
13.336400 0.873000
13.361300 0.872000
13.386200 0.872300
13.411000 0.875100
13.435900 0.880200
13.460700 0.927000
13.485600 0.933200
13.510400 0.909300
13.535300 0.888500
13.560200 0.870900
13.585000 0.855700
13.609900 0.844800
13.634700 0.839700
13.659600 0.842900
13.684400 0.841300
13.709300 0.851700
13.734100 0.862000
13.759000 0.859000
13.783900 0.859500
13.808700 0.857900
13.833600 0.861800
13.858400 0.873800
13.883300 0.887400
13.908100 0.894200
13.933000 0.903200
13.957800 0.902900
13.982700 0.901100
14.007600 0.895200
14.032400 0.884900
14.057300 0.875300
14.082100 0.854200
14.107000 0.845200
14.131800 0.839000
14.156700 0.832900
14.181500 0.826600
14.206400 0.829400
14.231300 0.844500
14.256100 0.855700
14.281000 0.851500
14.305800 0.852700
14.330700 0.857300
14.355500 0.860000
14.380400 0.862400
14.405200 0.866500
14.430100 0.870400
14.455000 0.877400
14.479800 0.890900
14.504700 0.898300
14.529500 0.890800
14.554400 0.869000
14.579200 0.854700
14.604100 0.845300
14.629000 0.840900
14.653800 0.839900
14.678700 0.841600
14.703500 0.855000
14.728400 0.874400
14.753200 0.879600
14.778100 0.886400
14.802900 0.894000
14.827800 0.903700
14.852700 0.914700
14.877500 0.926300
14.902400 0.940700
14.927200 0.964100
14.952100 0.946700
14.976900 0.879100
15.001800 0.818400
15.026600 0.782200
15.051500 0.780500
15.076400 0.795700
15.101200 0.819300
15.126100 0.831900
15.150900 0.816900
15.175800 0.791100
15.200600 0.778900
15.225500 0.784000
15.250300 0.789000
15.275200 0.790700
15.300100 0.794900
15.324900 0.800900
15.349800 0.813900
15.374600 0.820100
15.399500 0.824200
15.424300 0.828600
15.449200 0.831300
15.474100 0.839300
15.498900 0.853300
15.523800 0.869700
15.548600 0.868700
15.573500 0.871500
15.598300 0.883000
15.623200 0.882500
15.648000 0.876200
15.672900 0.868200
15.697800 0.863400
15.722600 0.863500
15.747500 0.862500
15.772300 0.863600
15.797200 0.865500
15.822000 0.870600
15.846900 0.875700
15.871700 0.880100
15.896600 0.882800
15.921500 0.881800
15.946300 0.880300
15.971200 0.877400
15.996000 0.876000
16.020900 0.885900
16.045700 0.920600
16.070600 0.844200
16.095400 0.842000
16.120300 0.839300
16.145200 0.837000
16.170000 0.871100
16.194900 0.872300
16.219700 0.867900
16.244600 0.868500
16.269400 0.869900
16.294300 0.871200
16.319100 0.873200
16.344000 0.868700
16.368900 0.867500
16.393700 0.868200
16.418600 0.883800
16.443400 0.873600
16.468300 0.865900
16.493100 0.856200
16.518000 0.852900
16.542900 0.849900
16.567700 0.845300
16.592600 0.847200
16.617400 0.838000
16.642300 0.827600
16.667100 0.816300
16.692000 0.805400
16.716800 0.795000
16.741700 0.781100
16.766600 0.769600
16.791400 0.759300
16.816300 0.751000
16.841100 0.742100
16.866000 0.734500
16.890800 0.727600
16.915700 0.722700
16.940500 0.718800
16.965400 0.717500
16.990300 0.717100
17.015100 0.718000
17.040000 0.717600
17.064800 0.718000
17.089700 0.717800
17.114500 0.718400
17.139400 0.719600
17.164200 0.720200
17.189100 0.720800
17.214000 0.722100
17.238800 0.723100
17.263700 0.725500
17.288500 0.732700
17.313400 0.738100
17.338200 0.740900
17.363100 0.739900
17.388000 0.739700
17.412800 0.741400
17.437700 0.743800
17.462500 0.747900
17.487400 0.762600
17.512200 0.804300
17.537100 0.790300
17.561900 0.790200
17.586800 0.781300
17.611700 0.771000
17.636500 0.756700
17.661400 0.750300
17.686200 0.744400
17.711100 0.738300
17.735900 0.741100
17.760800 0.735500
17.785600 0.731900
17.810500 0.731500
17.835400 0.735300
17.860200 0.739100
17.885100 0.743500
17.909900 0.748500
17.934800 0.750200
17.959600 0.742500
17.984500 0.739200
18.009300 0.715000
18.034200 0.702400
18.059100 0.690800
18.083900 0.679700
18.108800 0.674200
18.133600 0.674400
18.158500 0.671700
18.183300 0.671400
18.208200 0.674200
18.233000 0.677300
18.257900 0.681700
18.282800 0.687500
18.307600 0.693300
18.332500 0.695700
18.357300 0.697400
18.382200 0.699200
18.407000 0.700900
18.431900 0.703300
18.456800 0.706500
18.481600 0.704800
18.506500 0.707800
18.531300 0.714600
18.556200 0.724700
18.581000 0.715200
18.605900 0.703000
18.630700 0.695600
18.655600 0.696000
18.680500 0.698000
18.705300 0.690100
18.730200 0.685200
18.755000 0.682900
18.779900 0.681600
18.804700 0.682500
18.829600 0.680700
18.854400 0.679600
18.879300 0.685700
18.904200 0.696100
18.929000 0.699300
18.953900 0.702200
18.978700 0.707800
19.003600 0.711600
19.028400 0.713600
19.053300 0.713500
19.078100 0.716100
19.103000 0.717000
19.127900 0.717600
19.152700 0.718700
19.177600 0.721200
19.202400 0.723300
19.227300 0.724100
19.252100 0.728900
19.277000 0.735900
19.301800 0.746400
19.326700 0.759700
19.351600 0.760300
19.376400 0.763300
19.401300 0.765900
19.426100 0.766400
19.451000 0.767200
19.475800 0.772200
19.500700 0.778100
19.525600 0.783100
19.550400 0.787000
19.575300 0.792600
19.600100 0.787200
19.625000 0.784500
19.649800 0.784300
19.674700 0.785400
19.699500 0.789800
19.724400 0.797600
19.749300 0.806000
19.774100 0.817100
19.799000 0.825400
19.823800 0.832500
19.848700 0.840300
19.873500 0.850500
19.898400 0.853100
19.923200 0.864100
19.948100 0.874900
19.973000 0.886400
19.997800 0.895500
20.022700 0.915400
20.047500 0.927400
20.072400 0.937000
20.097200 0.944100
20.122100 0.948600
20.146900 0.961900
20.171800 0.972400
20.196700 0.979000
20.221500 0.997900
20.246400 0.978400
20.271200 0.947300
20.296100 0.929000
20.320900 0.909500
20.345800 0.893600
20.370700 0.887900
20.395500 0.883700
20.420400 0.877400
20.445200 0.869900
20.470100 0.862400
20.494900 0.859900
20.519800 0.893300
20.544600 0.890200
20.569500 0.875100
20.594400 0.865100
20.619200 0.862700
20.644100 0.861700
20.668900 0.861500
20.693800 0.862400
20.718600 0.864800
20.743500 0.869900
20.768300 0.879100
20.793200 0.882500
20.818100 0.885500
20.842900 0.889800
20.867800 0.896500
20.892600 0.902400
20.917500 0.898100
20.942300 0.902000
20.967200 0.908200
20.992000 0.917300
21.016900 0.928500
21.041800 0.942800
21.066600 0.958800
21.091500 0.973800
21.116300 0.992400
21.141200 1.011200
21.166000 1.028800
21.190900 1.050900
21.215700 1.057500
21.240600 1.058700
21.265500 1.056500
21.290300 1.045600
21.315200 1.086300
21.340000 1.104900
21.364900 1.118100
21.389700 1.115500
21.414600 1.009700
21.439500 0.995200
21.464300 0.987000
21.489200 0.980100
21.514000 0.983800
21.538900 0.983600
21.563700 0.987700
21.588600 0.988800
21.613400 0.985900
21.638300 0.980300
21.663200 0.979400
21.688000 0.979400
21.712900 0.987900
21.737700 0.981000
21.762600 0.967300
21.787400 0.956000
21.812300 0.947800
21.837100 0.942600
21.862000 0.936900
21.886900 0.935600
21.911700 0.947200
21.936600 0.960600
21.961400 0.980200
21.986300 1.001100
22.011100 1.022100
22.036000 1.046500
22.060800 1.067300
22.085700 1.079600
22.110600 1.083700
22.135400 1.087000
22.160300 1.060400
22.185100 1.060000
22.210000 1.056500
22.234800 1.084500
22.259700 1.062400
22.284600 1.038000
22.309400 1.024100
22.334300 1.000100
22.359100 0.983800
22.384000 0.975400
22.408800 0.947600
22.433700 0.939900
22.458500 0.935900
22.483400 0.934500
22.508300 0.936600
22.533100 0.937100
22.558000 0.939900
22.582800 0.937500
22.607700 0.930400
22.632500 0.931300
22.657400 0.932200
22.682200 0.941400
22.707100 0.952500
22.732000 0.955200
22.756800 0.962100
22.781700 0.973400
22.806500 0.983700
22.831400 0.992400
22.856200 0.998400
22.881100 1.011800
22.905900 1.022400
22.930800 1.031500
22.955700 1.045000
22.980500 1.061600
23.005400 1.059400
23.030200 1.045300
23.055100 1.044100
23.079900 1.049300
23.104800 1.051900
23.129600 1.057300
23.154500 1.064600
23.179400 1.079100
23.204200 1.103000
23.229100 1.129800
23.253900 1.157300
23.278800 1.175600
23.303600 1.180300
23.328500 1.172300
23.353400 1.154300
23.378200 1.133400
23.403100 1.115000
23.427900 1.109800
23.452800 1.119700
23.477600 1.139500
23.502500 1.162100
23.527300 1.179900
23.552200 1.215300
23.577100 1.192500
23.601900 1.128300
23.626800 1.074500
23.651600 1.058500
23.676500 1.032600
23.701300 1.005400
23.726200 1.005400
23.751000 0.968800
23.775900 0.928400
23.800800 0.890600
23.825600 0.865500
23.850500 0.839500
23.875300 0.809500
23.900200 0.789800
23.925000 0.779400
23.949900 0.773300
23.974700 0.770500
23.999600 0.771700
24.024500 0.781400
24.049300 0.795600
24.074200 0.815300
24.099000 0.840500
24.123900 0.881600
24.148700 0.903500
24.173600 0.957200
24.198400 0.952500
24.223300 0.950000
24.248200 0.980400
24.273000 0.987300
24.297900 0.994200
24.322700 0.926300
24.347600 0.905300
24.372400 0.910200
24.397300 0.915500
24.422200 0.920500
24.447000 0.922300
24.471900 0.924200
24.496700 0.922400
24.521600 0.921500
24.546400 0.919600
24.571300 0.920400
24.596100 0.927500
24.621000 0.937500
24.645900 0.949800
24.670700 0.957900
24.695600 0.962900
24.720400 0.970500
24.745300 0.979900
24.770100 0.990500
24.795000 1.028800
24.819800 1.045400
24.844700 1.045900
24.869600 1.041200
24.894400 1.034000
24.919300 1.024300
24.944100 1.018700
24.969000 1.019400
24.993800 1.019800
25.018700 1.002000
25.043500 0.965700
25.068400 0.951800
25.093300 0.940500
25.118100 0.935300
25.143000 0.937200
25.167800 0.961000
25.192700 0.992600
25.217500 1.058600
25.242400 1.103400
25.267300 1.145200
25.292100 1.174300
25.317000 1.214100
25.341800 1.279400
25.366700 1.303700
25.391500 1.317200
25.416400 1.360100
25.441200 1.359200
25.466100 1.335100
25.491000 1.296000
25.515800 1.252200
25.540700 1.229500
25.565500 1.193100
25.590400 1.165600
25.615200 1.133400
25.640100 1.096300
25.664900 1.050500
25.689800 1.001900
25.714700 0.972000
25.739500 0.957000
25.764400 0.950800
25.789200 0.946300
25.814100 0.939900
25.838900 0.937200
25.863800 0.917000
25.888600 0.889700
25.913500 0.881500
25.938400 0.882400
25.963200 0.877900
25.988100 0.878100
26.012900 0.890800
26.037800 0.904500
26.062600 0.921800
26.087500 0.945600
26.112300 0.973500
26.137200 1.007700
26.162100 1.022900
26.186900 1.042500
26.211800 1.044200
26.236600 1.011400
26.261500 0.986900
26.286300 0.968700
26.311200 0.951200
26.336100 0.937700
26.360900 0.924100
26.385800 0.914000
26.410600 0.906200
26.435500 0.927000
26.460300 0.913400
26.485200 0.904700
26.510000 0.902100
26.534900 0.899100
26.559800 0.895600
26.584600 0.897500
26.609500 0.920700
26.634300 0.953300
26.659200 0.909800
26.684000 0.893400
26.708900 0.888000
26.733700 0.888600
26.758600 0.892500
26.783500 0.913500
26.808300 0.914200
26.833200 0.911900
26.858000 0.927500
26.882900 0.938500
26.907700 0.921600
26.932600 0.913600
26.957400 0.911600
26.982300 0.912200
27.007200 0.913400
27.032000 0.913800
27.056900 0.913400
27.081700 0.912500
27.106600 0.914400
27.131400 0.916100
27.156300 0.915700
27.181200 0.919800
27.206000 0.917100
27.230900 0.913100
27.255700 0.908800
27.280600 0.905400
27.305400 0.902500
27.330300 0.899900
27.355100 0.896200
27.380000 0.887900
27.404900 0.889300
27.429700 0.868400
27.454600 0.859900
27.479400 0.853500
27.504300 0.849700
27.529100 0.846900
27.554000 0.841000
27.578800 0.834400
27.603700 0.821200
27.628600 0.813000
27.653400 0.804100
27.678300 0.796800
27.703100 0.786900
27.728000 0.756400
27.752800 0.753700
27.777700 0.752000
27.802500 0.748100
27.827400 0.746300
27.852300 0.747100
27.877100 0.750200
27.902000 0.755400
27.926800 0.757900
27.951700 0.762600
27.976500 0.770600
28.001400 0.772600
28.026200 0.786700
28.051100 0.802200
28.076000 0.836300
28.100800 0.875300
28.125700 0.887700
28.150500 0.908000
28.175400 0.902700
28.200200 0.910500
28.225100 0.910100
28.250000 0.918100
28.274800 0.927800
28.299700 0.942200
28.324500 0.959600
28.349400 0.995700
28.374200 1.064200
28.399100 1.038200
28.423900 1.021700
28.448800 1.007500
28.473700 1.033000
28.498500 1.048300
28.523400 1.051000
28.548200 1.042500
28.573100 1.025300
28.597900 1.013400
28.622800 1.009600
28.647600 0.984500
28.672500 0.967400
28.697400 0.952600
28.722200 0.941100
28.747100 0.939900
28.771900 0.930000
28.796800 0.959500
28.821600 0.921200
28.846500 0.900400
28.871300 0.890500
28.896200 0.884200
28.921100 0.882400
28.945900 0.881300
28.970800 0.880000
28.995600 0.878800
29.020500 0.879000
29.045300 0.879000
29.070200 0.881300
29.095000 0.890100
29.119900 0.896400
29.144800 0.903100
29.169600 0.912400
29.194500 0.910700
29.219300 0.915100
29.244200 0.924900
29.269000 0.949000
29.293900 0.942700
29.318800 0.961500
29.343600 0.982100
29.368500 1.000700
29.393300 1.017200
29.418200 1.034500
29.443000 1.049900
29.467900 1.038200
29.492700 1.044400
29.517600 1.068100
29.542500 1.106300
29.567300 1.150900
29.592200 1.200900
29.617000 1.238200
29.641900 1.216700
29.666700 1.192800
29.691600 1.202100
29.716400 1.242700
29.741300 1.256600
29.766200 1.261300
29.791000 1.258300
29.815900 1.261100
29.840700 1.263600
29.865600 1.270300
29.890400 1.246200
29.915300 1.204600
29.940100 1.191700
29.965000 1.185000
29.989900 1.183200
30.014700 1.199500
30.039600 1.188500
30.064400 1.152100
30.089300 1.130000
30.114100 1.111400
30.139000 1.087300
30.163900 1.038200
30.188700 1.013600
30.213600 0.992100
30.238400 0.982100
30.263300 0.975300
30.288100 0.970600
30.313000 0.967200
30.337800 0.963400
30.362700 0.964900
30.387600 0.972800
30.412400 0.988200
30.437300 1.007900
30.462100 1.020800
30.487000 1.026100
30.511800 1.035900
30.536700 1.037000
30.561500 1.035400
30.586400 1.034500
30.611300 1.038200
30.636100 1.038300
30.661000 1.038000
30.685800 1.037200
30.710700 1.031700
30.735500 1.018500
30.760400 1.003400
30.785200 0.993400
30.810100 0.980100
30.835000 0.965300
30.859800 0.954800
30.884700 0.948400
30.909500 0.943400
30.934400 0.945900
30.959200 0.937800
30.984100 0.933800
31.008900 0.930700
31.033800 0.931400
31.058700 0.934200
31.083500 0.941600
31.108400 0.949200
31.133200 0.958000
31.158100 0.967200
31.182900 0.977700
31.207800 0.987500
31.232700 0.997300
31.257500 1.009100
31.282400 1.022500
31.307200 1.040100
31.332100 1.058500
31.356900 1.071300
31.381800 1.078300
31.406600 1.084100
31.431500 1.083000
31.456400 1.086300
31.481200 1.088200
31.506100 1.089600
31.530900 1.093900
31.555800 1.099900
31.580600 1.102400
31.605500 1.093000
31.630300 1.078500
31.655200 1.065000
31.680100 1.065000
31.704900 1.061300
31.729800 1.038100
31.754600 1.034900
31.779500 1.031100
31.804300 1.027200
31.829200 1.021300
31.854000 1.013000
31.878900 1.009900
31.903800 1.015800
31.928600 1.084100
31.953500 1.055000
31.978300 1.058600
32.003200 1.049800
32.028000 1.040000
32.052900 1.035700
32.077800 1.026500
32.102600 1.015300
32.127500 1.001400
32.152300 0.984800
32.177200 0.966400
32.202000 0.947800
32.226900 0.930700
32.251700 0.917300
32.276600 0.898800
32.301500 0.881100
32.326300 0.861200
32.351200 0.846500
32.376000 0.829900
32.400900 0.818100
32.425700 0.809800
32.450600 0.794000
32.475400 0.787900
32.500300 0.785300
32.525200 0.785400
32.550000 0.787200
32.574900 0.787800
32.599700 0.788600
32.624600 0.790400
32.649400 0.793800
32.674300 0.796000
32.699100 0.806100
32.724000 0.798900
32.748900 0.785400
32.773700 0.782000
32.798600 0.786500
32.823400 0.791500
32.848300 0.793700
32.873100 0.792800
32.898000 0.796200
32.922800 0.798500
32.947700 0.803200
32.972600 0.809600
32.997400 0.811400
33.022300 0.809100
33.047100 0.824700
33.072000 0.828000
33.096800 0.823100
33.121700 0.752300
33.146600 0.726600
33.171400 0.695400
33.196300 0.668300
33.221100 0.646900
33.246000 0.629100
33.270800 0.613600
33.295700 0.596600
33.320500 0.579400
33.345400 0.562700
33.370300 0.548600
33.395100 0.535800
33.420000 0.524000
33.444800 0.513300
33.469700 0.503500
33.494500 0.494500
33.519400 0.486000
33.544200 0.478200
33.569100 0.471400
33.594000 0.465000
33.618800 0.459700
33.643700 0.457500
33.668500 0.456000
33.693400 0.455100
33.718200 0.454400
33.743100 0.462200
33.767900 0.464300
33.792800 0.456800
33.817700 0.448800
33.842500 0.440300
33.867400 0.429500
33.892200 0.416800
33.917100 0.401700
33.941900 0.385300
33.966800 0.368800
33.991600 0.353900
34.016500 0.338300
34.041400 0.323500
34.066200 0.303900
34.091100 0.268900
34.115900 0.247000
34.140800 0.232400
34.165600 0.199100
34.190500 0.167500
34.215400 0.153600
34.240200 0.148800
34.265100 0.144700
34.289900 0.140900
34.314800 0.137100
34.339600 0.133000
34.364500 0.128900
34.389300 0.125700
34.414200 0.122800
34.439100 0.120000
34.463900 0.117300
34.488800 0.114400
34.513600 0.111400
34.538500 0.108800
34.563300 0.106600
34.588200 0.104700
34.613000 0.102800
34.637900 0.101000
34.662800 0.099300
34.687600 0.097600
34.712500 0.096000
34.737300 0.094500
34.762200 0.093000
34.787000 0.091800
34.811900 0.090600
34.836700 0.089300
34.861600 0.088200
34.886500 0.087000
34.911300 0.085800
34.936200 0.084700
34.961000 0.083600
34.985900 0.082500
35.010700 0.081500
35.035600 0.080400
35.060500 0.079400
35.085300 0.078400
35.110200 0.077500
35.135000 0.076500
35.159900 0.075700
35.184700 0.075000
35.209600 0.074400
35.234400 0.073800
35.259300 0.073200
35.284200 0.072700
35.309000 0.072200
35.333900 0.071700
35.358700 0.071200
35.383600 0.070800
35.408400 0.070300
35.433300 0.069900
35.458100 0.068900
35.483000 0.068300
35.507900 0.068000
35.532700 0.068000
35.557600 0.068100
35.582400 0.067900
35.607300 0.067400
35.632100 0.066500
35.657000 0.065400
35.681800 0.064000
35.706700 0.062400
35.731600 0.060800
35.756400 0.059400
35.781300 0.058100
35.806100 0.056900
35.831000 0.055900
35.855800 0.054900
35.880700 0.054000
35.905500 0.053000
35.930400 0.052700
35.955300 0.052500
35.980100 0.052100
36.005000 0.051400
36.029800 0.050500
36.054700 0.050600
36.079500 0.049700
36.104400 0.048400
36.129300 0.046600
36.154100 0.045500
36.179000 0.047000
36.203800 0.045500
36.228700 0.041800
36.253500 0.041200
36.278400 0.040600
36.303200 0.040100
36.328100 0.039500
36.353000 0.039000
36.377800 0.038400
36.402700 0.037800
36.427500 0.037300
36.452400 0.036700
36.477200 0.036100
36.502100 0.035600
36.526900 0.035000
36.551800 0.034400
36.576700 0.033900
36.601500 0.033300
36.626400 0.032800
36.651200 0.032200
36.676100 0.031600
36.700900 0.031100
36.725800 0.030500
36.750600 0.030000
36.775500 0.028600
36.800400 0.028100
36.825200 0.027600
36.850100 0.027100
36.874900 0.026700
36.899800 0.026200
36.924600 0.025700
36.949500 0.025200
36.974300 0.024700
36.999200 0.024300
37.024100 0.023800
37.048900 0.024000
37.073800 0.027200
37.098600 0.028900
37.123500 0.029000
37.148300 0.030100
37.173200 0.031600
37.198100 0.031900
37.222900 0.031200
37.247800 0.029300
37.272600 0.026200
37.297500 0.023500
37.322300 0.021500
37.347200 0.019300
37.372000 0.016900
37.396900 0.014800
37.421800 0.013100
37.446600 0.012800
37.471500 0.012600
37.496300 0.012400
37.521200 0.012100
37.546000 0.011900
37.570900 0.011700
37.595700 0.011500
37.620600 0.011300
37.645500 0.011100
37.670300 0.010900
37.695200 0.010700
37.720000 0.010500
37.744900 0.010300
37.769700 0.010200
37.794600 0.010000
37.819400 0.009800
37.844300 0.009600
37.869200 0.009300
37.894000 0.009100
37.918900 0.008800
37.943700 0.008500
37.968600 0.008200
37.993400 0.007800
38.018300 0.007500
38.043200 0.007100
38.068000 0.006700
38.092900 0.006300
38.117700 0.005800
38.142600 0.005400
38.167400 0.004900
38.192300 0.004800
38.217100 0.005300
38.242000 0.004500
38.266900 0.003800
38.291700 0.003200
38.316600 0.002600
38.341400 0.002000
38.366300 0.001600
38.391100 0.001100
38.416000 0.000800
38.440800 0.000500
38.465700 0.000300
38.490600 0.000100
38.515400 0.000000
38.540300 0.000000
38.565100 0.000000
38.590000 0.000000
38.614800 0.000000
38.639700 0.000000
38.664500 0.000000
38.689400 0.000000
38.714300 0.000000
38.739100 0.000000
38.764000 0.000000
38.788800 0.000000
38.813700 0.000000
38.838500 0.000000
38.863400 0.000000
38.888200 0.000000
38.913100 0.000000
38.938000 0.000000
38.962800 0.000000
38.987700 0.000000
39.012500 0.000000
39.037400 0.000000
39.062200 0.000000
39.087100 0.000000
39.112000 0.000000
39.136800 0.000000
39.161700 0.000000
39.186500 0.000000
39.211400 0.000000
39.236200 0.000000
39.261100 0.000000
39.285900 0.000000
39.310800 0.000000
39.335700 0.000000
39.360500 0.000000
39.385400 0.000000
39.410200 0.000000
39.435100 0.000000
39.459900 0.000000
39.484800 0.000000
39.509600 0.000000
39.534500 0.000000
39.559400 0.000000
39.584200 0.000000
39.609100 0.000000
39.633900 0.000000
39.658800 0.000000
39.683600 0.000000
39.708500 0.000000
39.733300 0.000000
39.758200 0.000000
39.783100 0.000000
39.807900 0.000000
39.832800 0.000000
39.857600 0.000000
39.882500 0.000000
39.907300 0.000000
39.932200 0.000000
39.957100 0.000000
39.981900 0.000000
40.006800 0.000000
40.031600 0.000000
40.056500 0.000000
40.081300 0.000000
40.106200 0.000000
40.131000 0.000000
40.155900 0.000000
40.180800 0.000000
40.205600 0.000000
40.230500 0.000000
40.255300 0.000000
40.280200 0.000000
40.305000 0.000000
40.329900 0.000000
40.354700 0.000000
40.379600 0.000000
40.404500 0.000000
40.429300 0.000000
40.454200 0.000000
40.479000 0.000000
40.503900 0.000000
40.528700 0.000000
40.553600 0.000000
40.578400 0.000000
40.603300 0.000000
40.628200 0.000000
40.653000 0.000000
40.677900 0.000000
40.702700 0.000000
40.727600 0.000000
40.752400 0.000000
40.777300 0.000000
40.802100 0.000000
e
