set title 'mp-18388 - Density of States'
set xlabel 'Energy (eV)'
set ylabel 'DOS (states/eV)'
set grid
set xrange [-10:10]
set yrange [0:65.672]
set xzeroaxis lt -1
set terminal png size 800,600
set output 'mp-18388_dos_gnuplot.png'
plot '-' using 1:2 with lines title 'DOS'
-13.139300 0.000000
-13.126200 0.000000
-13.113200 0.000000
-13.100100 0.000000
-13.087000 0.000000
-13.073900 0.000000
-13.060900 0.000000
-13.047800 0.000000
-13.034700 0.000000
-13.021600 0.000000
-13.008500 0.000000
-12.995500 0.000000
-12.982400 0.000000
-12.969300 0.000000
-12.956200 0.000000
-12.943100 0.000000
-12.930100 0.000000
-12.917000 0.000000
-12.903900 0.000000
-12.890800 0.000000
-12.877800 0.000000
-12.864700 0.000000
-12.851600 0.000000
-12.838500 0.000000
-12.825400 0.000000
-12.812400 0.000000
-12.799300 0.000000
-12.786200 0.000000
-12.773100 0.000000
-12.760000 0.000000
-12.747000 0.000000
-12.733900 0.000000
-12.720800 0.000000
-12.707700 0.000000
-12.694700 0.000000
-12.681600 0.000000
-12.668500 0.000000
-12.655400 0.000000
-12.642300 0.000000
-12.629300 0.000000
-12.616200 0.000000
-12.603100 0.000000
-12.590000 0.000000
-12.576900 0.000000
-12.563900 0.000000
-12.550800 0.000000
-12.537700 0.000000
-12.524600 0.000000
-12.511600 0.000000
-12.498500 0.000000
-12.485400 0.000000
-12.472300 0.000000
-12.459200 0.000000
-12.446200 0.000000
-12.433100 0.000000
-12.420000 0.000000
-12.406900 0.000000
-12.393800 0.000000
-12.380800 0.000000
-12.367700 0.000000
-12.354600 0.000000
-12.341500 0.000000
-12.328500 0.000000
-12.315400 0.000000
-12.302300 0.000000
-12.289200 0.000000
-12.276100 0.000000
-12.263100 0.000000
-12.250000 0.000000
-12.236900 0.000000
-12.223800 0.000000
-12.210700 0.000000
-12.197700 0.000000
-12.184600 0.000000
-12.171500 0.000000
-12.158400 0.000000
-12.145400 0.000000
-12.132300 0.000000
-12.119200 0.000300
-12.106100 0.001700
-12.093000 0.008700
-12.080000 0.039100
-12.066900 0.154100
-12.053800 0.534100
-12.040700 1.631700
-12.027600 4.409600
-12.014600 10.594500
-12.001500 22.780200
-11.988400 44.204500
-11.975300 78.199800
-11.962300 127.553900
-11.949200 194.051600
-11.936100 278.188700
-11.923000 378.769900
-11.909900 492.183600
-11.896900 611.568200
-11.883800 726.483700
-11.870700 823.709700
-11.857600 889.278100
-11.844500 911.165200
-11.831500 882.001600
-11.818400 801.686000
-11.805300 679.606000
-11.792200 534.776600
-11.779200 391.751200
-11.766100 272.730700
-11.753000 189.987400
-11.739900 143.236900
-11.726800 122.936900
-11.713800 116.405500
-11.700700 112.869200
-11.687600 105.769900
-11.674500 92.932700
-11.661400 75.730000
-11.648400 57.769800
-11.635300 43.233400
-11.622200 35.153200
-11.609100 34.169000
-11.596100 38.258400
-11.583000 43.641400
-11.569900 46.576000
-11.556800 45.187200
-11.543700 40.221700
-11.530700 34.196600
-11.517600 29.542600
-11.504500 27.087600
-11.491400 25.872200
-11.478300 24.204100
-11.465300 20.981400
-11.452200 16.316900
-11.439100 11.210400
-11.426000 6.759100
-11.413000 3.566400
-11.399900 1.644900
-11.386800 0.662800
-11.373700 0.233300
-11.360600 0.071700
-11.347600 0.019300
-11.334500 0.004500
-11.321400 0.000900
-11.308300 0.000200
-11.295200 0.000000
-11.282200 0.000000
-11.269100 0.000000
-11.256000 0.000000
-11.242900 0.000000
-11.229900 0.000000
-11.216800 0.000000
-11.203700 0.000000
-11.190600 0.000000
-11.177500 0.000000
-11.164500 0.000000
-11.151400 0.000000
-11.138300 0.000000
-11.125200 0.000000
-11.112100 0.000000
-11.099100 0.000000
-11.086000 0.000000
-11.072900 0.000000
-11.059800 0.000000
-11.046800 0.000000
-11.033700 0.000000
-11.020600 0.000000
-11.007500 0.000000
-10.994400 0.000000
-10.981400 0.000000
-10.968300 0.000000
-10.955200 0.000000
-10.942100 0.000000
-10.929000 0.000000
-10.916000 0.000000
-10.902900 0.000000
-10.889800 0.000000
-10.876700 0.000000
-10.863600 0.000000
-10.850600 0.000000
-10.837500 0.000000
-10.824400 0.000000
-10.811300 0.000000
-10.798300 0.000000
-10.785200 0.000000
-10.772100 0.000000
-10.759000 0.000000
-10.745900 0.000000
-10.732900 0.000000
-10.719800 0.000000
-10.706700 0.000000
-10.693600 0.000000
-10.680500 0.000000
-10.667500 0.000000
-10.654400 0.000000
-10.641300 0.000000
-10.628200 0.000000
-10.615200 0.000000
-10.602100 0.000000
-10.589000 0.000000
-10.575900 0.000000
-10.562800 0.000000
-10.549800 0.000000
-10.536700 0.000000
-10.523600 0.000000
-10.510500 0.000000
-10.497400 0.000000
-10.484400 0.000000
-10.471300 0.000000
-10.458200 0.000000
-10.445100 0.000000
-10.432100 0.000000
-10.419000 0.000000
-10.405900 0.000000
-10.392800 0.000000
-10.379700 0.000000
-10.366700 0.000000
-10.353600 0.000000
-10.340500 0.000000
-10.327400 0.000000
-10.314300 0.000000
-10.301300 0.000000
-10.288200 0.000000
-10.275100 0.000000
-10.262000 0.000000
-10.249000 0.000000
-10.235900 0.000000
-10.222800 0.000000
-10.209700 0.000000
-10.196600 0.000000
-10.183600 0.000000
-10.170500 0.000000
-10.157400 0.000000
-10.144300 0.000000
-10.131200 0.000000
-10.118200 0.000000
-10.105100 0.000000
-10.092000 0.000000
-10.078900 0.000000
-10.065900 0.000000
-10.052800 0.000000
-10.039700 0.000000
-10.026600 0.000000
-10.013500 0.000000
-10.000500 0.000000
-9.987400 0.000000
-9.974300 0.000000
-9.961200 0.000000
-9.948100 0.000000
-9.935100 0.000000
-9.922000 0.000000
-9.908900 0.000000
-9.895800 0.000000
-9.882800 0.000000
-9.869700 0.000000
-9.856600 0.000000
-9.843500 0.000000
-9.830400 0.000000
-9.817400 0.000000
-9.804300 0.000000
-9.791200 0.000000
-9.778100 0.000000
-9.765000 0.000000
-9.752000 0.000000
-9.738900 0.000000
-9.725800 0.000000
-9.712700 0.000000
-9.699700 0.000000
-9.686600 0.000000
-9.673500 0.000000
-9.660400 0.000000
-9.647300 0.000000
-9.634300 0.000000
-9.621200 0.000000
-9.608100 0.000000
-9.595000 0.000000
-9.581900 0.000000
-9.568900 0.000000
-9.555800 0.000000
-9.542700 0.000000
-9.529600 0.000000
-9.516600 0.000000
-9.503500 0.000000
-9.490400 0.000000
-9.477300 0.000000
-9.464200 0.000000
-9.451200 0.000000
-9.438100 0.000000
-9.425000 0.000000
-9.411900 0.000000
-9.398800 0.000000
-9.385800 0.000000
-9.372700 0.000000
-9.359600 0.000000
-9.346500 0.000000
-9.333500 0.000000
-9.320400 0.000000
-9.307300 0.000000
-9.294200 0.000000
-9.281100 0.000000
-9.268100 0.000000
-9.255000 0.000000
-9.241900 0.000000
-9.228800 0.000000
-9.215700 0.000000
-9.202700 0.000000
-9.189600 0.000000
-9.176500 0.000000
-9.163400 0.000000
-9.150400 0.000000
-9.137300 0.000000
-9.124200 0.000000
-9.111100 0.000000
-9.098000 0.000000
-9.085000 0.000000
-9.071900 0.000100
-9.058800 0.000600
-9.045700 0.002900
-9.032600 0.012700
-9.019600 0.048300
-9.006500 0.161500
-8.993400 0.472300
-8.980300 1.208900
-8.967300 2.709800
-8.954200 5.321600
-8.941100 9.160200
-8.928000 13.827900
-8.914900 18.316800
-8.901900 21.302800
-8.888800 21.766200
-8.875700 19.550300
-8.862600 15.445600
-8.849500 10.740800
-8.836500 6.584200
-8.823400 3.583100
-8.810300 1.802200
-8.797200 1.016300
-8.784200 0.973900
-8.771100 1.521900
-8.758000 2.586700
-8.744900 4.097100
-8.731800 5.951600
-8.718800 8.067000
-8.705700 10.429600
-8.692600 13.019600
-8.679500 15.601900
-8.666400 17.589700
-8.653400 18.222400
-8.640300 17.031100
-8.627200 14.236100
-8.614100 10.738500
-8.601100 7.718400
-8.588000 6.153000
-8.574900 6.516300
-8.561800 8.675100
-8.548700 11.900700
-8.535700 15.029800
-8.522600 16.867600
-8.509500 16.738600
-8.496400 14.847600
-8.483300 12.151000
-8.470300 9.797700
-8.457200 8.528700
-8.444100 8.411700
-8.431000 8.984900
-8.418000 9.610900
-8.404900 9.798600
-8.391800 9.382200
-8.378700 8.567300
-8.365600 7.873300
-8.352600 7.947500
-8.339500 9.248500
-8.326400 11.708700
-8.313300 14.611000
-8.300200 16.871300
-8.287200 17.656200
-8.274100 16.945800
-8.261000 15.592200
-8.247900 14.761000
-8.234900 15.122600
-8.221800 16.374900
-8.208700 17.445000
-8.195600 17.217500
-8.182500 15.258900
-8.169500 12.044500
-8.156400 8.604900
-8.143300 5.928900
-8.130200 4.534400
-8.117100 4.380100
-8.104100 5.035200
-8.091000 5.956200
-8.077900 6.760700
-8.064800 7.403000
-8.051800 8.166900
-8.038700 9.470100
-8.025600 11.588300
-8.012500 14.451200
-7.999400 17.616100
-7.986400 20.464500
-7.973300 22.594200
-7.960200 24.218900
-7.947100 26.229100
-7.934000 29.679100
-7.921000 34.912500
-7.907900 40.963200
-7.894800 45.783100
-7.881700 47.258500
-7.868700 44.377200
-7.855600 37.809600
-7.842500 29.599000
-7.829400 22.220500
-7.816300 17.563700
-7.803300 16.319900
-7.790200 17.964000
-7.777100 21.241500
-7.764000 24.868400
-7.750900 28.079900
-7.737900 30.785600
-7.724800 33.356800
-7.711700 36.265500
-7.698600 39.754800
-7.685600 43.599000
-7.672500 47.026200
-7.659400 48.941300
-7.646300 48.466900
-7.633200 45.530700
-7.620200 41.049900
-7.607100 36.457000
-7.594000 32.809800
-7.580900 30.142900
-7.567800 27.607800
-7.554800 24.314700
-7.541700 20.184100
-7.528600 16.143800
-7.515500 13.573400
-7.502500 13.443200
-7.489400 15.684500
-7.476300 19.105700
-7.463200 21.897200
-7.450100 22.500300
-7.437100 20.369400
-7.424000 16.152700
-7.410900 11.199800
-7.397800 6.790000
-7.384700 3.615300
-7.371700 1.750300
-7.358600 0.956600
-7.345500 1.033000
-7.332400 2.025700
-7.319400 4.251500
-7.306300 8.138200
-7.293200 13.931200
-7.280100 21.394100
-7.267000 29.704600
-7.254000 37.665500
-7.240900 44.132400
-7.227800 48.393100
-7.214700 50.303200
-7.201600 50.196200
-7.188600 48.712400
-7.175500 46.620200
-7.162400 44.625100
-7.149300 43.195900
-7.136300 42.513400
-7.123200 42.566900
-7.110100 43.239400
-7.097000 44.230800
-7.083900 44.909200
-7.070900 44.355100
-7.057800 41.714100
-7.044700 36.665400
-7.031600 29.679100
-7.018500 21.873700
-7.005500 14.548300
-6.992400 8.671400
-6.979300 4.606300
-6.966200 2.171600
-6.953200 0.905600
-6.940100 0.333300
-6.927000 0.108000
-6.913900 0.030800
-6.900800 0.007700
-6.887800 0.001700
-6.874700 0.000300
-6.861600 0.000100
-6.848500 0.000000
-6.835400 0.000000
-6.822400 0.000000
-6.809300 0.000000
-6.796200 0.000000
-6.783100 0.000000
-6.770100 0.000000
-6.757000 0.000000
-6.743900 0.000000
-6.730800 0.000000
-6.717700 0.000000
-6.704700 0.000000
-6.691600 0.000000
-6.678500 0.000000
-6.665400 0.000000
-6.652300 0.000000
-6.639300 0.000000
-6.626200 0.000000
-6.613100 0.000000
-6.600000 0.000000
-6.587000 0.000000
-6.573900 0.000000
-6.560800 0.000000
-6.547700 0.000000
-6.534600 0.000000
-6.521600 0.000000
-6.508500 0.000000
-6.495400 0.000000
-6.482300 0.000000
-6.469200 0.000000
-6.456200 0.000000
-6.443100 0.000000
-6.430000 0.000000
-6.416900 0.000000
-6.403900 0.000000
-6.390800 0.000000
-6.377700 0.000000
-6.364600 0.000000
-6.351500 0.000000
-6.338500 0.000000
-6.325400 0.000000
-6.312300 0.000000
-6.299200 0.000000
-6.286100 0.000000
-6.273100 0.000000
-6.260000 0.000000
-6.246900 0.000000
-6.233800 0.000000
-6.220700 0.000000
-6.207700 0.000000
-6.194600 0.000000
-6.181500 0.000000
-6.168400 0.000000
-6.155400 0.000000
-6.142300 0.000000
-6.129200 0.000000
-6.116100 0.000000
-6.103000 0.000000
-6.090000 0.000000
-6.076900 0.000000
-6.063800 0.000000
-6.050700 0.000000
-6.037600 0.000000
-6.024600 0.000000
-6.011500 0.000000
-5.998400 0.000000
-5.985300 0.000000
-5.972300 0.000000
-5.959200 0.000000
-5.946100 0.000000
-5.933000 0.000000
-5.919900 0.000000
-5.906900 0.000000
-5.893800 0.000000
-5.880700 0.000000
-5.867600 0.000000
-5.854500 0.000000
-5.841500 0.000000
-5.828400 0.000000
-5.815300 0.000000
-5.802200 0.000000
-5.789200 0.000000
-5.776100 0.000000
-5.763000 0.000000
-5.749900 0.000000
-5.736800 0.000000
-5.723800 0.000000
-5.710700 0.000000
-5.697600 0.000000
-5.684500 0.000000
-5.671400 0.000000
-5.658400 0.000000
-5.645300 0.000000
-5.632200 0.000000
-5.619100 0.000000
-5.606100 0.000000
-5.593000 0.000000
-5.579900 0.000000
-5.566800 0.000000
-5.553700 0.000000
-5.540700 0.000000
-5.527600 0.000000
-5.514500 0.000000
-5.501400 0.000000
-5.488300 0.000000
-5.475300 0.000000
-5.462200 0.000000
-5.449100 0.000000
-5.436000 0.000000
-5.423000 0.000000
-5.409900 0.000000
-5.396800 0.000000
-5.383700 0.000000
-5.370600 0.000000
-5.357600 0.000000
-5.344500 0.000000
-5.331400 0.000000
-5.318300 0.000000
-5.305200 0.000000
-5.292200 0.000000
-5.279100 0.000000
-5.266000 0.000000
-5.252900 0.000000
-5.239900 0.000000
-5.226800 0.000000
-5.213700 0.000000
-5.200600 0.000000
-5.187500 0.000000
-5.174500 0.000000
-5.161400 0.000000
-5.148300 0.000000
-5.135200 0.000000
-5.122100 0.000000
-5.109100 0.000000
-5.096000 0.000000
-5.082900 0.000000
-5.069800 0.000000
-5.056800 0.000000
-5.043700 0.000000
-5.030600 0.000000
-5.017500 0.000000
-5.004400 0.000000
-4.991400 0.000000
-4.978300 0.000000
-4.965200 0.000000
-4.952100 0.000000
-4.939000 0.000000
-4.926000 0.000000
-4.912900 0.000000
-4.899800 0.000000
-4.886700 0.000000
-4.873700 0.000000
-4.860600 0.000000
-4.847500 0.000000
-4.834400 0.000000
-4.821300 0.000000
-4.808300 0.000000
-4.795200 0.000000
-4.782100 0.000000
-4.769000 0.000000
-4.755900 0.000000
-4.742900 0.000000
-4.729800 0.000000
-4.716700 0.000000
-4.703600 0.000000
-4.690600 0.000000
-4.677500 0.000000
-4.664400 0.000000
-4.651300 0.000000
-4.638200 0.000000
-4.625200 0.000000
-4.612100 0.000000
-4.599000 0.000000
-4.585900 0.000000
-4.572800 0.000000
-4.559800 0.000000
-4.546700 0.000000
-4.533600 0.000000
-4.520500 0.000000
-4.507500 0.000000
-4.494400 0.000000
-4.481300 0.000000
-4.468200 0.000000
-4.455100 0.000000
-4.442100 0.000000
-4.429000 0.000000
-4.415900 0.000000
-4.402800 0.000000
-4.389700 0.000000
-4.376700 0.000000
-4.363600 0.000000
-4.350500 0.000000
-4.337400 0.000000
-4.324400 0.000000
-4.311300 0.000000
-4.298200 0.000000
-4.285100 0.000000
-4.272000 0.000000
-4.259000 0.000000
-4.245900 0.000000
-4.232800 0.000000
-4.219700 0.000000
-4.206600 0.000000
-4.193600 0.000000
-4.180500 0.000000
-4.167400 0.000000
-4.154300 0.000000
-4.141300 0.000000
-4.128200 0.000000
-4.115100 0.000000
-4.102000 0.000000
-4.088900 0.000000
-4.075900 0.000000
-4.062800 0.000000
-4.049700 0.000000
-4.036600 0.000000
-4.023500 0.000000
-4.010500 0.000000
-3.997400 0.000000
-3.984300 0.000000
-3.971200 0.000000
-3.958200 0.000000
-3.945100 0.000000
-3.932000 0.000000
-3.918900 0.000000
-3.905800 0.000000
-3.892800 0.000000
-3.879700 0.000000
-3.866600 0.000000
-3.853500 0.000000
-3.840400 0.000000
-3.827400 0.000000
-3.814300 0.000000
-3.801200 0.000000
-3.788100 0.000200
-3.775100 0.001200
-3.762000 0.005500
-3.748900 0.022900
-3.735800 0.083100
-3.722700 0.263600
-3.709700 0.732100
-3.696600 1.779200
-3.683500 3.784400
-3.670400 7.044500
-3.657300 11.475600
-3.644300 16.358600
-3.631200 20.404900
-3.618100 22.269400
-3.605000 21.263700
-3.592000 17.761900
-3.578900 12.978600
-3.565800 8.294900
-3.552700 4.636700
-3.539600 2.266600
-3.526600 0.968900
-3.513500 0.362100
-3.500400 0.118300
-3.487300 0.033800
-3.474200 0.008400
-3.461200 0.001800
-3.448100 0.000400
-3.435000 0.000100
-3.421900 0.000000
-3.408900 0.000100
-3.395800 0.000500
-3.382700 0.002700
-3.369600 0.012200
-3.356500 0.047700
-3.343500 0.163500
-3.330400 0.489800
-3.317300 1.284500
-3.304200 2.949700
-3.291100 5.933800
-3.278100 10.461500
-3.265000 16.173800
-3.251900 21.940200
-3.238800 26.133400
-3.225800 27.359700
-3.212700 25.227300
-3.199600 20.609300
-3.186500 15.230200
-3.173400 10.914900
-3.160400 8.993300
-3.147300 10.065200
-3.134200 13.994500
-3.121100 19.976600
-3.108000 26.715100
-3.095000 32.797200
-3.081900 37.156900
-3.068800 39.334700
-3.055700 39.365500
-3.042700 37.462100
-3.029600 33.828400
-3.016500 28.760800
-3.003400 22.883100
-2.990300 17.239700
-2.977300 13.119500
-2.964200 11.715700
-2.951100 13.788300
-2.938000 19.384200
-2.924900 27.610800
-2.911900 36.580800
-2.898800 43.773200
-2.885700 46.904000
-2.872600 44.965400
-2.859600 38.795100
-2.846500 30.735600
-2.833400 23.545600
-2.820300 19.212400
-2.807200 18.309100
-2.794200 20.137500
-2.781100 23.421500
-2.768000 27.025600
-2.754900 30.230900
-2.741800 32.508500
-2.728800 33.210400
-2.715700 31.657200
-2.702600 27.624600
-2.689500 21.722000
-2.676500 15.221700
-2.663400 9.438300
-2.650300 5.155800
-2.637200 2.474700
-2.624100 1.042000
-2.611100 0.384700
-2.598000 0.125200
-2.584900 0.039700
-2.571800 0.027500
-2.558700 0.070000
-2.545700 0.216300
-2.532600 0.597700
-2.519500 1.445000
-2.506400 3.051100
-2.493400 5.627300
-2.480300 9.065200
-2.467200 12.755400
-2.454100 15.676700
-2.441000 16.829000
-2.428000 15.780100
-2.414900 12.924200
-2.401800 9.245800
-2.388700 5.777300
-2.375600 3.153100
-2.362600 1.503100
-2.349500 0.626100
-2.336400 0.229100
-2.323300 0.078800
-2.310300 0.044500
-2.297200 0.085000
-2.284100 0.231500
-2.271000 0.583800
-2.257900 1.304700
-2.244900 2.583400
-2.231800 4.555200
-2.218700 7.209200
-2.205600 10.352200
-2.192500 13.672200
-2.179500 16.842000
-2.166400 19.554000
-2.153300 21.471100
-2.140200 22.246900
-2.127200 21.752300
-2.114100 20.384200
-2.101000 19.091100
-2.087900 18.894000
-2.074800 20.147600
-2.061800 22.132100
-2.048700 23.388900
-2.035600 22.623500
-2.022500 19.513600
-2.009400 14.839600
-1.996400 9.926100
-1.983300 5.903300
-1.970200 3.306600
-1.957100 2.131200
-1.944100 2.097000
-1.931000 2.847300
-1.917900 4.002000
-1.904800 5.174300
-1.891700 6.072700
-1.878700 6.674900
-1.865600 7.314700
-1.852500 8.520100
-1.839400 10.619700
-1.826300 13.362300
-1.813300 15.870300
-1.800200 17.052800
-1.787100 16.241600
-1.774000 13.591900
-1.761000 9.958500
-1.747900 6.379000
-1.734800 3.570300
-1.721700 1.745700
-1.708600 0.745700
-1.695600 0.279000
-1.682500 0.094600
-1.669400 0.041000
-1.656300 0.056900
-1.643200 0.147400
-1.630200 0.369000
-1.617100 0.813000
-1.604000 1.565700
-1.590900 2.634100
-1.577800 3.872700
-1.564800 4.980900
-1.551700 5.624200
-1.538600 5.638600
-1.525500 5.193600
-1.512500 4.792200
-1.499400 5.084800
-1.486300 6.567100
-1.473200 9.274900
-1.460100 12.619100
-1.447100 15.514800
-1.434000 16.842000
-1.420900 16.022500
-1.407800 13.327600
-1.394700 9.686100
-1.381700 6.149400
-1.368600 3.410000
-1.355500 1.651700
-1.342400 0.698700
-1.329400 0.258200
-1.316300 0.083300
-1.303200 0.023500
-1.290100 0.005800
-1.277000 0.001200
-1.264000 0.000200
-1.250900 0.000000
-1.237800 0.000000
-1.224700 0.000000
-1.211600 0.000000
-1.198600 0.000000
-1.185500 0.000000
-1.172400 0.000000
-1.159300 0.000000
-1.146300 0.000000
-1.133200 0.000000
-1.120100 0.000000
-1.107000 0.000000
-1.093900 0.000000
-1.080900 0.000000
-1.067800 0.000000
-1.054700 0.000000
-1.041600 0.000000
-1.028500 0.000000
-1.015500 0.000000
-1.002400 0.000000
-0.989300 0.000000
-0.976200 0.000000
-0.963200 0.000200
-0.950100 0.001100
-0.937000 0.004600
-0.923900 0.017400
-0.910800 0.056700
-0.897800 0.162200
-0.884700 0.406300
-0.871600 0.893000
-0.858500 1.730100
-0.845400 2.976600
-0.832400 4.605800
-0.819300 6.532800
-0.806200 8.700100
-0.793100 11.114700
-0.780100 13.727600
-0.767000 16.213200
-0.753900 17.900200
-0.740800 18.047400
-0.727700 16.329700
-0.714700 13.136100
-0.701600 9.422800
-0.688500 6.264700
-0.675400 4.478100
-0.662300 4.521800
-0.649300 6.568300
-0.636200 10.520000
-0.623100 15.910300
-0.610000 21.849800
-0.597000 27.186100
-0.583900 30.841700
-0.570800 32.116800
-0.557700 30.813900
-0.544600 27.235800
-0.531600 22.151600
-0.518500 16.712500
-0.505400 12.237700
-0.492300 9.893000
-0.479200 10.373600
-0.466200 13.664900
-0.453100 18.921900
-0.440000 24.574900
-0.426900 28.785200
-0.413900 30.161500
-0.400800 28.347100
-0.387700 24.090600
-0.374600 18.794200
-0.361500 13.915600
-0.348500 10.591000
-0.335400 9.521300
-0.322300 10.915800
-0.309200 14.371300
-0.296100 18.831300
-0.283100 22.879300
-0.270000 25.373300
-0.256900 26.018600
-0.243800 25.378000
-0.230800 24.277500
-0.217700 23.153400
-0.204600 21.944300
-0.191500 20.540200
-0.178400 19.204100
-0.165400 18.448300
-0.152300 18.484300
-0.139200 18.849600
-0.126100 18.651200
-0.113000 17.240500
-0.100000 14.718100
-0.086900 11.844800
-0.073800 9.484500
-0.060700 8.082600
-0.047700 7.571800
-0.034600 7.690900
-0.021500 8.369400
-0.008400 9.828100
0.004700 12.320100
0.017700 15.767600
0.030800 19.647200
0.043900 23.244100
0.057000 26.032500
0.070100 27.829700
0.083100 28.645800
0.096200 28.490500
0.109300 27.399400
0.122400 25.633900
0.135400 23.801200
0.148500 22.718900
0.161600 23.081500
0.174700 25.123900
0.187800 28.494700
0.200800 32.439000
0.213900 36.171800
0.227000 39.156800
0.240100 41.089200
0.253200 41.680600
0.266200 40.552400
0.279300 37.440400
0.292400 32.591800
0.305500 26.995400
0.318500 22.145000
0.331600 19.375100
0.344700 19.166200
0.357800 20.886500
0.370900 23.146900
0.383900 24.526900
0.397000 24.215500
0.410100 22.245800
0.423200 19.313900
0.436300 16.378700
0.449300 14.239200
0.462400 13.227100
0.475500 13.140400
0.488600 13.489600
0.501600 13.930700
0.514700 14.564900
0.527800 15.836300
0.540900 18.093600
0.554000 21.215700
0.567000 24.664100
0.580100 27.915300
0.593200 30.831100
0.606300 33.580200
0.619400 36.191600
0.632400 38.201600
0.645500 38.763900
0.658600 37.158700
0.671700 33.328800
0.684700 28.109900
0.697800 23.040400
0.710900 19.834300
0.724000 19.712400
0.737100 22.865800
0.750100 28.303700
0.763200 34.201500
0.776300 38.634600
0.789400 40.372700
0.802500 39.349400
0.815500 36.556200
0.828600 33.428300
0.841700 31.109400
0.854800 30.074200
0.867800 30.289600
0.880900 31.617500
0.894000 33.953800
0.907100 36.930700
0.920200 39.590700
0.933200 40.607500
0.946300 39.119500
0.959400 35.541500
0.972500 31.593700
0.985600 29.400400
0.998600 30.258800
1.011700 33.875200
1.024800 38.485200
1.037900 41.748000
1.050900 41.953700
1.064000 38.920700
1.077100 34.044800
1.090200 29.409900
1.103300 26.508600
1.116300 25.446100
1.129400 25.152800
1.142500 24.354700
1.155600 22.512300
1.168700 20.063300
1.181700 17.944700
1.194800 16.930200
1.207900 17.334600
1.221000 19.180600
1.234000 22.472400
1.247100 27.208600
1.260200 33.132300
1.273300 39.540100
1.286400 45.401400
1.299400 49.708800
1.312500 51.781300
1.325600 51.368400
1.338700 48.631900
1.351800 44.136300
1.364800 38.826400
1.377900 33.848400
1.391000 30.148600
1.404100 28.025000
1.417100 26.977300
1.430200 26.074800
1.443300 24.672700
1.456400 22.963400
1.469500 21.929300
1.482500 22.750000
1.495600 26.148000
1.508700 32.103400
1.521800 39.918000
1.534900 48.325100
1.547900 55.561500
1.561000 59.701400
1.574100 59.462700
1.587200 55.098900
1.600200 48.585500
1.613300 42.707500
1.626400 39.553700
1.639500 39.453700
1.652600 41.054100
1.665600 42.362300
1.678700 41.951500
1.691800 39.578100
1.704900 36.021300
1.718000 32.467200
1.731000 29.892000
1.744100 28.719000
1.757200 28.806000
1.770300 29.656400
1.783300 30.653700
1.796400 31.167900
1.809500 30.599600
1.822600 28.567300
1.835700 25.266100
1.848700 21.693900
1.861800 19.403200
1.874900 19.800200
1.888000 23.401100
1.901100 29.504200
1.914100 36.433300
1.927200 42.169200
1.940300 45.041300
1.953400 44.226700
1.966400 39.945600
1.979500 33.318700
1.992600 25.940000
2.005700 19.356900
2.018800 14.696700
2.031800 12.524100
2.044900 12.829400
2.058000 15.065100
2.071100 18.314300
2.084200 21.666500
2.097200 24.627700
2.110300 27.224700
2.123400 29.693700
2.136500 32.067200
2.149500 34.054100
2.162600 35.232900
2.175700 35.261000
2.188800 33.943500
2.201900 31.315000
2.214900 27.816300
2.228000 24.322400
2.241100 21.754700
2.254200 20.471800
2.267300 20.002500
2.280300 19.459000
2.293400 18.327600
2.306500 16.954700
2.319600 16.294500
2.332600 17.108700
2.345700 19.250600
2.358800 21.590700
2.371900 22.658300
2.385000 21.555300
2.398000 18.515000
2.411100 14.766900
2.424200 11.859600
2.437300 10.895000
2.450400 12.057000
2.463400 14.591900
2.476500 17.204000
2.489600 18.687100
2.502700 18.471700
2.515700 16.770800
2.528800 14.283900
2.541900 11.744700
2.555000 9.643300
2.568100 8.192800
2.581100 7.386200
2.594200 7.032100
2.607300 6.823600
2.620400 6.516100
2.633500 6.148200
2.646500 6.130500
2.659600 7.085000
2.672700 9.476500
2.685800 13.212600
2.698800 17.453900
2.711900 20.830300
2.725000 22.046300
2.738100 20.553000
2.751200 16.834400
2.764200 12.100300
2.777300 7.628100
2.790400 4.218200
2.803500 2.056500
2.816600 0.920100
2.829600 0.479700
2.842700 0.501200
2.855800 0.897500
2.868900 1.669500
2.881900 2.801300
2.895000 4.180300
2.908100 5.618300
2.921200 6.990700
2.934300 8.388500
2.947300 10.096700
2.960400 12.317700
2.973500 14.816500
2.986600 16.830700
2.999700 17.431200
3.012700 16.114300
3.025800 13.160100
3.038900 9.478200
3.052000 6.102400
3.065000 3.741100
3.078100 2.642300
3.091200 2.719700
3.104300 3.738000
3.117400 5.439900
3.130400 7.617800
3.143500 10.143700
3.156600 12.903600
3.169700 15.624600
3.182800 17.739500
3.195800 18.513100
3.208900 17.444100
3.222000 14.648300
3.235100 10.870300
3.248200 7.092700
3.261200 4.057100
3.274300 2.031200
3.287400 0.889200
3.300500 0.340200
3.313500 0.113700
3.326600 0.033200
3.339700 0.008500
3.352800 0.001900
3.365900 0.000400
3.378900 0.000100
3.392000 0.000000
3.405100 0.000000
3.418200 0.000000
3.431300 0.000000
3.444300 0.000000
3.457400 0.000000
3.470500 0.000000
3.483600 0.000000
3.496600 0.000000
3.509700 0.000000
3.522800 0.000000
3.535900 0.000000
3.549000 0.000000
3.562000 0.000000
3.575100 0.000000
3.588200 0.000000
3.601300 0.000000
3.614400 0.000000
3.627400 0.000000
3.640500 0.000000
3.653600 0.000000
3.666700 0.000000
3.679700 0.000000
3.692800 0.000000
3.705900 0.000000
3.719000 0.000000
3.732100 0.000000
3.745100 0.000000
3.758200 0.000000
3.771300 0.000000
3.784400 0.000000
3.797500 0.000000
3.810500 0.000000
3.823600 0.000000
3.836700 0.000000
3.849800 0.000000
3.862800 0.000000
3.875900 0.000000
3.889000 0.000000
3.902100 0.000000
3.915200 0.000000
3.928200 0.000100
3.941300 0.000500
3.954400 0.002500
3.967500 0.010800
3.980600 0.041200
3.993600 0.137900
4.006700 0.403200
4.019800 1.029300
4.032900 2.295300
4.045900 4.470300
4.059000 7.604700
4.072100 11.299900
4.085200 14.668000
4.098300 16.639300
4.111300 16.519900
4.124400 14.434100
4.137500 11.327600
4.150600 8.544200
4.163700 7.286100
4.176700 8.224900
4.189800 11.305100
4.202900 15.692100
4.216000 19.950500
4.229000 22.569900
4.242100 22.701200
4.255200 20.633800
4.268300 17.602900
4.281400 15.008700
4.294400 13.616800
4.307500 13.308200
4.320600 13.482500
4.333700 13.707300
4.346800 14.053300
4.359800 14.864500
4.372900 16.208200
4.386000 17.539700
4.399100 17.928200
4.412100 16.677800
4.425200 13.822600
4.438300 10.098800
4.451400 6.472000
4.464500 3.632900
4.477500 1.796900
4.490600 0.829500
4.503700 0.505600
4.516800 0.721900
4.529900 1.593700
4.542900 3.422100
4.556000 6.513600
4.569100 10.869000
4.582200 15.899500
4.595200 20.438800
4.608300 23.208800
4.621400 23.522700
4.634500 21.714800
4.647600 18.943900
4.660600 16.534500
4.673700 15.375300
4.686800 15.731300
4.699900 17.392800
4.713000 19.875600
4.726000 22.549900
4.739100 24.797600
4.752200 26.275400
4.765300 27.130500
4.778300 27.927400
4.791400 29.257100
4.804500 31.296700
4.817600 33.629300
4.830700 35.395900
4.843700 35.637500
4.856800 33.680000
4.869900 29.480200
4.883000 23.808900
4.896100 18.117200
4.909100 14.074400
4.922200 12.980300
4.935300 15.300900
4.948400 20.473300
4.961400 27.037000
4.974500 33.103500
4.987600 37.029000
5.000700 37.984600
5.013800 36.150700
5.026800 32.509600
5.039900 28.399900
5.053000 24.986300
5.066100 22.780800
5.079200 21.447100
5.092200 20.095500
5.105300 17.954500
5.118400 14.946900
5.131500 11.744800
5.144500 9.321700
5.157600 8.407500
5.170700 9.223900
5.183800 11.554200
5.196900 14.944900
5.209900 18.847300
5.223000 22.685300
5.236100 25.933300
5.249200 28.210000
5.262300 29.301100
5.275300 29.096900
5.288400 27.582900
5.301500 24.984500
5.314600 21.943800
5.327600 19.462100
5.340700 18.487600
5.353800 19.336500
5.366900 21.344800
5.380000 23.083400
5.393000 23.102700
5.406100 20.749500
5.419200 16.485500
5.432300 11.512700
5.445400 7.047100
5.458400 3.776100
5.471500 1.770100
5.484600 0.725700
5.497700 0.260100
5.510700 0.081500
5.523800 0.022300
5.536900 0.005300
5.550000 0.001100
5.563100 0.000200
5.576100 0.000000
5.589200 0.000000
5.602300 0.000000
5.615400 0.000000
5.628500 0.000000
5.641500 0.000000
5.654600 0.000000
5.667700 0.000000
5.680800 0.000000
5.693800 0.000200
5.706900 0.001300
5.720000 0.006000
5.733100 0.024800
5.746200 0.090700
5.759200 0.291300
5.772300 0.822800
5.785400 2.046400
5.798500 4.485300
5.811600 8.673600
5.824600 14.814400
5.837700 22.373000
5.850800 29.906900
5.863900 35.423000
5.876900 37.227600
5.890000 34.819600
5.903100 29.242400
5.916200 22.650900
5.929300 17.364600
5.942300 14.932000
5.955400 15.606200
5.968500 18.358900
5.981600 21.396300
5.994700 23.001500
6.007700 22.338900
6.020800 19.764500
6.033900 16.446000
6.047000 13.582700
6.060000 11.787700
6.073100 10.985400
6.086200 10.744300
6.099300 10.718400
6.112400 10.921800
6.125400 11.723100
6.138500 13.561000
6.151600 16.499000
6.164700 19.903800
6.177800 22.573800
6.190800 23.367500
6.203900 21.940200
6.217000 19.023800
6.230100 16.031500
6.243100 14.317100
6.256200 14.619300
6.269300 16.939700
6.282400 20.712600
6.295500 25.025200
6.308500 28.820500
6.321600 31.155900
6.334700 31.539200
6.347800 30.213100
6.360900 28.169300
6.373900 26.739000
6.387000 26.865100
6.400100 28.486900
6.413200 30.548600
6.426200 31.751000
6.439300 31.522600
6.452400 30.422000
6.465500 29.641800
6.478600 30.075800
6.491600 31.745500
6.504700 33.953600
6.517800 35.853400
6.530900 36.913600
6.544000 37.077700
6.557000 36.718000
6.570100 36.438700
6.583200 36.693200
6.596300 37.389100
6.609300 37.867100
6.622400 37.368100
6.635500 35.576600
6.648600 32.740000
6.661700 29.376900
6.674700 26.006300
6.687800 23.116500
6.700900 21.147900
6.714000 20.255700
6.727100 20.049000
6.740100 19.710400
6.753200 18.549900
6.766300 16.552800
6.779400 14.446700
6.792400 13.257600
6.805500 13.742700
6.818600 16.067000
6.831700 19.790600
6.844800 24.045100
6.857800 27.822800
6.870900 30.329700
6.884000 31.244100
6.897100 30.698000
6.910200 29.020300
6.923200 26.522700
6.936300 23.527500
6.949400 20.520300
6.962500 18.172900
6.975500 17.143300
6.988600 17.781700
7.001700 19.931100
7.014800 22.949500
7.027900 25.962100
7.040900 28.214900
7.054000 29.346100
7.067100 29.477800
7.080200 29.148900
7.093300 29.109000
7.106300 29.969500
7.119400 31.826800
7.132500 34.105300
7.145600 35.787900
7.158600 35.930300
7.171700 34.171000
7.184800 30.973300
7.197900 27.478700
7.211000 25.027500
7.224000 24.562900
7.237100 26.214500
7.250200 29.270600
7.263300 32.545500
7.276400 34.923100
7.289400 35.767400
7.302500 35.012300
7.315600 33.007300
7.328700 30.329000
7.341700 27.625500
7.354800 25.401000
7.367900 23.744000
7.381000 22.255500
7.394100 20.392600
7.407100 18.044900
7.420200 15.843900
7.433300 14.868500
7.446400 15.911800
7.459500 18.836900
7.472500 22.493800
7.485600 25.294600
7.498700 26.101600
7.511800 24.864500
7.524800 22.626100
7.537900 20.939400
7.551000 21.070100
7.564100 23.390100
7.577200 27.223500
7.590200 31.213900
7.603300 34.044900
7.616400 35.111200
7.629500 34.719000
7.642600 33.719200
7.655600 32.894300
7.668700 32.549600
7.681800 32.489100
7.694900 32.231000
7.707900 31.261900
7.721000 29.301400
7.734100 26.588500
7.747200 24.037000
7.760300 22.992900
7.773300 24.533500
7.786400 28.644500
7.799500 33.867100
7.812600 37.812900
7.825700 38.363900
7.838700 34.811500
7.851800 28.180000
7.864900 20.592900
7.878000 14.216600
7.891100 10.457400
7.904100 9.686600
7.917200 11.352200
7.930300 14.279700
7.943400 17.130000
7.956400 18.986700
7.969500 19.826500
7.982600 20.508100
7.995700 22.181900
8.008800 25.489500
8.021800 30.121800
8.034900 35.015800
8.048000 38.985800
8.061100 41.317700
8.074200 41.979200
8.087200 41.413700
8.100300 40.144700
8.113400 38.497000
8.126500 36.607000
8.139500 34.627900
8.152600 32.835800
8.165700 31.457000
8.178800 30.370100
8.191900 29.030300
8.204900 26.770400
8.218000 23.266200
8.231100 18.803200
8.244200 14.185500
8.257300 10.426900
8.270300 8.451000
8.283400 8.895700
8.296500 11.957800
8.309600 17.232700
8.322600 23.657000
8.335700 29.732000
8.348800 34.029100
8.361900 35.692200
8.375000 34.604900
8.388000 31.191700
8.401100 26.132500
8.414200 20.218200
8.427300 14.298600
8.440400 9.155800
8.453400 5.309600
8.466500 2.919300
8.479600 1.879900
8.492700 2.028300
8.505700 3.292200
8.518800 5.682400
8.531900 9.148900
8.545000 13.406100
8.558100 17.868500
8.571100 21.796100
8.584200 24.617900
8.597300 26.223500
8.610400 26.976400
8.623500 27.413500
8.636500 27.889000
8.649600 28.451200
8.662700 28.966500
8.675800 29.286200
8.688800 29.331600
8.701900 29.150000
8.715000 28.956700
8.728100 29.052200
8.741200 29.585900
8.754200 30.370400
8.767300 30.994500
8.780400 31.184600
8.793500 31.048600
8.806600 30.902300
8.819600 30.809100
8.832700 30.300800
8.845800 28.611300
8.858900 25.260800
8.871900 20.500400
8.885000 15.271200
8.898100 10.759500
8.911200 7.892600
8.924300 7.047500
8.937300 8.021700
8.950400 10.203400
8.963500 12.879500
8.976600 15.573200
8.989700 18.194000
9.002700 20.817400
9.015800 23.235000
9.028900 24.722800
9.042000 24.363200
9.055000 21.716600
9.068100 17.248800
9.081200 12.133500
9.094300 7.633900
9.107400 4.590500
9.120400 3.324400
9.133500 3.835900
9.146600 5.974800
9.159700 9.410100
9.172800 13.525200
9.185800 17.496200
9.198900 20.641000
9.212000 22.778000
9.225100 24.207500
9.238100 25.247800
9.251200 25.747700
9.264300 25.094100
9.277400 22.762900
9.290500 18.917000
9.303500 14.519400
9.316600 10.895600
9.329700 9.128600
9.342800 9.674800
9.355900 12.297800
9.368900 16.202600
9.382000 20.272700
9.395100 23.419700
9.408200 25.024700
9.421200 25.304000
9.434300 25.336700
9.447400 26.598600
9.460500 30.119400
9.473600 35.673900
9.486600 41.559300
9.499700 45.299000
9.512800 45.024800
9.525900 40.678800
9.539000 34.152200
9.552000 28.201000
9.565100 24.872100
9.578200 24.477600
9.591300 25.688000
9.604300 26.532200
9.617400 25.560000
9.630500 22.461400
9.643600 17.917000
9.656700 12.996700
9.669700 8.597400
9.682800 5.193200
9.695900 2.871400
9.709000 1.495800
9.722100 0.880800
9.735100 0.930200
9.748200 1.715700
9.761300 3.458300
9.774400 6.388200
9.787400 10.525100
9.800500 15.517400
9.813600 20.690400
9.826700 25.298500
9.839800 28.783900
9.852800 30.862400
9.865900 31.492000
9.879000 30.910100
9.892100 29.717400
9.905200 28.748900
9.918200 28.629200
9.931300 29.344800
9.944400 30.297300
9.957500 30.847600
9.970500 30.831000
9.983600 30.539700
9.996700 30.233600
10.009800 29.721300
10.022900 28.458100
10.035900 26.077800
10.049000 22.868400
10.062100 19.759400
10.075200 17.821400
10.088300 17.655800
10.101300 19.096000
10.114400 21.388700
10.127500 23.727400
10.140600 25.808700
10.153600 28.019500
10.166700 31.046000
10.179800 35.114400
10.192900 39.440300
10.206000 42.394300
10.219000 42.355300
10.232100 38.694500
10.245200 32.240100
10.258300 24.954300
10.271400 19.063300
10.284400 16.148700
10.297500 16.621700
10.310600 19.722400
10.323700 23.936500
10.336700 27.600400
10.349800 29.463900
10.362900 29.062400
10.376000 26.846400
10.389100 24.046900
10.402100 22.250300
10.415200 22.744300
10.428300 25.891000
10.441400 30.883200
10.454500 36.071800
10.467500 39.696300
10.480600 40.583400
10.493700 38.445800
10.506800 33.750400
10.519800 27.408400
10.532900 20.515200
10.546000 14.166300
10.559100 9.291500
10.572200 6.529300
10.585200 6.194600
10.598300 8.304700
10.611400 12.569100
10.624500 18.341900
10.637600 24.660600
10.650600 30.452700
10.663700 34.815800
10.676800 37.184700
10.689900 37.327600
10.702900 35.299100
10.716000 31.495500
10.729100 26.770700
10.742200 22.391600
10.755300 19.674000
10.768300 19.408600
10.781400 21.425300
10.794500 24.626300
10.807600 27.544400
10.820700 29.148700
10.833700 29.418600
10.846800 29.298500
10.859900 30.009800
10.873000 32.158700
10.886000 35.281400
10.899100 38.172700
10.912200 39.734400
10.925300 39.656400
10.938400 38.421900
10.951400 36.736700
10.964500 34.930700
10.977600 32.788200
10.990700 29.843200
11.003800 25.870900
11.016800 21.264600
11.029900 17.100300
11.043000 14.836700
11.056100 15.751300
11.069100 20.312500
11.082200 27.745600
11.095300 36.076900
11.108400 42.823600
11.121500 46.122600
11.134500 45.655800
11.147600 42.714300
11.160700 39.329000
11.173800 37.101600
11.186900 36.524700
11.199900 37.071100
11.213000 37.721400
11.226100 37.469300
11.239200 35.629500
11.252200 32.032100
11.265300 27.136600
11.278400 21.976600
11.291500 17.873600
11.304600 16.006000
11.317600 16.998600
11.330700 20.676400
11.343800 26.084400
11.356900 31.789900
11.370000 36.356300
11.383000 38.808900
11.396100 38.960200
11.409200 37.517600
11.422300 35.865100
11.435300 35.451200
11.448400 36.971400
11.461500 39.848000
11.474600 42.457100
11.487700 43.062500
11.500700 40.868000
11.513800 36.475700
11.526900 31.451500
11.540000 27.326800
11.553100 24.755500
11.566100 23.398300
11.579200 22.517800
11.592300 21.710900
11.605400 21.161900
11.618400 21.290200
11.631500 22.215600
11.644600 23.571900
11.657700 24.820200
11.670800 25.728400
11.683800 26.520800
11.696900 27.518900
11.710000 28.624100
11.723100 29.198000
11.736200 28.530000
11.749200 26.497500
11.762300 23.826500
11.775400 21.707900
11.788500 21.041200
11.801500 21.822500
11.814600 23.080600
11.827700 23.418600
11.840800 21.829900
11.853900 18.257400
11.866900 13.539700
11.880000 8.852200
11.893100 5.087100
11.906200 2.565300
11.919300 1.134000
11.932300 0.439100
11.945400 0.148800
11.958500 0.044200
11.971600 0.011500
11.984600 0.002600
11.997700 0.000500
12.010800 0.000100
12.023900 0.000000
12.037000 0.000000
12.050000 0.000000
12.063100 0.000000
12.076200 0.000000
12.089300 0.000000
12.102400 0.000000
12.115400 0.000000
12.128500 0.000000
12.141600 0.000000
12.154700 0.000000
12.167700 0.000000
12.180800 0.000000
12.193900 0.000000
12.207000 0.000000
12.220100 0.000000
12.233100 0.000000
12.246200 0.000000
12.259300 0.000000
12.272400 0.000000
12.285500 0.000000
12.298500 0.000000
12.311600 0.000000
12.324700 0.000000
12.337800 0.000000
12.350800 0.000000
12.363900 0.000000
12.377000 0.000000
12.390100 0.000000
12.403200 0.000000
12.416200 0.000000
12.429300 0.000000
12.442400 0.000000
12.455500 0.000000
12.468600 0.000000
12.481600 0.000000
12.494700 0.000000
12.507800 0.000000
12.520900 0.000000
12.534000 0.000000
12.547000 0.000000
12.560100 0.000000
12.573200 0.000000
12.586300 0.000000
12.599300 0.000000
12.612400 0.000000
12.625500 0.000000
12.638600 0.000000
12.651700 0.000000
12.664700 0.000000
12.677800 0.000000
12.690900 0.000000
12.704000 0.000000
12.717100 0.000000
12.730100 0.000000
12.743200 0.000000
12.756300 0.000000
12.769400 0.000000
12.782400 0.000000
12.795500 0.000000
12.808600 0.000000
12.821700 0.000000
12.834800 0.000000
12.847800 0.000000
12.860900 0.000000
12.874000 0.000000
12.887100 0.000000
12.900200 0.000000
12.913200 0.000000
12.926300 0.000000
12.939400 0.000000
12.952500 0.000000
12.965500 0.000000
12.978600 0.000000
12.991700 0.000000
13.004800 0.000000
13.017900 0.000000
e
