set title 'mp-130 - Density of States'
set xlabel 'Energy (eV)'
set ylabel 'DOS (states/eV)'
set grid
set xrange [-10:10]
set yrange [0:1.944]
set xzeroaxis lt -1
set terminal png size 800,600
set output 'mp-130_dos_gnuplot.png'
plot '-' using 1:2 with lines title 'DOS'
-9.490400 0.000000
-9.469100 0.000000
-9.447800 0.000000
-9.426600 0.000000
-9.405300 0.000000
-9.384000 0.000000
-9.362700 0.000000
-9.341400 0.000000
-9.320100 0.000000
-9.298800 0.000000
-9.277500 0.000000
-9.256200 0.000000
-9.235000 0.000000
-9.213700 0.000000
-9.192400 0.000000
-9.171100 0.000000
-9.149800 0.000000
-9.128500 0.000000
-9.107200 0.000000
-9.085900 0.000000
-9.064700 0.000000
-9.043400 0.000000
-9.022100 0.000000
-9.000800 0.000000
-8.979500 0.000000
-8.958200 0.000000
-8.936900 0.000000
-8.915600 0.000000
-8.894400 0.000000
-8.873100 0.000000
-8.851800 0.000000
-8.830500 0.000000
-8.809200 0.000000
-8.787900 0.000000
-8.766600 0.000000
-8.745300 0.000000
-8.724100 0.000000
-8.702800 0.000000
-8.681500 0.000000
-8.660200 0.000000
-8.638900 0.000000
-8.617600 0.000000
-8.596300 0.000000
-8.575000 0.000000
-8.553800 0.000000
-8.532500 0.000000
-8.511200 0.000000
-8.489900 0.000000
-8.468600 0.000000
-8.447300 0.000000
-8.426000 0.000000
-8.404700 0.000000
-8.383500 0.000000
-8.362200 0.000000
-8.340900 0.000000
-8.319600 0.000000
-8.298300 0.000000
-8.277000 0.000000
-8.255700 0.000000
-8.234400 0.000000
-8.213200 0.000000
-8.191900 0.000000
-8.170600 0.000000
-8.149300 0.000000
-8.128000 0.000000
-8.106700 0.000000
-8.085400 0.000000
-8.064100 0.000000
-8.042900 0.000000
-8.021600 0.000000
-8.000300 0.000000
-7.979000 0.000000
-7.957700 0.000000
-7.936400 0.000000
-7.915100 0.000000
-7.893800 0.000000
-7.872600 0.000000
-7.851300 0.000000
-7.830000 0.000000
-7.808700 0.000000
-7.787400 0.000000
-7.766100 0.000000
-7.744800 0.000000
-7.723500 0.000000
-7.702300 0.000000
-7.681000 0.000000
-7.659700 0.000000
-7.638400 0.000000
-7.617100 0.000000
-7.595800 0.000000
-7.574500 0.000000
-7.553200 0.005000
-7.532000 0.041900
-7.510700 0.056600
-7.489400 0.072800
-7.468100 0.082200
-7.446800 0.092900
-7.425500 0.100600
-7.404200 0.109600
-7.382900 0.118800
-7.361700 0.124800
-7.340400 0.132200
-7.319100 0.138800
-7.297800 0.144400
-7.276500 0.150000
-7.255200 0.156200
-7.233900 0.162800
-7.212600 0.168900
-7.191400 0.173600
-7.170100 0.178800
-7.148800 0.184000
-7.127500 0.188800
-7.106200 0.193300
-7.084900 0.197800
-7.063600 0.202600
-7.042300 0.207600
-7.021100 0.212700
-6.999800 0.217700
-6.978500 0.221700
-6.957200 0.226000
-6.935900 0.230300
-6.914600 0.234200
-6.893300 0.238200
-6.872000 0.242300
-6.850800 0.246300
-6.829500 0.250300
-6.808200 0.254400
-6.786900 0.258600
-6.765600 0.262900
-6.744300 0.267300
-6.723000 0.271200
-6.701700 0.274900
-6.680500 0.278700
-6.659200 0.282400
-6.637900 0.286000
-6.616600 0.289600
-6.595300 0.293300
-6.574000 0.297000
-6.552700 0.300700
-6.531400 0.304400
-6.510200 0.308200
-6.488900 0.312100
-6.467600 0.316000
-6.446300 0.319900
-6.425000 0.323900
-6.403700 0.327500
-6.382400 0.331100
-6.361100 0.334700
-6.339900 0.338200
-6.318600 0.341700
-6.297300 0.345400
-6.276000 0.349100
-6.254700 0.352800
-6.233400 0.356500
-6.212100 0.360200
-6.190800 0.364000
-6.169600 0.367800
-6.148300 0.371600
-6.127000 0.375500
-6.105700 0.379500
-6.084400 0.383500
-6.063100 0.387500
-6.041800 0.391500
-6.020500 0.395300
-5.999300 0.399200
-5.978000 0.403300
-5.956700 0.407300
-5.935400 0.411500
-5.914100 0.415700
-5.892800 0.420000
-5.871500 0.424500
-5.850200 0.429000
-5.829000 0.433600
-5.807700 0.438200
-5.786400 0.442900
-5.765100 0.447700
-5.743800 0.452700
-5.722500 0.457900
-5.701200 0.463500
-5.679900 0.469400
-5.658700 0.475900
-5.637400 0.482900
-5.616100 0.490200
-5.594800 0.498600
-5.573500 0.509000
-5.552200 0.522800
-5.530900 0.549900
-5.509600 0.543000
-5.488400 0.544800
-5.467100 0.541600
-5.445800 0.544400
-5.424500 0.546900
-5.403200 0.548800
-5.381900 0.547100
-5.360600 0.549400
-5.339300 0.550900
-5.318100 0.551900
-5.296800 0.553100
-5.275500 0.554500
-5.254200 0.555500
-5.232900 0.555600
-5.211600 0.556200
-5.190300 0.557600
-5.169000 0.559000
-5.147800 0.560400
-5.126500 0.561800
-5.105200 0.563100
-5.083900 0.564900
-5.062600 0.565900
-5.041300 0.566200
-5.020000 0.567600
-4.998700 0.569300
-4.977500 0.571200
-4.956200 0.573000
-4.934900 0.574600
-4.913600 0.576400
-4.892300 0.578300
-4.871000 0.580200
-4.849700 0.582000
-4.828400 0.583800
-4.807200 0.585600
-4.785900 0.587400
-4.764600 0.589700
-4.743300 0.592100
-4.722000 0.594600
-4.700700 0.597300
-4.679400 0.600000
-4.658100 0.602800
-4.636900 0.605700
-4.615600 0.608900
-4.594300 0.612300
-4.573000 0.615700
-4.551700 0.618900
-4.530400 0.622300
-4.509100 0.626400
-4.487800 0.630900
-4.466600 0.635800
-4.445300 0.641200
-4.424000 0.646900
-4.402700 0.652900
-4.381400 0.659500
-4.360100 0.667100
-4.338800 0.675600
-4.317500 0.685100
-4.296300 0.695900
-4.275000 0.709900
-4.253700 0.728600
-4.232400 0.749700
-4.211100 0.767500
-4.189800 0.791700
-4.168500 0.794200
-4.147200 0.788700
-4.125900 0.788300
-4.104700 0.791000
-4.083400 0.786600
-4.062100 0.787200
-4.040800 0.797400
-4.019500 0.809500
-3.998200 0.821700
-3.976900 0.842000
-3.955600 0.862300
-3.934400 0.895500
-3.913100 0.913200
-3.891800 0.883000
-3.870500 0.876500
-3.849200 0.855700
-3.827900 0.842200
-3.806600 0.827800
-3.785300 0.756600
-3.764100 0.672600
-3.742800 0.622000
-3.721500 0.596400
-3.700200 0.566900
-3.678900 0.533900
-3.657600 0.509400
-3.636300 0.490200
-3.615000 0.472400
-3.593800 0.451300
-3.572500 0.432700
-3.551200 0.417600
-3.529900 0.400200
-3.508600 0.378600
-3.487300 0.364600
-3.466000 0.350200
-3.444700 0.335600
-3.423500 0.321700
-3.402200 0.306900
-3.380900 0.292200
-3.359600 0.279000
-3.338300 0.266200
-3.317000 0.254100
-3.295700 0.244400
-3.274400 0.234800
-3.253200 0.224000
-3.231900 0.213600
-3.210600 0.203100
-3.189300 0.193100
-3.168000 0.184300
-3.146700 0.175800
-3.125400 0.166900
-3.104100 0.159000
-3.082900 0.152400
-3.061600 0.140500
-3.040300 0.097700
-3.019000 0.070400
-2.997700 0.067000
-2.976400 0.074900
-2.955100 0.087100
-2.933800 0.103000
-2.912600 0.119800
-2.891300 0.134800
-2.870000 0.149200
-2.848700 0.160700
-2.827400 0.170400
-2.806100 0.187600
-2.784800 0.223000
-2.763500 0.252700
-2.742300 0.281100
-2.721000 0.318500
-2.699700 0.359900
-2.678400 0.398900
-2.657100 0.434800
-2.635800 0.468800
-2.614500 0.474200
-2.593200 0.458600
-2.572000 0.457200
-2.550700 0.456500
-2.529400 0.459900
-2.508100 0.461200
-2.486800 0.463600
-2.465500 0.468900
-2.444200 0.475700
-2.422900 0.478500
-2.401700 0.477200
-2.380400 0.477600
-2.359100 0.478800
-2.337800 0.480800
-2.316500 0.483400
-2.295200 0.485900
-2.273900 0.489000
-2.252600 0.492300
-2.231400 0.495100
-2.210100 0.496900
-2.188800 0.498300
-2.167500 0.501300
-2.146200 0.503900
-2.124900 0.506600
-2.103600 0.509500
-2.082300 0.512500
-2.061100 0.514800
-2.039800 0.516700
-2.018500 0.519600
-1.997200 0.533200
-1.975900 0.552400
-1.954600 0.564000
-1.933300 0.568200
-1.912000 0.579900
-1.890800 0.591800
-1.869500 0.599100
-1.848200 0.608700
-1.826900 0.617200
-1.805600 0.622600
-1.784300 0.628600
-1.763000 0.634200
-1.741700 0.641600
-1.720500 0.649900
-1.699200 0.659100
-1.677900 0.669300
-1.656600 0.679000
-1.635300 0.689800
-1.614000 0.699000
-1.592700 0.705700
-1.571400 0.715900
-1.550200 0.727700
-1.528900 0.740500
-1.507600 0.753900
-1.486300 0.768700
-1.465000 0.783300
-1.443700 0.802500
-1.422400 0.829000
-1.401100 0.868100
-1.379900 0.945700
-1.358600 0.999600
-1.337300 0.948400
-1.316000 0.938800
-1.294700 0.964300
-1.273400 0.886000
-1.252100 0.848600
-1.230800 0.823900
-1.209600 0.800000
-1.188300 0.789100
-1.167000 0.767600
-1.145700 0.753000
-1.124400 0.743700
-1.103100 0.722800
-1.081800 0.693200
-1.060500 0.670300
-1.039300 0.650000
-1.018000 0.632000
-0.996700 0.615500
-0.975400 0.600900
-0.954100 0.587500
-0.932800 0.575100
-0.911500 0.563500
-0.890200 0.552400
-0.869000 0.541500
-0.847700 0.531000
-0.826400 0.518400
-0.805100 0.509400
-0.783800 0.501100
-0.762500 0.493100
-0.741200 0.485300
-0.719900 0.478100
-0.698700 0.471200
-0.677400 0.464300
-0.656100 0.457300
-0.634800 0.451000
-0.613500 0.445200
-0.592200 0.439500
-0.570900 0.433700
-0.549600 0.427700
-0.528400 0.421800
-0.507100 0.416100
-0.485800 0.410400
-0.464500 0.404000
-0.443200 0.397900
-0.421900 0.392300
-0.400600 0.387100
-0.379300 0.381900
-0.358100 0.376000
-0.336800 0.370600
-0.315500 0.365100
-0.294200 0.360000
-0.272900 0.355100
-0.251600 0.350400
-0.230300 0.346000
-0.209000 0.342100
-0.187800 0.338600
-0.166500 0.335200
-0.145200 0.331100
-0.123900 0.327400
-0.102600 0.324000
-0.081300 0.320400
-0.060000 0.316400
-0.038700 0.312600
-0.017500 0.309100
0.003800 0.305400
0.025100 0.301500
0.046400 0.297200
0.067700 0.293200
0.089000 0.289200
0.110300 0.285600
0.131600 0.282200
0.152800 0.278300
0.174100 0.274800
0.195400 0.271700
0.216700 0.268500
0.238000 0.265000
0.259300 0.261000
0.280600 0.257100
0.301900 0.253600
0.323100 0.250400
0.344400 0.247400
0.365700 0.244900
0.387000 0.242700
0.408300 0.240400
0.429600 0.238200
0.450900 0.236000
0.472200 0.233700
0.493400 0.231200
0.514700 0.228600
0.536000 0.225900
0.557300 0.222900
0.578600 0.219700
0.599900 0.216200
0.621200 0.212900
0.642500 0.209900
0.663700 0.207300
0.685000 0.204800
0.706300 0.202200
0.727600 0.199600
0.748900 0.197100
0.770200 0.194700
0.791500 0.192200
0.812800 0.189700
0.834000 0.187400
0.855300 0.185200
0.876600 0.183000
0.897900 0.180700
0.919200 0.178200
0.940500 0.175800
0.961800 0.173900
0.983100 0.172300
1.004300 0.174600
1.025600 0.223800
1.046900 0.325100
1.068200 0.377100
1.089500 0.426400
1.110800 0.485800
1.132100 0.534900
1.153400 0.568700
1.174700 0.607700
1.195900 0.664200
1.217200 0.727400
1.238500 0.788300
1.259800 0.819600
1.281100 0.849600
1.302400 0.887700
1.323700 0.893100
1.345000 0.885100
1.366200 0.877900
1.387500 0.883300
1.408800 0.893900
1.430100 0.892200
1.451400 0.890500
1.472700 0.879400
1.494000 0.862800
1.515300 0.847300
1.536500 0.834500
1.557800 0.824800
1.579100 0.813900
1.600400 0.799600
1.621700 0.785100
1.643000 0.773600
1.664300 0.764800
1.685600 0.759000
1.706800 0.754200
1.728100 0.749200
1.749400 0.747300
1.770700 0.745700
1.792000 0.746100
1.813300 0.747500
1.834600 0.747300
1.855900 0.747700
1.877100 0.748800
1.898400 0.747300
1.919700 0.743800
1.941000 0.736600
1.962300 0.731300
1.983600 0.727400
2.004900 0.724900
2.026200 0.723400
2.047400 0.723300
2.068700 0.723800
2.090000 0.725200
2.111300 0.727100
2.132600 0.729800
2.153900 0.732500
2.175200 0.734600
2.196500 0.736700
2.217700 0.739700
2.239000 0.742100
2.260300 0.744000
2.281600 0.745200
2.302900 0.746400
2.324200 0.747500
2.345500 0.748200
2.366800 0.749300
2.388000 0.750100
2.409300 0.752100
2.430600 0.753900
2.451900 0.756300
2.473200 0.759100
2.494500 0.762300
2.515800 0.765800
2.537100 0.770400
2.558300 0.775700
2.579600 0.780400
2.600900 0.784600
2.622200 0.790000
2.643500 0.795100
2.664800 0.799100
2.686100 0.802800
2.707400 0.806400
2.728600 0.809600
2.749900 0.812700
2.771200 0.816400
2.792500 0.820500
2.813800 0.824800
2.835100 0.829100
2.856400 0.833600
2.877700 0.838100
2.898900 0.843400
2.920200 0.849100
2.941500 0.855200
2.962800 0.861900
2.984100 0.868500
3.005400 0.875300
3.026700 0.882700
3.048000 0.890100
3.069200 0.896700
3.090500 0.903800
3.111800 0.911000
3.133100 0.918500
3.154400 0.926600
3.175700 0.936700
3.197000 0.945600
3.218300 0.954900
3.239500 0.965500
3.260800 0.977300
3.282100 0.990400
3.303400 1.005100
3.324700 1.022600
3.346000 1.044900
3.367300 1.135200
3.388600 1.194700
3.409800 1.177900
3.431100 1.152200
3.452400 1.148100
3.473700 1.150400
3.495000 1.147000
3.516300 1.127400
3.537600 1.124700
3.558900 1.122600
3.580100 1.127100
3.601400 1.128300
3.622700 1.130600
3.644000 1.133000
3.665300 1.132600
3.686600 1.130400
3.707900 1.125800
3.729200 1.122300
3.750400 1.121500
3.771700 1.119900
3.793000 1.119700
3.814300 1.120100
3.835600 1.118700
3.856900 1.116000
3.878200 1.113100
3.899500 1.111800
3.920700 1.109900
3.942000 1.106500
3.963300 1.102600
3.984600 1.101500
4.005900 1.101400
4.027200 1.102100
4.048500 1.103300
4.069800 1.104300
4.091000 1.105200
4.112300 1.105800
4.133600 1.106300
4.154900 1.106200
4.176200 1.103700
4.197500 1.101100
4.218800 1.099000
4.240100 1.095900
4.261300 1.093400
4.282600 1.091700
4.303900 1.091800
4.325200 1.091200
4.346500 1.090800
4.367800 1.090700
4.389100 1.090800
4.410400 1.091500
4.431600 1.093300
4.452900 1.095500
4.474200 1.098200
4.495500 1.100100
4.516800 1.100600
4.538100 1.100800
4.559400 1.100200
4.580700 1.099400
4.601900 1.098900
4.623200 1.098300
4.644500 1.097000
4.665800 1.095500
4.687100 1.094000
4.708400 1.093000
4.729700 1.092900
4.751000 1.093200
4.772200 1.093500
4.793500 1.094600
4.814800 1.095800
4.836100 1.096500
4.857400 1.097300
4.878700 1.098800
4.900000 1.101100
4.921300 1.106400
4.942500 1.116900
4.963800 1.107700
4.985100 1.095500
5.006400 1.079200
5.027700 1.064800
5.049000 1.052400
5.070300 1.045300
5.091600 1.040500
5.112800 1.037400
5.134100 1.037900
5.155400 1.037900
5.176700 1.035800
5.198000 1.034900
5.219300 1.035500
5.240600 1.038800
5.261900 1.043100
5.283100 1.046100
5.304400 1.048200
5.325700 1.051200
5.347000 1.055300
5.368300 1.060200
5.389600 1.060800
5.410900 1.064400
5.432200 1.069100
5.453400 1.073600
5.474700 1.078500
5.496000 1.087400
5.517300 1.097700
5.538600 1.108600
5.559900 1.121500
5.581200 1.133800
5.602500 1.128500
5.623700 1.133500
5.645000 1.135100
5.666300 1.131600
5.687600 1.128300
5.708900 1.127600
5.730200 1.127000
5.751500 1.129500
5.772800 1.122700
5.794000 1.120500
5.815300 1.145100
5.836600 1.183100
5.857900 1.132100
5.879200 1.088400
5.900500 1.067000
5.921800 1.087300
5.943100 1.061800
5.964300 1.007100
5.985600 0.954500
6.006900 0.921500
6.028200 0.822400
6.049500 0.804000
6.070800 0.789300
6.092100 0.779400
6.113400 0.766900
6.134600 0.757200
6.155900 0.751600
6.177200 0.747000
6.198500 0.744700
6.219800 0.744800
6.241100 0.740500
6.262400 0.734100
6.283700 0.725900
6.305000 0.719800
6.326200 0.715700
6.347500 0.713700
6.368800 0.714700
6.390100 0.713700
6.411400 0.706100
6.432700 0.707400
6.454000 0.708200
6.475300 0.700100
6.496500 0.688600
6.517800 0.688400
6.539100 0.690300
6.560400 0.688800
6.581700 0.697100
6.603000 0.698000
6.624300 0.699000
6.645600 0.705200
6.666800 0.709500
6.688100 0.711300
6.709400 0.714700
6.730700 0.731900
6.752000 0.729000
6.773300 0.728700
6.794600 0.732900
6.815900 0.739100
6.837100 0.750700
6.858400 0.757800
6.879700 0.772900
6.901000 0.796000
6.922300 0.815100
6.943600 0.821700
6.964900 0.811200
6.986200 0.806700
7.007400 0.798400
7.028700 0.786800
7.050000 0.774200
7.071300 0.759300
7.092600 0.744300
7.113900 0.740400
7.135200 0.724000
7.156500 0.703800
7.177700 0.690100
7.199000 0.676000
7.220300 0.664300
7.241600 0.657500
7.262900 0.647800
7.284200 0.640800
7.305500 0.631700
7.326800 0.621800
7.348000 0.613800
7.369300 0.610300
7.390600 0.611000
7.411900 0.606000
7.433200 0.593400
7.454500 0.588300
7.475800 0.578800
7.497100 0.570200
7.518300 0.559300
7.539600 0.548600
7.560900 0.540700
7.582200 0.535000
7.603500 0.531100
7.624800 0.525400
7.646100 0.519700
7.667400 0.514700
7.688600 0.509800
7.709900 0.503800
7.731200 0.498600
7.752500 0.494100
7.773800 0.486100
7.795100 0.474700
7.816400 0.466700
7.837700 0.451900
7.858900 0.438100
7.880200 0.421200
7.901500 0.403700
7.922800 0.386000
7.944100 0.370600
7.965400 0.353300
7.986700 0.337500
8.008000 0.325800
8.029200 0.319800
8.050500 0.314400
8.071800 0.307300
8.093100 0.305300
8.114400 0.281400
8.135700 0.267700
8.157000 0.258500
8.178300 0.248900
8.199500 0.241600
8.220800 0.237400
8.242100 0.228400
8.263400 0.220200
8.284700 0.212800
8.306000 0.208100
8.327300 0.203300
8.348600 0.197800
8.369800 0.192900
8.391100 0.189800
8.412400 0.189000
8.433700 0.185900
8.455000 0.184500
8.476300 0.178800
8.497600 0.170100
8.518900 0.161400
8.540100 0.156700
8.561400 0.150300
8.582700 0.145300
8.604000 0.158100
8.625300 0.156300
8.646600 0.156400
8.667900 0.159600
8.689200 0.170300
8.710400 0.189600
8.731700 0.182700
8.753000 0.186400
8.774300 0.195500
8.795600 0.212800
8.816900 0.229900
8.838200 0.253500
8.859500 0.276100
8.880700 0.302100
8.902000 0.304900
8.923300 0.318600
8.944600 0.345200
8.965900 0.381400
8.987200 0.405400
9.008500 0.425400
9.029800 0.473400
9.051000 0.528900
9.072300 0.579700
9.093600 0.615400
9.114900 0.648200
9.136200 0.684700
9.157500 0.729900
9.178800 0.771700
9.200100 0.804800
9.221300 0.846300
9.242600 0.913200
9.263900 0.975600
9.285200 1.027100
9.306500 1.068100
9.327800 1.117900
9.349100 1.185900
9.370400 1.267300
9.391600 1.264400
9.412900 1.300100
9.434200 1.305100
9.455500 1.307900
9.476800 1.305600
9.498100 1.296900
9.519400 1.300700
9.540700 1.321200
9.561900 1.339700
9.583200 1.353700
9.604500 1.360000
9.625800 1.361600
9.647100 1.370700
9.668400 1.386700
9.689700 1.395700
9.711000 1.419400
9.732200 1.445600
9.753500 1.478900
9.774800 1.497400
9.796100 1.499800
9.817400 1.516100
9.838700 1.544600
9.860000 1.587800
9.881300 1.637900
9.902500 1.662000
9.923800 1.693600
9.945100 1.738200
9.966400 1.767700
9.987700 1.756500
10.009000 1.731900
10.030300 1.688200
10.051600 1.673300
10.072800 1.669900
10.094100 1.645300
10.115400 1.612500
10.136700 1.588700
10.158000 1.571500
10.179300 1.548000
10.200600 1.523200
10.221900 1.527900
10.243100 1.537500
10.264400 1.527800
10.285700 1.584400
10.307000 1.531300
10.328300 1.515300
10.349600 1.494200
10.370900 1.484800
10.392200 1.478600
10.413400 1.472500
10.434700 1.474100
10.456000 1.476800
10.477300 1.482900
10.498600 1.494000
10.519900 1.513200
10.541200 1.529200
10.562500 1.540200
10.583700 1.563800
10.605000 1.579200
10.626300 1.554200
10.647600 1.497400
10.668900 1.481100
10.690200 1.389400
10.711500 1.324100
10.732800 1.279000
10.754000 1.244800
10.775300 1.224100
10.796600 1.202100
10.817900 1.186800
10.839200 1.162900
10.860500 1.145300
10.881800 1.109000
10.903100 1.086500
10.924300 1.065500
10.945600 1.044000
10.966900 1.027700
10.988200 1.023000
11.009500 1.009900
11.030800 0.980000
11.052100 0.954600
11.073400 0.932900
11.094600 0.914000
11.115900 0.906100
11.137200 0.891800
11.158500 0.878100
11.179800 0.877900
11.201100 0.881800
11.222400 0.879200
11.243700 0.882000
11.264900 0.892800
11.286200 0.884300
11.307500 0.889600
11.328800 0.899400
11.350100 0.912800
11.371400 0.920800
11.392700 0.927800
11.414000 0.937600
11.435200 0.960800
11.456500 1.004200
11.477800 1.036700
11.499100 1.069600
11.520400 1.114100
11.541700 1.127400
11.563000 1.162900
11.584300 1.183900
11.605600 1.196600
11.626800 1.219400
11.648100 1.274400
11.669400 1.206900
11.690700 1.202400
11.712000 1.189400
11.733300 1.175400
11.754600 1.165500
11.775900 1.165900
11.797100 1.172600
11.818400 1.182900
11.839700 1.194200
11.861000 1.203500
11.882300 1.214300
11.903600 1.230700
11.924900 1.238200
11.946200 1.252700
11.967400 1.269500
11.988700 1.289900
12.010000 1.306300
12.031300 1.304800
12.052600 1.299300
12.073900 1.289600
12.095200 1.278300
12.116500 1.270400
12.137700 1.251800
12.159000 1.233900
12.180300 1.215000
12.201600 1.197800
12.222900 1.184300
12.244200 1.173500
12.265500 1.154900
12.286800 1.141900
12.308000 1.128600
12.329300 1.109600
12.350600 1.092800
12.371900 1.078000
12.393200 1.065800
12.414500 1.061500
12.435800 1.058000
12.457100 1.051100
12.478300 1.040100
12.499600 1.034300
12.520900 1.029400
12.542200 1.023200
12.563500 1.016700
12.584800 1.018600
12.606100 1.012500
12.627400 0.990100
12.648600 0.971400
12.669900 0.957000
12.691200 0.946200
12.712500 0.935400
12.733800 0.926300
12.755100 0.920100
12.776400 0.911800
12.797700 0.898800
12.818900 0.885000
12.840200 0.879800
12.861500 0.876900
12.882800 0.875300
12.904100 0.889700
12.925400 0.912300
12.946700 0.938500
12.968000 0.948400
12.989200 0.962200
13.010500 0.954100
13.031800 0.951300
13.053100 0.951400
13.074400 0.952500
13.095700 0.928800
13.117000 0.916100
13.138300 0.916800
13.159500 0.918200
13.180800 0.919100
13.202100 0.920300
13.223400 0.922800
13.244700 0.926800
13.266000 0.930900
13.287300 0.935600
13.308600 0.946500
13.329800 0.956300
13.351100 0.957000
13.372400 0.960300
13.393700 0.963100
13.415000 0.958100
13.436300 0.943800
13.457600 0.935600
13.478900 0.932100
13.500100 0.934600
13.521400 0.933300
13.542700 0.932600
13.564000 0.933200
13.585300 0.931000
13.606600 0.924300
13.627900 0.933600
13.649200 0.934600
13.670400 0.934400
13.691700 0.936800
13.713000 0.950000
13.734300 0.952900
13.755600 0.954700
13.776900 0.959300
13.798200 0.965100
13.819500 0.973000
13.840700 0.982700
13.862000 0.989900
13.883300 0.997400
13.904600 1.009300
13.925900 1.038800
13.947200 1.062000
13.968500 1.067200
13.989800 1.091900
14.011000 1.104700
14.032300 1.129700
14.053600 1.125100
14.074900 1.123800
14.096200 1.132700
14.117500 1.133900
14.138800 1.135200
14.160100 1.141400
14.181300 1.150300
14.202600 1.159400
14.223900 1.161700
14.245200 1.161500
14.266500 1.151500
14.287800 1.142000
14.309100 1.135700
14.330400 1.133100
14.351600 1.128700
14.372900 1.126100
14.394200 1.131400
14.415500 1.135300
14.436800 1.142600
14.458100 1.140800
14.479400 1.141800
14.500700 1.136200
14.521900 1.132600
14.543200 1.136200
14.564500 1.151900
14.585800 1.139100
14.607100 1.137100
14.628400 1.135900
14.649700 1.141700
14.671000 1.146100
14.692200 1.152600
14.713500 1.158100
14.734800 1.162300
14.756100 1.166100
14.777400 1.180000
14.798700 1.187800
14.820000 1.197400
14.841300 1.207400
14.862500 1.218400
14.883800 1.230900
14.905100 1.244600
14.926400 1.256500
14.947700 1.269400
14.969000 1.282700
14.990300 1.296100
15.011600 1.311300
15.032800 1.329500
15.054100 1.351700
15.075400 1.365700
15.096700 1.368800
15.118000 1.376600
15.139300 1.378600
15.160600 1.387000
15.181900 1.396000
15.203100 1.397400
15.224400 1.403600
15.245700 1.407300
15.267000 1.410200
15.288300 1.416700
15.309600 1.429900
15.330900 1.433300
15.352200 1.427800
15.373400 1.408500
15.394700 1.394000
15.416000 1.387400
15.437300 1.362400
15.458600 1.358000
15.479900 1.355800
15.501200 1.352700
15.522500 1.348300
15.543700 1.344400
15.565000 1.345100
15.586300 1.345200
15.607600 1.340700
15.628900 1.335500
15.650200 1.332900
15.671500 1.319700
15.692800 1.304700
15.714000 1.297200
15.735300 1.290900
15.756600 1.276400
15.777900 1.250900
15.799200 1.212600
15.820500 1.170500
15.841800 1.131700
15.863100 1.094700
15.884300 1.065600
15.905600 1.035900
15.926900 1.013200
15.948200 1.001100
15.969500 0.993000
15.990800 0.980000
16.012100 0.931600
16.033400 0.922700
16.054600 0.907500
16.075900 0.889500
16.097200 0.869600
16.118500 0.855300
16.139800 0.846900
16.161100 0.841900
16.182400 0.839300
16.203700 0.838500
16.224900 0.838100
16.246200 0.838800
16.267500 0.840900
16.288800 0.842100
16.310100 0.846900
16.331400 0.858100
16.352700 0.868300
16.374000 0.868900
16.395200 0.870700
16.416500 0.893100
16.437800 0.913600
16.459100 0.929400
16.480400 0.946100
16.501700 0.961900
16.523000 0.976900
16.544300 0.984500
16.565500 0.988800
16.586800 0.995800
16.608100 1.002800
16.629400 1.010800
16.650700 1.025600
16.672000 1.026300
16.693300 1.032300
16.714600 1.034400
16.735900 1.034600
16.757100 1.037700
16.778400 1.035000
16.799700 1.024400
16.821000 1.018600
16.842300 1.015400
16.863600 1.012600
16.884900 1.005300
16.906200 0.995800
16.927400 0.987400
16.948700 0.979400
16.970000 0.966100
16.991300 0.954700
17.012600 0.943100
17.033900 0.927300
17.055200 0.922500
17.076500 0.920100
17.097700 0.917800
17.119000 0.915800
17.140300 0.914800
17.161600 0.914700
17.182900 0.914800
17.204200 0.914600
17.225500 0.915200
17.246800 0.920400
17.268000 0.918100
17.289300 0.917200
17.310600 0.916500
17.331900 0.916400
17.353200 0.916900
17.374500 0.918200
17.395800 0.918400
17.417100 0.919100
17.438300 0.920200
17.459600 0.920100
17.480900 0.921700
17.502200 0.925700
17.523500 0.931400
17.544800 0.933700
17.566100 0.935300
17.587400 0.936500
17.608600 0.940500
17.629900 0.946200
17.651200 0.954100
17.672500 0.963800
17.693800 0.973600
17.715100 0.982000
17.736400 0.991900
17.757700 1.004000
17.778900 1.018200
17.800200 1.031600
17.821500 1.041500
17.842800 1.050700
17.864100 1.061800
17.885400 1.070500
17.906700 1.078200
17.928000 1.084400
17.949200 1.089000
17.970500 1.095000
17.991800 1.101000
18.013100 1.100800
18.034400 1.099200
18.055700 1.100900
18.077000 1.103400
18.098300 1.106200
18.119500 1.107900
18.140800 1.106800
18.162100 1.106900
18.183400 1.106200
18.204700 1.106700
18.226000 1.109000
18.247300 1.114300
18.268600 1.122200
18.289800 1.133200
18.311100 1.147100
18.332400 1.167800
18.353700 1.147600
18.375000 1.146800
18.396300 1.144500
18.417600 1.140200
18.438900 1.136100
18.460100 1.135800
18.481400 1.138100
18.502700 1.139200
18.524000 1.139800
18.545300 1.145200
18.566600 1.150200
18.587900 1.157200
18.609200 1.166500
18.630400 1.171900
18.651700 1.176900
18.673000 1.182000
18.694300 1.183900
18.715600 1.182900
18.736900 1.178500
18.758200 1.170700
18.779500 1.161000
18.800700 1.152200
18.822000 1.144400
18.843300 1.136300
18.864600 1.127500
18.885900 1.118900
18.907200 1.109600
18.928500 1.100600
18.949800 1.091900
18.971000 1.084700
18.992300 1.080800
19.013600 1.078800
19.034900 1.075700
19.056200 1.070800
19.077500 1.064600
19.098800 1.058000
19.120100 1.050300
19.141300 1.042200
19.162600 1.031400
19.183900 1.018200
19.205200 1.007400
19.226500 1.003700
19.247800 0.985600
19.269100 0.978500
19.290400 0.970800
19.311600 0.967200
19.332900 0.962800
19.354200 0.961600
19.375500 0.966400
19.396800 0.972700
19.418100 0.977800
19.439400 0.985300
19.460700 0.997400
19.481900 1.002200
19.503200 1.015800
19.524500 1.032500
19.545800 1.040500
19.567100 1.046400
19.588400 1.053300
19.609700 1.063800
19.631000 1.077300
19.652200 1.076400
19.673500 1.087600
19.694800 1.098700
19.716100 1.106200
19.737400 1.114800
19.758700 1.126700
19.780000 1.125200
19.801300 1.118900
19.822500 1.110600
19.843800 1.082300
19.865100 1.087600
19.886400 1.072800
19.907700 1.061600
19.929000 1.055000
19.950300 1.047500
19.971600 1.044200
19.992800 1.037900
20.014100 1.032200
20.035400 1.086900
20.056700 1.043600
20.078000 1.041800
20.099300 1.027900
20.120600 1.018300
20.141900 1.012000
20.163100 1.009800
20.184400 1.013800
20.205700 1.018600
20.227000 1.020000
20.248300 1.044000
20.269600 1.043800
20.290900 1.057600
20.312200 1.068100
20.333400 1.079100
20.354700 1.072200
20.376000 1.062600
20.397300 1.055300
20.418600 1.052200
20.439900 1.060100
20.461200 1.075700
20.482500 1.085500
20.503700 1.118300
20.525000 1.183500
20.546300 1.198900
20.567600 1.230200
20.588900 1.237700
20.610200 1.243200
20.631500 1.263900
20.652800 1.272400
20.674000 1.275100
20.695300 1.276300
20.716600 1.274000
20.737900 1.272300
20.759200 1.277100
20.780500 1.285300
20.801800 1.294400
20.823100 1.307300
20.844300 1.326900
20.865600 1.356000
20.886900 1.387600
20.908200 1.412400
20.929500 1.434800
20.950800 1.439500
20.972100 1.446500
20.993400 1.451000
21.014600 1.463400
21.035900 1.483500
21.057200 1.497100
21.078500 1.510000
21.099800 1.517200
21.121100 1.523600
21.142400 1.534300
21.163700 1.500400
21.184900 1.490300
21.206200 1.503300
21.227500 1.515100
21.248800 1.534400
21.270100 1.547400
21.291400 1.568000
21.312700 1.591000
21.334000 1.624400
21.355200 1.662100
21.376500 1.690400
21.397800 1.713500
21.419100 1.712600
21.440400 1.679400
21.461700 1.661200
21.483000 1.656800
21.504300 1.664900
21.525500 1.659500
21.546800 1.676700
21.568100 1.689700
21.589400 1.671700
21.610700 1.637500
21.632000 1.630700
21.653300 1.597000
21.674600 1.566000
21.695800 1.540900
21.717100 1.523700
21.738400 1.502300
21.759700 1.473500
21.781000 1.455500
21.802300 1.434700
21.823600 1.400500
21.844900 1.369700
21.866200 1.345200
21.887400 1.328500
21.908700 1.307100
21.930000 1.282200
21.951300 1.256300
21.972600 1.237200
21.993900 1.237500
22.015200 1.233600
22.036500 1.210900
22.057700 1.196200
22.079000 1.182200
22.100300 1.167300
22.121600 1.163200
22.142900 1.155900
22.164200 1.156500
22.185500 1.161700
22.206800 1.173800
22.228000 1.193000
22.249300 1.230900
22.270600 1.271300
22.291900 1.293500
22.313200 1.317400
22.334500 1.350800
22.355800 1.382100
22.377100 1.428600
22.398300 1.471600
22.419600 1.468800
22.440900 1.466500
22.462200 1.470200
22.483500 1.477900
22.504800 1.500100
22.526100 1.524100
22.547400 1.552700
22.568600 1.577500
22.589900 1.601500
22.611200 1.625500
22.632500 1.647300
22.653800 1.688900
22.675100 1.729600
22.696400 1.767500
22.717700 1.811600
22.738900 1.825400
22.760200 1.830400
22.781500 1.856600
22.802800 1.848900
22.824100 1.856500
22.845400 1.878000
22.866700 1.870400
22.888000 1.841800
22.909200 1.840000
22.930500 1.832700
22.951800 1.827400
22.973100 1.799400
22.994400 1.757900
23.015700 1.715200
23.037000 1.685000
23.058300 1.668500
23.079500 1.658700
23.100800 1.642400
23.122100 1.613200
23.143400 1.588100
23.164700 1.579500
23.186000 1.570100
23.207300 1.552900
23.228600 1.517000
23.249800 1.492100
23.271100 1.479000
23.292400 1.452300
23.313700 1.437000
23.335000 1.428600
23.356300 1.424700
23.377600 1.424000
23.398900 1.423700
23.420100 1.429900
23.441400 1.443200
23.462700 1.467500
23.484000 1.494000
23.505300 1.521600
23.526600 1.519400
23.547900 1.517700
23.569200 1.513700
23.590400 1.511300
23.611700 1.513300
23.633000 1.524100
23.654300 1.530500
23.675600 1.538200
23.696900 1.537400
23.718200 1.544500
23.739500 1.544400
23.760700 1.551300
23.782000 1.565700
23.803300 1.555500
23.824600 1.545100
23.845900 1.533400
23.867200 1.523600
23.888500 1.512100
23.909800 1.509700
23.931000 1.502900
23.952300 1.486000
23.973600 1.474600
23.994900 1.473900
24.016200 1.465900
24.037500 1.461400
24.058800 1.458600
24.080100 1.446300
24.101300 1.439000
24.122600 1.368500
24.143900 1.337400
24.165200 1.312400
24.186500 1.299300
24.207800 1.288300
24.229100 1.282700
24.250400 1.281900
24.271600 1.287900
24.292900 1.294900
24.314200 1.306300
24.335500 1.329400
24.356800 1.331300
24.378100 1.328500
24.399400 1.344900
24.420700 1.355200
24.441900 1.351600
24.463200 1.340300
24.484500 1.329400
24.505800 1.320300
24.527100 1.316500
24.548400 1.293900
24.569700 1.266300
24.591000 1.249800
24.612200 1.239200
24.633500 1.227400
24.654800 1.206600
24.676100 1.203400
24.697400 1.197700
24.718700 1.194300
24.740000 1.197700
24.761300 1.204000
24.782500 1.208100
24.803800 1.213800
24.825100 1.218000
24.846400 1.220800
24.867700 1.224500
24.889000 1.236900
24.910300 1.242400
24.931600 1.248400
24.952800 1.235500
24.974100 1.229400
24.995400 1.223400
25.016700 1.208800
25.038000 1.198900
25.059300 1.192700
25.080600 1.174100
25.101900 1.157400
25.123100 1.144000
25.144400 1.125700
25.165700 1.116700
25.187000 1.116100
25.208300 1.119000
25.229600 1.128300
25.250900 1.137600
25.272200 1.130200
25.293400 1.133000
25.314700 1.139500
25.336000 1.138800
25.357300 1.129000
25.378600 1.134900
25.399900 1.150400
25.421200 1.147100
25.442500 1.134900
25.463700 1.121800
25.485000 1.110400
25.506300 1.104700
25.527600 1.098800
25.548900 1.084200
25.570200 1.079100
25.591500 1.088900
25.612800 1.095800
25.634000 1.099300
25.655300 1.084500
25.676600 1.070900
25.697900 1.060400
25.719200 1.057400
25.740500 1.053600
25.761800 1.049800
25.783100 1.044900
25.804300 1.042500
25.825600 1.046500
25.846900 1.053400
25.868200 1.063100
25.889500 1.076500
25.910800 1.095200
25.932100 1.122700
25.953400 1.143100
25.974600 1.160200
25.995900 1.181000
26.017200 1.210900
26.038500 1.234200
26.059800 1.255100
26.081100 1.269000
26.102400 1.279300
26.123700 1.273800
26.144900 1.275800
26.166200 1.279300
26.187500 1.280500
26.208800 1.279200
26.230100 1.275700
26.251400 1.275100
26.272700 1.275000
26.294000 1.280000
26.315200 1.307600
26.336500 1.334100
26.357800 1.313000
26.379100 1.293100
26.400400 1.279000
26.421700 1.266000
26.443000 1.257600
26.464300 1.260700
26.485500 1.268000
26.506800 1.251100
26.528100 1.220900
26.549400 1.190500
26.570700 1.160600
26.592000 1.136000
26.613300 1.117500
26.634600 1.100600
26.655800 1.084400
26.677100 1.068600
26.698400 1.052500
26.719700 1.035100
26.741000 1.021900
26.762300 1.015500
26.783600 1.003600
26.804900 0.985200
26.826100 0.950800
26.847400 0.930400
26.868700 0.905200
26.890000 0.886200
26.911300 0.865000
26.932600 0.844000
26.953900 0.824700
26.975200 0.805800
26.996400 0.788100
27.017700 0.773100
27.039000 0.749000
27.060300 0.726900
27.081600 0.706400
27.102900 0.682600
27.124200 0.654300
27.145500 0.622100
27.166800 0.587600
27.188000 0.554900
27.209300 0.521900
27.230600 0.489200
27.251900 0.455800
27.273200 0.426300
27.294500 0.399500
27.315800 0.370100
27.337100 0.341900
27.358300 0.317500
27.379600 0.300100
27.400900 0.289200
27.422200 0.278800
27.443500 0.268900
27.464800 0.259600
27.486100 0.251100
27.507400 0.243900
27.528600 0.236800
27.549900 0.228900
27.571200 0.221300
27.592500 0.214600
27.613800 0.207900
27.635100 0.200900
27.656400 0.193900
27.677700 0.186800
27.698900 0.179400
27.720200 0.174100
27.741500 0.165100
27.762800 0.156100
27.784100 0.145000
27.805400 0.134200
27.826700 0.124100
27.848000 0.114800
27.869200 0.106300
27.890500 0.098600
27.911800 0.091600
27.933100 0.085300
27.954400 0.079500
27.975700 0.074400
27.997000 0.070100
28.018300 0.065900
28.039500 0.061900
28.060800 0.058100
28.082100 0.054100
28.103400 0.050600
28.124700 0.047600
28.146000 0.044900
28.167300 0.042500
28.188600 0.040300
28.209800 0.038500
28.231100 0.037000
28.252400 0.035700
28.273700 0.034700
28.295000 0.033900
28.316300 0.033300
28.337600 0.032900
28.358900 0.032700
28.380100 0.032500
28.401400 0.032300
28.422700 0.032000
28.444000 0.031800
28.465300 0.031600
28.486600 0.031400
28.507900 0.031200
28.529200 0.031000
28.550400 0.030900
28.571700 0.030700
28.593000 0.030500
28.614300 0.030300
28.635600 0.030100
28.656900 0.029800
28.678200 0.029500
28.699500 0.029200
28.720700 0.028900
28.742000 0.028600
28.763300 0.028300
28.784600 0.028000
28.805900 0.027700
28.827200 0.027400
28.848500 0.027100
28.869800 0.026800
28.891000 0.026500
28.912300 0.026300
28.933600 0.026000
28.954900 0.025700
28.976200 0.025400
28.997500 0.025100
29.018800 0.024800
29.040100 0.024500
29.061300 0.024200
29.082600 0.023900
29.103900 0.023600
29.125200 0.023300
29.146500 0.023000
29.167800 0.022700
29.189100 0.022400
29.210400 0.022100
29.231600 0.021800
29.252900 0.021500
29.274200 0.021200
29.295500 0.020900
29.316800 0.020600
29.338100 0.020400
29.359400 0.020100
29.380700 0.019800
29.401900 0.019600
29.423200 0.019300
29.444500 0.019100
29.465800 0.018900
29.487100 0.018600
29.508400 0.018500
29.529700 0.018300
29.551000 0.018100
29.572200 0.017900
29.593500 0.017700
29.614800 0.017500
29.636100 0.017300
29.657400 0.017200
29.678700 0.017000
29.700000 0.016900
29.721300 0.016700
29.742500 0.016600
29.763800 0.016500
29.785100 0.016400
29.806400 0.016400
29.827700 0.016300
29.849000 0.016300
29.870300 0.016300
29.891600 0.016300
29.912800 0.016100
29.934100 0.015900
29.955400 0.015700
29.976700 0.015300
29.998000 0.015000
30.019300 0.014700
30.040600 0.014300
30.061900 0.014000
30.083100 0.013700
30.104400 0.013400
30.125700 0.013100
30.147000 0.012800
30.168300 0.012500
30.189600 0.012300
30.210900 0.012100
30.232200 0.011900
30.253400 0.011900
30.274700 0.012100
30.296000 0.012100
30.317300 0.011800
30.338600 0.011400
30.359900 0.011100
30.381200 0.010700
30.402500 0.010400
30.423700 0.010100
30.445000 0.009700
30.466300 0.009400
30.487600 0.009100
30.508900 0.008700
30.530200 0.008500
30.551500 0.008200
30.572800 0.008000
30.594000 0.007700
30.615300 0.007500
30.636600 0.007300
30.657900 0.007000
30.679200 0.006800
30.700500 0.006600
30.721800 0.006400
30.743100 0.006200
30.764300 0.006100
30.785600 0.006000
30.806900 0.006000
30.828200 0.006300
30.849500 0.006600
30.870800 0.006000
30.892100 0.005400
30.913400 0.004900
30.934600 0.004400
30.955900 0.003800
30.977200 0.003300
30.998500 0.002900
31.019800 0.002400
31.041100 0.002000
31.062400 0.001500
31.083700 0.001100
31.104900 0.000700
31.126200 0.000400
31.147500 0.000000
31.168800 0.000000
31.190100 0.000000
31.211400 0.000000
31.232700 0.000000
31.254000 0.000000
31.275200 0.000000
31.296500 0.000000
31.317800 0.000000
31.339100 0.000000
31.360400 0.000000
31.381700 0.000000
31.403000 0.000000
31.424300 0.000000
31.445500 0.000000
31.466800 0.000000
31.488100 0.000000
31.509400 0.000000
31.530700 0.000000
31.552000 0.000000
31.573300 0.000000
31.594600 0.000000
31.615800 0.000000
31.637100 0.000000
31.658400 0.000000
31.679700 0.000000
31.701000 0.000000
31.722300 0.000000
31.743600 0.000000
31.764900 0.000000
31.786100 0.000000
31.807400 0.000000
31.828700 0.000000
31.850000 0.000000
31.871300 0.000000
31.892600 0.000000
31.913900 0.000000
31.935200 0.000000
31.956400 0.000000
31.977700 0.000000
31.999000 0.000000
32.020300 0.000000
32.041600 0.000000
32.062900 0.000000
32.084200 0.000000
32.105500 0.000000
32.126700 0.000000
32.148000 0.000000
32.169300 0.000000
32.190600 0.000000
32.211900 0.000000
32.233200 0.000000
32.254500 0.000000
32.275800 0.000000
32.297100 0.000000
32.318300 0.000000
32.339600 0.000000
32.360900 0.000000
32.382200 0.000000
32.403500 0.000000
32.424800 0.000000
32.446100 0.000000
32.467400 0.000000
32.488600 0.000000
32.509900 0.000000
32.531200 0.000000
32.552500 0.000000
32.573800 0.000000
32.595100 0.000000
32.616400 0.000000
32.637700 0.000000
32.658900 0.000000
32.680200 0.000000
32.701500 0.000000
32.722800 0.000000
32.744100 0.000000
32.765400 0.000000
32.786700 0.000000
32.808000 0.000000
32.829200 0.000000
32.850500 0.000000
32.871800 0.000000
32.893100 0.000000
32.914400 0.000000
32.935700 0.000000
32.957000 0.000000
32.978300 0.000000
32.999500 0.000000
33.020800 0.000000
33.042100 0.000000
33.063400 0.000000
33.084700 0.000000
e
