set title 'mp-9897 - Density of States'
set xlabel 'Energy (eV)'
set ylabel 'DOS (states/eV)'
set grid
set xrange [-10:10]
set yrange [0:7.223]
set xzeroaxis lt -1
set terminal png size 800,600
set output 'mp-9897_dos_gnuplot.png'
plot '-' using 1:2 with lines title 'DOS'
-9.396100 0.000000
-9.383700 0.000000
-9.371400 0.000000
-9.359000 0.000000
-9.346600 0.000000
-9.334200 0.000000
-9.321800 0.000000
-9.309400 0.000000
-9.297100 0.000000
-9.284700 0.000000
-9.272300 0.000000
-9.259900 0.000000
-9.247500 0.000000
-9.235100 0.000000
-9.222800 0.000000
-9.210400 0.000000
-9.198000 0.000000
-9.185600 0.000000
-9.173200 0.000000
-9.160800 0.000000
-9.148500 0.000000
-9.136100 0.000000
-9.123700 0.000000
-9.111300 0.000000
-9.098900 0.000000
-9.086500 0.000000
-9.074200 0.000000
-9.061800 0.000000
-9.049400 0.000000
-9.037000 0.000000
-9.024600 0.000000
-9.012200 0.000000
-8.999900 0.000000
-8.987500 0.000000
-8.975100 0.000000
-8.962700 0.000000
-8.950300 0.000000
-8.937900 0.000000
-8.925600 0.000000
-8.913200 0.000000
-8.900800 0.000000
-8.888400 0.000000
-8.876000 0.000000
-8.863600 0.000000
-8.851300 0.000000
-8.838900 0.000000
-8.826500 0.000000
-8.814100 0.000000
-8.801700 0.000000
-8.789300 0.000000
-8.777000 0.000000
-8.764600 0.000000
-8.752200 0.000000
-8.739800 0.000000
-8.727400 0.000000
-8.715000 0.000000
-8.702700 0.000000
-8.690300 0.000000
-8.677900 0.000000
-8.665500 0.000000
-8.653100 0.000000
-8.640700 0.000000
-8.628400 0.000000
-8.616000 0.000000
-8.603600 0.000000
-8.591200 0.000000
-8.578800 0.000000
-8.566400 0.000000
-8.554100 0.000000
-8.541700 0.000000
-8.529300 0.000000
-8.516900 0.000000
-8.504500 0.000000
-8.492100 0.000000
-8.479800 0.000000
-8.467400 0.000000
-8.455000 0.000000
-8.442600 0.000000
-8.430200 0.000000
-8.417800 0.000000
-8.405500 0.000000
-8.393100 0.000000
-8.380700 0.000000
-8.368300 0.000000
-8.355900 0.000000
-8.343500 0.000000
-8.331200 0.000000
-8.318800 0.000000
-8.306400 0.000000
-8.294000 0.000000
-8.281600 0.000000
-8.269200 0.067100
-8.256900 0.230500
-8.244500 0.321900
-8.232100 0.414700
-8.219700 0.510800
-8.207300 0.626400
-8.194900 0.728800
-8.182600 0.715600
-8.170200 0.730200
-8.157800 0.740800
-8.145400 0.732000
-8.133000 0.718900
-8.120600 0.722400
-8.108300 0.731800
-8.095900 0.740500
-8.083500 0.737100
-8.071100 0.736900
-8.058700 0.738800
-8.046300 0.740200
-8.034000 0.738100
-8.021600 0.732500
-8.009200 0.730700
-7.996800 0.732300
-7.984400 0.733000
-7.972000 0.734400
-7.959700 0.737700
-7.947300 0.740100
-7.934900 0.742800
-7.922500 0.746600
-7.910100 0.748900
-7.897700 0.748600
-7.885400 0.748900
-7.873000 0.748500
-7.860600 0.746200
-7.848200 0.742200
-7.835800 0.741100
-7.823400 0.742600
-7.811100 0.744800
-7.798700 0.744900
-7.786300 0.746500
-7.773900 0.748000
-7.761500 0.749400
-7.749100 0.750500
-7.736700 0.750700
-7.724400 0.876200
-7.712000 0.937600
-7.699600 0.983600
-7.687200 1.032200
-7.674800 1.082800
-7.662400 1.126100
-7.650100 1.168400
-7.637700 1.210500
-7.625300 1.255600
-7.612900 1.295800
-7.600500 1.344100
-7.588100 1.402500
-7.575800 1.553500
-7.563400 1.541700
-7.551000 1.556700
-7.538600 1.563200
-7.526200 1.556500
-7.513800 1.549200
-7.501500 1.553200
-7.489100 1.560700
-7.476700 1.562900
-7.464300 1.565800
-7.451900 1.574000
-7.439500 1.579700
-7.427200 1.582500
-7.414800 1.583000
-7.402400 1.582300
-7.390000 1.583800
-7.377600 1.585600
-7.365200 1.588000
-7.352900 1.590100
-7.340500 1.589900
-7.328100 1.591700
-7.315700 1.595400
-7.303300 1.600800
-7.290900 1.604200
-7.278600 1.607700
-7.266200 1.609600
-7.253800 1.609500
-7.241400 1.610000
-7.229000 1.613000
-7.216600 1.616900
-7.204300 1.621400
-7.191900 1.625700
-7.179500 1.629000
-7.167100 1.632700
-7.154700 1.635400
-7.142300 1.640000
-7.130000 1.644800
-7.117600 1.649600
-7.105200 1.654700
-7.092800 1.659800
-7.080400 1.664500
-7.068000 1.667600
-7.055700 1.668200
-7.043300 1.668300
-7.030900 1.669900
-7.018500 1.671700
-7.006100 1.675200
-6.993700 1.679500
-6.981400 1.684100
-6.969000 1.689300
-6.956600 1.694700
-6.944200 1.700200
-6.931800 1.704900
-6.919400 1.709700
-6.907100 1.715200
-6.894700 1.720700
-6.882300 1.726100
-6.869900 1.731400
-6.857500 1.736600
-6.845100 1.741400
-6.832800 1.746400
-6.820400 1.751800
-6.808000 1.756000
-6.795600 1.760800
-6.783200 1.766500
-6.770800 1.772700
-6.758500 1.779500
-6.746100 1.786400
-6.733700 1.793600
-6.721300 1.801200
-6.708900 1.808500
-6.696500 1.815600
-6.684200 1.822800
-6.671800 1.829200
-6.659400 1.836200
-6.647000 1.844000
-6.634600 1.852300
-6.622200 1.861100
-6.609900 1.870700
-6.597500 1.880700
-6.585100 1.891200
-6.572700 1.902000
-6.560300 1.913000
-6.547900 1.924200
-6.535600 1.934900
-6.523200 1.946300
-6.510800 1.958500
-6.498400 1.971600
-6.486000 1.985400
-6.473600 1.999800
-6.461300 2.015500
-6.448900 2.032400
-6.436500 2.050000
-6.424100 2.068400
-6.411700 2.091100
-6.399300 2.117200
-6.387000 2.147100
-6.374600 2.180300
-6.362200 2.216900
-6.349800 2.258200
-6.337400 2.306000
-6.325000 2.395600
-6.312700 2.480700
-6.300300 2.532900
-6.287900 2.577700
-6.275500 2.626600
-6.263100 2.680300
-6.250700 2.744400
-6.238400 2.702000
-6.226000 2.650900
-6.213600 2.807000
-6.201200 2.958000
-6.188800 2.966500
-6.176400 3.062200
-6.164100 3.578300
-6.151700 4.104500
-6.139300 3.024500
-6.126900 2.712700
-6.114500 2.558200
-6.102100 2.356200
-6.089800 2.154800
-6.077400 2.054400
-6.065000 2.030600
-6.052600 1.967700
-6.040200 1.917100
-6.027800 1.890200
-6.015500 1.956700
-6.003100 2.003100
-5.990700 1.932900
-5.978300 1.865600
-5.965900 1.840900
-5.953500 1.816000
-5.941200 1.801600
-5.928800 1.834100
-5.916400 1.899700
-5.904000 1.943300
-5.891600 1.805700
-5.879200 1.795800
-5.866900 1.799400
-5.854500 1.800700
-5.842100 1.794800
-5.829700 1.781200
-5.817300 1.769800
-5.804900 1.780700
-5.792600 1.802200
-5.780200 1.854000
-5.767800 2.104100
-5.755400 1.986100
-5.743000 1.975800
-5.730600 1.955600
-5.718300 1.952000
-5.705900 1.978600
-5.693500 1.986200
-5.681100 1.992500
-5.668700 2.084000
-5.656300 2.198600
-5.644000 2.471000
-5.631600 2.676600
-5.619200 3.009100
-5.606800 3.255800
-5.594400 3.274700
-5.582000 3.313500
-5.569700 3.403300
-5.557300 3.515100
-5.544900 3.611400
-5.532500 3.531900
-5.520100 3.525400
-5.507700 3.590500
-5.495400 3.734000
-5.483000 3.938000
-5.470600 4.074900
-5.458200 4.380200
-5.445800 4.842000
-5.433400 5.091400
-5.421100 5.216100
-5.408700 5.123900
-5.396300 5.086300
-5.383900 5.217100
-5.371500 5.700600
-5.359100 6.077100
-5.346800 5.524200
-5.334400 5.444700
-5.322000 5.158400
-5.309600 4.530900
-5.297200 3.913900
-5.284800 3.522200
-5.272500 3.263200
-5.260100 3.069700
-5.247700 2.810400
-5.235300 2.754700
-5.222900 1.844300
-5.210500 1.490400
-5.198200 1.275600
-5.185800 0.796800
-5.173400 0.462500
-5.161000 0.505200
-5.148600 0.564400
-5.136200 0.622900
-5.123900 0.680500
-5.111500 0.727300
-5.099100 0.766300
-5.086700 0.801700
-5.074300 0.845200
-5.061900 0.925300
-5.049600 1.006200
-5.037200 1.019000
-5.024800 1.033900
-5.012400 1.105600
-5.000000 1.207300
-4.987600 1.282400
-4.975300 1.303800
-4.962900 1.371100
-4.950500 1.466900
-4.938100 1.596000
-4.925700 1.871800
-4.913300 2.092200
-4.901000 2.212100
-4.888600 2.309300
-4.876200 2.392000
-4.863800 2.406200
-4.851400 2.404800
-4.839000 2.438800
-4.826700 2.431900
-4.814300 2.405400
-4.801900 2.509500
-4.789500 2.591300
-4.777100 2.391700
-4.764700 2.312800
-4.752400 2.212100
-4.740000 2.120200
-4.727600 2.048600
-4.715200 1.995600
-4.702800 1.955100
-4.690400 1.925500
-4.678100 1.907800
-4.665700 1.894600
-4.653300 1.880800
-4.640900 1.867800
-4.628500 1.854000
-4.616100 1.841700
-4.603800 1.832900
-4.591400 1.827400
-4.579000 1.827400
-4.566600 1.826500
-4.554200 1.823200
-4.541800 1.817400
-4.529500 1.815000
-4.517100 1.814700
-4.504700 1.817500
-4.492300 1.821700
-4.479900 1.825400
-4.467500 1.828900
-4.455200 1.832700
-4.442800 1.840300
-4.430400 1.851700
-4.418000 1.869000
-4.405600 1.889000
-4.393200 1.908400
-4.380900 1.932300
-4.368500 1.954500
-4.356100 1.975000
-4.343700 1.998300
-4.331300 2.024300
-4.318900 2.055300
-4.306600 2.077200
-4.294200 2.099100
-4.281800 2.120600
-4.269400 2.153200
-4.257000 2.197600
-4.244600 2.250000
-4.232300 2.304600
-4.219900 2.358800
-4.207500 2.425100
-4.195100 2.500400
-4.182700 2.647600
-4.170300 2.787400
-4.158000 2.943700
-4.145600 2.958600
-4.133200 2.890900
-4.120800 2.882900
-4.108400 2.904800
-4.096000 2.915000
-4.083700 2.969700
-4.071300 2.946800
-4.058900 2.795200
-4.046500 2.681500
-4.034100 2.671200
-4.021700 2.669200
-4.009400 2.646900
-3.997000 2.648300
-3.984600 2.742300
-3.972200 2.876000
-3.959800 3.096700
-3.947400 3.421000
-3.935100 2.984900
-3.922700 2.728400
-3.910300 2.567700
-3.897900 2.437100
-3.885500 2.321300
-3.873100 2.209600
-3.860800 2.106400
-3.848400 2.052900
-3.836000 2.005500
-3.823600 1.959100
-3.811200 1.912800
-3.798800 1.866900
-3.786500 1.821400
-3.774100 1.778400
-3.761700 1.740500
-3.749300 1.702900
-3.736900 1.667500
-3.724500 1.632600
-3.712200 1.600400
-3.699800 1.569100
-3.687400 1.540100
-3.675000 1.511400
-3.662600 1.482700
-3.650200 1.454600
-3.637900 1.425500
-3.625500 1.395400
-3.613100 1.363200
-3.600700 1.331200
-3.588300 1.297900
-3.575900 1.261800
-3.563600 1.222300
-3.551200 1.192800
-3.538800 1.162800
-3.526400 1.132300
-3.514000 1.106000
-3.501600 1.076600
-3.489300 1.040200
-3.476900 1.042700
-3.464500 0.988900
-3.452100 0.826100
-3.439700 0.653500
-3.427300 0.648800
-3.414900 0.644100
-3.402600 0.639400
-3.390200 0.634700
-3.377800 0.629200
-3.365400 0.624100
-3.353000 0.619000
-3.340600 0.614500
-3.328300 0.610500
-3.315900 0.606600
-3.303500 0.603000
-3.291100 0.599900
-3.278700 0.596900
-3.266300 0.594000
-3.254000 0.590700
-3.241600 0.587500
-3.229200 0.584300
-3.216800 0.581200
-3.204400 0.578100
-3.192000 0.575100
-3.179700 0.572100
-3.167300 0.569300
-3.154900 0.566600
-3.142500 0.564100
-3.130100 0.561700
-3.117700 0.559700
-3.105400 0.558400
-3.093000 0.558800
-3.080600 0.557700
-3.068200 0.555400
-3.055800 0.552700
-3.043400 0.550000
-3.031100 0.547600
-3.018700 0.545200
-3.006300 0.542600
-2.993900 0.539900
-2.981500 0.537100
-2.969100 0.534300
-2.956800 0.531600
-2.944400 0.529300
-2.932000 0.527200
-2.919600 0.525100
-2.907200 0.523000
-2.894800 0.520900
-2.882500 0.518700
-2.870100 0.516600
-2.857700 0.514800
-2.845300 0.513500
-2.832900 0.512500
-2.820500 0.512200
-2.808200 0.512600
-2.795800 0.513100
-2.783400 0.513400
-2.771000 0.513400
-2.758600 0.513000
-2.746200 0.511000
-2.733900 0.508900
-2.721500 0.506700
-2.709100 0.504700
-2.696700 0.503000
-2.684300 0.501600
-2.671900 0.500600
-2.659600 0.499800
-2.647200 0.498100
-2.634800 0.496400
-2.622400 0.494800
-2.610000 0.493600
-2.597600 0.494100
-2.585300 0.495500
-2.572900 0.496600
-2.560500 0.497200
-2.548100 0.497300
-2.535700 0.497000
-2.523300 0.496300
-2.511000 0.495200
-2.498600 0.495700
-2.486200 0.494400
-2.473800 0.490900
-2.461400 0.487300
-2.449000 0.487400
-2.436700 0.489500
-2.424300 0.490900
-2.411900 0.491500
-2.399500 0.491300
-2.387100 0.490200
-2.374700 0.487600
-2.362400 0.485700
-2.350000 0.431800
-2.337600 0.394400
-2.325200 0.373200
-2.312800 0.360800
-2.300400 0.348700
-2.288100 0.337200
-2.275700 0.326900
-2.263300 0.317600
-2.250900 0.308400
-2.238500 0.298900
-2.226100 0.289200
-2.213800 0.279600
-2.201400 0.270000
-2.189000 0.260600
-2.176600 0.251200
-2.164200 0.241900
-2.151800 0.233400
-2.139500 0.226500
-2.127100 0.218200
-2.114700 0.208500
-2.102300 0.198700
-2.089900 0.188800
-2.077500 0.179000
-2.065200 0.169600
-2.052800 0.160700
-2.040400 0.151300
-2.028000 0.141000
-2.015600 0.129800
-2.003200 0.119100
-1.990900 0.109200
-1.978500 0.100000
-1.966100 0.091200
-1.953700 0.081700
-1.941300 0.072500
-1.928900 0.041600
-1.916600 0.000000
-1.904200 0.000000
-1.891800 0.000000
-1.879400 0.000000
-1.867000 0.000000
-1.854600 0.000000
-1.842300 0.000000
-1.829900 0.000000
-1.817500 0.000000
-1.805100 0.000000
-1.792700 0.000000
-1.780300 0.000000
-1.768000 0.000000
-1.755600 0.000000
-1.743200 0.000000
-1.730800 0.000000
-1.718400 0.000000
-1.706000 0.000000
-1.693700 0.000000
-1.681300 0.000000
-1.668900 0.000000
-1.656500 0.000000
-1.644100 0.000000
-1.631700 0.000000
-1.619400 0.000000
-1.607000 0.000000
-1.594600 0.000000
-1.582200 0.000000
-1.569800 0.000000
-1.557400 0.000000
-1.545100 0.000000
-1.532700 0.000000
-1.520300 0.000000
-1.507900 0.000000
-1.495500 0.000000
-1.483100 0.000000
-1.470800 0.000000
-1.458400 0.000000
-1.446000 0.000000
-1.433600 0.000000
-1.421200 0.000000
-1.408800 0.000000
-1.396500 0.000000
-1.384100 0.000000
-1.371700 0.000000
-1.359300 0.000000
-1.346900 0.000000
-1.334500 0.000000
-1.322200 0.000000
-1.309800 0.000000
-1.297400 0.000000
-1.285000 0.000000
-1.272600 0.000000
-1.260200 0.000000
-1.247900 0.000000
-1.235500 0.000000
-1.223100 0.000000
-1.210700 0.000000
-1.198300 0.000000
-1.185900 0.000000
-1.173600 0.000000
-1.161200 0.000000
-1.148800 0.000000
-1.136400 0.000000
-1.124000 0.000000
-1.111600 0.000000
-1.099300 0.000000
-1.086900 0.000000
-1.074500 0.000000
-1.062100 0.000000
-1.049700 0.000000
-1.037300 0.000000
-1.025000 0.000000
-1.012600 0.000000
-1.000200 0.000000
-0.987800 0.000000
-0.975400 0.000000
-0.963000 0.000000
-0.950700 0.000000
-0.938300 0.000000
-0.925900 0.000000
-0.913500 0.000000
-0.901100 0.000000
-0.888700 0.000000
-0.876400 0.000000
-0.864000 0.000000
-0.851600 0.000000
-0.839200 0.000000
-0.826800 0.000000
-0.814400 0.000000
-0.802100 0.000000
-0.789700 0.000000
-0.777300 0.000000
-0.764900 0.000000
-0.752500 0.000000
-0.740100 0.000000
-0.727800 0.000000
-0.715400 0.000000
-0.703000 0.000000
-0.690600 0.000000
-0.678200 0.000000
-0.665800 0.000000
-0.653500 0.000000
-0.641100 0.000000
-0.628700 0.000000
-0.616300 0.000000
-0.603900 0.000000
-0.591500 0.000000
-0.579200 0.000000
-0.566800 0.000000
-0.554400 0.000000
-0.542000 0.000000
-0.529600 0.000000
-0.517200 0.000000
-0.504900 0.000000
-0.492500 0.000000
-0.480100 0.000000
-0.467700 0.000000
-0.455300 0.000000
-0.442900 0.000000
-0.430600 0.000000
-0.418200 0.000000
-0.405800 0.000000
-0.393400 0.000000
-0.381000 0.000000
-0.368600 0.000000
-0.356300 0.000000
-0.343900 0.000000
-0.331500 0.000000
-0.319100 0.000000
-0.306700 0.000000
-0.294300 0.000000
-0.282000 0.000000
-0.269600 0.000000
-0.257200 0.000000
-0.244800 0.000000
-0.232400 0.000000
-0.220000 0.000000
-0.207700 0.001400
-0.195300 0.274800
-0.182900 0.378200
-0.170500 0.498600
-0.158100 0.577500
-0.145700 0.670200
-0.133400 0.771000
-0.121000 0.884000
-0.108600 0.975000
-0.096200 1.027300
-0.083800 1.084700
-0.071400 1.158900
-0.059100 1.245500
-0.046700 1.339000
-0.034300 1.517800
-0.021900 1.609800
-0.009500 1.738200
0.002900 1.783400
0.015200 1.795500
0.027600 1.811400
0.040000 1.823900
0.052400 1.834800
0.064800 1.853800
0.077200 1.861600
0.089500 1.874400
0.101900 1.891300
0.114300 1.916700
0.126700 1.945900
0.139100 1.961400
0.151500 1.969600
0.163800 1.998600
0.176200 2.042800
0.188600 2.098000
0.201000 2.172200
0.213400 2.281000
0.225800 2.487100
0.238100 2.637800
0.250500 2.605200
0.262900 2.621200
0.275300 2.598600
0.287700 2.514400
0.300100 2.432800
0.312400 2.288000
0.324800 2.105000
0.337200 1.930200
0.349600 1.807600
0.362000 1.710000
0.374400 1.613400
0.386700 1.543800
0.399100 1.491200
0.411500 1.439600
0.423900 1.396200
0.436300 1.363500
0.448700 1.388100
0.461000 1.347000
0.473400 1.326500
0.485800 1.323700
0.498200 1.333500
0.510600 1.350600
0.523000 1.379200
0.535300 1.423800
0.547700 1.477500
0.560100 1.538100
0.572500 1.613300
0.584900 1.710500
0.597300 1.815300
0.609600 1.961800
0.622000 2.091400
0.634400 2.166300
0.646800 2.192800
0.659200 2.185900
0.671600 2.259000
0.683900 1.953600
0.696300 1.902800
0.708700 1.840100
0.721100 1.786400
0.733500 1.726900
0.745900 1.693900
0.758200 1.646900
0.770600 1.602700
0.783000 1.604400
0.795400 1.666100
0.807800 1.644000
0.820200 1.620600
0.832500 1.603300
0.844900 1.625500
0.857300 1.670600
0.869700 1.731000
0.882100 1.803500
0.894500 1.868800
0.906900 1.923500
0.919200 1.990100
0.931600 2.063500
0.944000 2.182700
0.956400 2.402400
0.968800 2.654000
0.981200 2.949000
0.993500 3.259500
1.005900 3.410100
1.018300 3.690000
1.030700 3.825100
1.043100 3.719900
1.055500 3.694700
1.067800 3.566800
1.080200 3.479500
1.092600 3.433000
1.105000 3.421700
1.117400 3.420300
1.129800 3.367600
1.142100 3.327800
1.154500 3.296500
1.166900 3.280900
1.179300 3.333300
1.191700 3.416000
1.204100 3.464500
1.216400 3.544400
1.228800 3.563500
1.241200 3.521100
1.253600 3.477000
1.266000 3.439400
1.278400 3.411900
1.290700 3.413400
1.303100 3.440500
1.315500 3.505700
1.327900 3.598300
1.340300 3.673900
1.352700 3.758200
1.365000 3.839200
1.377400 3.933000
1.389800 4.058000
1.402200 4.162100
1.414600 4.269700
1.427000 4.357000
1.439300 4.271300
1.451700 4.183000
1.464100 4.031500
1.476500 3.757200
1.488900 3.662000
1.501300 3.608100
1.513600 3.584200
1.526000 3.570900
1.538400 3.568500
1.550800 3.564000
1.563200 3.567100
1.575600 3.574400
1.587900 3.589000
1.600300 3.607900
1.612700 3.628800
1.625100 3.653000
1.637500 3.680300
1.649900 3.727200
1.662200 3.832200
1.674600 3.923500
1.687000 4.032300
1.699400 4.223200
1.711800 4.331700
1.724200 4.398100
1.736500 4.461600
1.748900 4.507000
1.761300 4.623300
1.773700 4.661500
1.786100 4.740400
1.798500 4.885300
1.810800 5.111500
1.823200 5.458000
1.835600 5.657900
1.848000 5.695000
1.860400 6.253500
1.872800 5.432400
1.885100 5.004500
1.897500 4.716800
1.909900 4.568600
1.922300 4.457300
1.934700 4.364500
1.947100 4.299000
1.959400 4.221900
1.971800 4.157200
1.984200 4.102200
1.996600 4.076300
2.009000 4.076100
2.021400 4.113200
2.033700 4.020600
2.046100 4.038300
2.058500 4.086000
2.070900 4.178300
2.083300 4.204300
2.095700 4.134200
2.108000 4.093700
2.120400 4.089000
2.132800 4.075300
2.145200 4.113700
2.157600 4.247400
2.170000 4.084800
2.182300 4.122200
2.194700 4.024900
2.207100 3.948300
2.219500 3.963900
2.231900 3.993300
2.244300 4.049200
2.256600 4.089800
2.269000 4.125700
2.281400 4.163100
2.293800 4.195000
2.306200 4.230700
2.318600 4.273900
2.330900 4.327800
2.343300 4.469400
2.355700 4.571600
2.368100 4.787800
2.380500 5.293500
2.392900 5.357100
2.405200 5.563100
2.417600 5.245300
2.430000 5.159200
2.442400 5.073500
2.454800 5.018400
2.467200 4.956400
2.479500 4.917800
2.491900 5.033800
2.504300 4.878600
2.516700 4.854200
2.529100 4.816000
2.541500 4.767200
2.553800 4.712000
2.566200 5.024500
2.578600 4.792900
2.591000 4.562400
2.603400 4.453000
2.615800 4.436600
2.628100 4.224900
2.640500 4.106700
2.652900 4.046000
2.665300 3.975000
2.677700 3.878300
2.690100 3.817700
2.702400 3.784600
2.714800 3.760900
2.727200 3.737900
2.739600 3.734200
2.752000 3.738600
2.764400 3.753400
2.776700 3.772500
2.789100 3.823600
2.801500 3.754600
2.813900 3.685200
2.826300 3.630300
2.838700 3.587500
2.851000 3.542800
2.863400 3.507900
2.875800 3.473800
2.888200 3.471100
2.900600 3.504000
2.913000 3.503400
2.925300 3.474200
2.937700 3.449100
2.950100 3.422900
2.962500 3.326600
2.974900 3.255900
2.987300 3.194600
2.999600 3.142800
3.012000 3.083500
3.024400 3.033200
3.036800 3.002800
3.049200 2.972200
3.061600 2.941900
3.073900 2.906800
3.086300 2.890700
3.098700 2.862000
3.111100 2.840700
3.123500 2.819100
3.135900 2.804000
3.148200 2.799000
3.160600 2.789300
3.173000 2.778400
3.185400 2.763800
3.197800 2.721000
3.210200 2.625000
3.222500 2.571600
3.234900 2.541400
3.247300 2.468700
3.259700 2.415600
3.272100 2.360500
3.284500 2.314000
3.296800 2.240000
3.309200 2.187700
3.321600 2.134600
3.334000 2.112300
3.346400 2.088400
3.358800 2.126700
3.371100 2.133400
3.383500 2.125400
3.395900 2.193200
3.408300 2.243200
3.420700 2.303400
3.433100 2.378800
3.445400 2.466100
3.457800 2.635900
3.470200 2.542400
3.482600 2.489200
3.495000 2.846900
3.507400 2.820800
3.519700 2.697900
3.532100 2.624100
3.544500 2.593200
3.556900 2.544500
3.569300 2.559700
3.581700 2.575400
3.594000 2.640100
3.606400 2.726400
3.618800 2.792000
3.631200 2.903900
3.643600 2.988500
3.656000 2.916700
3.668300 2.852300
3.680700 2.801200
3.693100 2.704900
3.705500 2.610200
3.717900 2.535600
3.730300 2.465800
3.742600 2.413000
3.755000 2.367500
3.767400 2.330400
3.779800 2.310200
3.792200 2.289200
3.804600 2.274800
3.816900 2.307700
3.829300 2.348000
3.841700 2.330800
3.854100 2.320900
3.866500 2.327900
3.878900 2.349900
3.891200 2.386800
3.903600 2.437300
3.916000 2.506900
3.928400 2.615300
3.940800 2.754500
3.953200 2.906500
3.965500 3.068700
3.977900 3.223000
3.990300 3.555400
4.002700 3.874300
4.015100 4.061000
4.027500 4.078100
4.039800 4.099300
4.052200 4.169700
4.064600 4.086000
4.077000 3.969100
4.089400 3.912400
4.101800 3.861500
4.114100 3.782300
4.126500 3.725100
4.138900 3.695100
4.151300 3.683200
4.163700 3.671400
4.176100 3.656500
4.188400 3.648400
4.200800 3.641600
4.213200 3.647400
4.225600 3.678900
4.238000 3.710900
4.250400 3.700600
4.262700 3.651200
4.275100 3.601600
4.287500 3.630200
4.299900 3.553700
4.312300 3.433700
4.324700 3.427200
4.337000 3.382300
4.349400 3.334900
4.361800 3.348500
4.374200 3.392600
4.386600 3.449400
4.399000 3.576200
4.411300 3.853900
4.423700 4.050500
4.436100 4.173200
4.448500 4.215300
4.460900 4.400500
4.473300 4.551800
4.485600 4.665700
4.498000 4.808600
4.510400 4.913700
4.522800 4.992000
4.535200 5.080900
4.547600 5.155500
4.559900 5.205200
4.572300 5.120000
4.584700 5.024600
4.597100 4.954100
4.609500 4.924400
4.621900 4.953600
4.634200 4.978600
4.646600 5.024700
4.659000 5.088500
4.671400 5.194700
4.683800 5.394900
4.696200 5.758700
4.708500 5.922500
4.720900 6.039100
4.733300 6.153100
4.745700 6.450100
4.758100 6.280500
4.770500 6.287600
4.782800 5.938700
4.795200 5.673800
4.807600 5.628500
4.820000 6.566600
4.832400 6.259300
4.844800 5.633800
4.857100 5.213500
4.869500 4.873400
4.881900 4.619300
4.894300 4.266900
4.906700 4.051100
4.919100 3.883200
4.931400 3.771700
4.943800 3.651700
4.956200 3.510000
4.968600 3.367000
4.981000 3.218700
4.993400 3.069900
5.005700 2.937800
5.018100 2.789600
5.030500 2.677700
5.042900 2.593800
5.055300 2.549700
5.067700 2.383000
5.080000 2.334000
5.092400 2.319700
5.104800 2.342100
5.117200 2.415900
5.129600 2.514200
5.142000 2.513300
5.154300 2.451500
5.166700 2.356000
5.179100 2.216000
5.191500 2.098000
5.203900 2.244400
5.216300 2.139800
5.228700 1.961000
5.241000 1.953900
5.253400 1.635400
5.265800 1.319300
5.278200 1.054700
5.290600 0.931200
5.303000 0.828100
5.315300 0.731800
5.327700 0.655000
5.340100 0.603100
5.352500 0.884700
5.364900 0.720700
5.377300 0.317100
5.389600 0.190700
5.402000 0.105300
5.414400 0.048700
5.426800 0.013600
5.439200 0.000200
5.451600 0.000000
5.463900 0.000000
5.476300 0.000000
5.488700 0.000000
5.501100 0.000000
5.513500 0.000000
5.525900 0.000000
5.538200 0.000000
5.550600 0.000000
5.563000 0.000000
5.575400 0.000000
5.587800 0.000000
5.600200 0.000000
5.612500 0.000000
5.624900 0.000000
5.637300 0.000000
5.649700 0.000000
5.662100 0.000000
5.674500 0.000000
5.686800 0.000000
5.699200 0.000000
5.711600 0.000000
5.724000 0.000000
5.736400 0.000000
5.748800 0.000000
5.761100 0.000000
5.773500 0.000000
5.785900 0.000200
5.798300 0.001400
5.810700 0.003700
5.823100 0.007100
5.835400 0.011500
5.847800 0.016700
5.860200 0.022700
5.872600 0.034100
5.885000 0.053300
5.897400 0.080100
5.909700 0.112300
5.922100 0.141200
5.934500 0.166100
5.946900 0.195300
5.959300 0.236600
5.971700 0.294000
5.984000 0.377700
5.996400 0.471200
6.008800 0.573300
6.021200 0.728600
6.033600 0.897300
6.046000 1.016300
6.058300 0.949400
6.070700 0.968900
6.083100 0.994200
6.095500 1.147200
6.107900 1.299500
6.120300 1.443300
6.132600 1.553600
6.145000 1.704800
6.157400 1.871500
6.169800 2.058000
6.182200 2.330200
6.194600 2.627200
6.206900 2.834400
6.219300 3.713000
6.231700 3.946100
6.244100 3.964400
6.256500 3.965800
6.268900 4.069400
6.281200 4.268600
6.293600 4.499700
6.306000 4.648800
6.318400 4.753800
6.330800 4.898100
6.343200 4.927300
6.355500 5.085700
6.367900 5.105300
6.380300 5.005000
6.392700 4.914600
6.405100 4.837200
6.417500 4.767800
6.429800 4.702600
6.442200 4.587600
6.454600 4.432700
6.467000 4.245000
6.479400 4.078200
6.491800 4.051600
6.504100 3.965000
6.516500 3.863800
6.528900 3.795300
6.541300 3.818600
6.553700 3.986800
6.566100 3.965800
6.578400 4.078900
6.590800 4.278600
6.603200 4.298800
6.615600 4.320900
6.628000 4.521100
6.640400 4.646500
6.652700 4.834800
6.665100 5.181200
6.677500 5.197900
6.689900 4.897900
6.702300 4.649700
6.714700 4.433400
6.727000 4.270600
6.739400 4.202100
6.751800 4.175000
6.764200 4.165200
6.776600 4.161100
6.789000 4.186100
6.801300 4.281300
6.813700 4.370100
6.826100 4.575400
6.838500 4.797100
6.850900 4.995400
6.863300 5.199900
6.875600 5.441900
6.888000 5.437500
6.900400 5.285500
6.912800 5.228500
6.925200 5.276500
6.937600 5.078900
6.949900 5.039200
6.962300 4.979600
6.974700 4.925400
6.987100 4.850900
6.999500 4.780200
7.011900 4.691900
7.024200 4.550100
7.036600 4.514100
7.049000 4.190700
7.061400 3.948200
7.073800 3.823700
7.086200 3.748100
7.098500 3.711700
7.110900 4.249200
7.123300 3.531000
7.135700 3.348400
7.148100 3.206800
7.160500 3.100800
7.172800 3.018800
7.185200 2.909000
7.197600 2.794400
7.210000 2.737900
7.222400 2.689300
7.234800 2.648600
7.247100 2.626200
7.259500 2.617100
7.271900 2.567500
7.284300 2.555100
7.296700 2.542600
7.309100 2.677900
7.321400 2.834600
7.333800 2.992900
7.346200 3.204600
7.358600 3.391400
7.371000 3.477000
7.383400 3.442600
7.395700 3.390100
7.408100 3.361100
7.420500 3.341800
7.432900 3.327400
7.445300 3.280400
7.457700 3.249900
7.470000 3.234300
7.482400 3.202900
7.494800 3.275400
7.507200 3.252500
7.519600 3.273400
7.532000 3.373700
7.544300 3.513900
7.556700 3.508200
7.569100 3.195800
7.581500 3.132800
7.593900 3.051600
7.606300 3.040600
7.618600 3.047800
7.631000 3.051400
7.643400 3.080400
7.655800 3.087400
7.668200 3.071000
7.680600 3.085200
7.692900 3.084400
7.705300 3.021400
7.717700 3.004800
7.730100 2.876300
7.742500 2.789600
7.754900 2.700900
7.767200 2.632300
7.779600 2.501100
7.792000 2.315300
7.804400 2.149200
7.816800 2.005600
7.829200 1.867200
7.841500 1.748000
7.853900 1.654600
7.866300 1.626900
7.878700 1.620900
7.891100 1.623000
7.903500 1.638900
7.915800 1.670200
7.928200 1.702800
7.940600 1.740100
7.953000 1.783100
7.965400 1.833100
7.977800 1.883000
7.990100 1.936900
8.002500 1.997100
8.014900 2.062000
8.027300 2.132400
8.039700 2.219200
8.052100 2.316400
8.064400 2.432000
8.076800 2.527000
8.089200 2.609800
8.101600 2.700400
8.114000 2.715600
8.126400 2.737200
8.138700 2.804200
8.151100 2.919000
8.163500 3.062100
8.175900 3.239900
8.188300 3.365900
8.200700 3.461200
8.213000 3.545000
8.225400 3.744900
8.237800 4.150400
8.250200 4.075100
8.262600 4.121700
8.275000 4.109700
8.287300 4.026200
8.299700 4.050400
8.312100 4.098100
8.324500 4.125200
8.336900 4.203200
8.349300 4.295300
8.361600 4.373700
8.374000 3.922200
8.386400 4.121800
8.398800 3.903700
8.411200 3.852500
8.423600 3.746700
8.435900 3.639700
8.448300 3.542200
8.460700 3.496200
8.473100 3.496600
8.485500 3.490900
8.497900 3.501100
8.510200 3.492400
8.522600 3.491000
8.535000 3.505500
8.547400 3.671700
8.559800 3.452900
8.572200 3.157700
8.584500 3.078500
8.596900 3.049900
8.609300 3.025600
8.621700 3.076700
8.634100 3.115200
8.646500 3.260200
8.658800 3.347000
8.671200 3.330200
8.683600 3.403100
8.696000 3.677300
8.708400 3.830000
8.720800 3.987500
8.733100 4.024000
8.745500 4.085100
8.757900 4.291000
8.770300 4.631600
8.782700 4.894200
8.795100 4.904700
8.807400 4.919700
8.819800 4.541900
8.832200 4.253900
8.844600 4.004100
8.857000 3.565400
8.869400 3.359900
8.881700 3.321800
8.894100 3.311100
8.906500 3.272900
8.918900 3.189500
8.931300 3.084600
8.943700 2.853900
8.956000 2.817100
8.968400 2.893600
8.980800 2.743500
8.993200 2.694700
9.005600 2.657500
9.018000 2.635800
9.030300 2.638900
9.042700 2.612600
9.055100 2.596600
9.067500 2.657100
9.079900 2.754700
9.092300 2.804100
9.104600 2.845600
9.117000 2.914100
9.129400 3.029500
9.141800 3.150800
9.154200 3.245800
9.166600 3.604900
9.178900 3.337300
9.191300 3.310700
9.203700 3.311600
9.216100 3.320000
9.228500 3.331900
9.240900 3.336800
9.253200 3.349300
9.265600 3.346700
9.278000 3.355100
9.290400 3.334000
9.302800 3.284000
9.315200 3.220700
9.327500 3.151000
9.339900 3.030100
9.352300 2.912000
9.364700 2.859300
9.377100 2.678900
9.389500 2.555600
9.401800 2.501600
9.414200 2.517500
9.426600 2.508700
9.439000 2.467400
9.451400 2.402100
9.463800 2.339500
9.476200 2.289200
9.488500 2.258700
9.500900 2.223200
9.513300 2.198700
9.525700 2.202400
9.538100 2.216600
9.550500 2.238700
9.562800 2.264300
9.575200 2.293800
9.587600 2.324800
9.600000 2.365400
9.612400 2.409400
9.624800 2.463100
9.637100 2.517600
9.649500 2.518500
9.661900 2.513000
9.674300 2.503900
9.686700 2.511300
9.699100 2.524700
9.711400 2.504700
9.723800 2.480500
9.736200 2.424200
9.748600 2.351900
9.761000 2.278200
9.773400 2.234600
9.785700 2.198800
9.798100 2.169100
9.810500 2.133800
9.822900 2.107300
9.835300 2.087600
9.847700 2.071400
9.860000 2.058500
9.872400 2.044800
9.884800 2.005900
9.897200 1.975300
9.909600 1.956400
9.922000 1.936000
9.934300 1.915300
9.946700 1.903200
9.959100 1.876800
9.971500 1.838900
9.983900 1.816100
9.996300 1.816000
10.008600 1.836400
10.021000 1.873800
10.033400 1.905700
10.045800 1.950200
10.058200 1.986100
10.070600 1.992000
10.082900 2.006700
10.095300 2.010000
10.107700 2.027300
10.120100 2.050800
10.132500 2.063900
10.144900 2.064200
10.157200 2.075200
10.169600 2.098000
10.182000 2.185900
10.194400 2.254400
10.206800 2.255200
10.219200 2.158900
10.231500 2.001700
10.243900 1.798900
10.256300 1.662100
10.268700 1.550400
10.281100 1.450300
10.293500 1.370800
10.305800 1.297100
10.318200 1.209200
10.330600 1.161100
10.343000 1.145300
10.355400 1.149100
10.367800 1.115500
10.380100 1.071800
10.392500 1.054900
10.404900 1.036600
10.417300 1.014600
10.429700 0.992200
10.442100 0.970800
10.454400 0.946900
10.466800 0.925200
10.479200 0.912800
10.491600 0.907700
10.504000 0.935200
10.516400 1.046400
10.528700 1.197100
10.541100 1.432700
10.553500 1.681400
10.565900 2.019600
10.578300 2.330900
10.590700 2.713900
10.603000 3.115600
10.615400 3.388000
10.627800 3.637700
10.640200 3.166800
10.652600 3.048000
10.665000 3.168200
10.677300 3.239100
10.689700 3.353900
10.702100 3.350000
10.714500 3.327400
10.726900 3.322800
10.739300 3.344200
10.751600 3.385900
10.764000 3.465100
10.776400 3.484200
10.788800 3.425400
10.801200 3.314800
10.813600 3.217600
10.825900 3.154700
10.838300 3.122000
10.850700 3.111800
10.863100 3.235200
10.875500 2.947700
10.887900 2.949800
10.900200 2.963900
10.912600 2.959100
10.925000 2.949100
10.937400 2.916300
10.949800 2.890500
10.962200 2.886200
10.974500 2.926700
10.986900 3.010600
10.999300 3.037500
11.011700 3.123000
11.024100 3.287600
11.036500 3.174600
11.048800 2.870100
11.061200 2.745200
11.073600 2.583600
11.086000 2.500300
11.098400 2.438200
11.110800 2.372400
11.123100 2.308400
11.135500 2.260800
11.147900 2.214900
11.160300 2.169000
11.172700 2.132300
11.185100 2.102000
11.197400 2.081600
11.209800 2.058100
11.222200 2.020800
11.234600 1.910900
11.247000 1.829000
11.259400 1.753100
11.271700 1.677800
11.284100 1.595400
11.296500 1.519200
11.308900 1.454600
11.321300 1.399400
11.333700 1.352200
11.346000 1.306200
11.358400 1.243500
11.370800 1.159500
11.383200 1.122000
11.395600 1.117800
11.408000 1.119900
11.420300 1.121700
11.432700 1.170800
11.445100 1.197100
11.457500 1.186400
11.469900 1.184300
11.482300 1.204800
11.494600 1.250800
11.507000 1.296700
11.519400 1.363000
11.531800 1.455200
11.544200 1.594500
11.556600 1.804400
11.568900 2.152700
11.581300 2.647200
11.593700 3.064800
11.606100 3.301600
11.618500 3.449700
11.630900 3.205400
11.643200 2.710700
11.655600 2.516500
11.668000 2.373000
11.680400 2.459300
11.692800 2.753700
11.705200 2.759000
11.717500 2.781700
11.729900 2.698200
11.742300 2.694600
11.754700 2.737300
11.767100 2.782500
11.779500 2.819600
11.791800 2.866600
11.804200 2.832200
11.816600 2.835000
11.829000 2.834000
11.841400 2.828100
11.853800 2.825400
11.866100 2.835500
11.878500 2.841000
11.890900 2.828200
11.903300 2.831500
11.915700 2.775600
11.928100 2.769600
11.940400 2.733400
11.952800 2.724900
11.965200 2.713400
11.977600 2.710900
11.990000 2.713300
12.002400 2.710600
12.014700 2.688800
12.027100 2.689300
12.039500 2.733100
12.051900 2.786700
12.064300 2.890100
12.076700 2.849500
12.089000 2.764000
12.101400 2.443000
12.113800 2.245500
12.126200 2.192000
12.138600 2.168200
12.151000 2.132100
12.163300 2.075000
12.175700 1.918600
12.188100 1.890100
12.200500 1.888300
12.212900 1.866000
12.225300 1.865100
12.237600 1.877100
12.250000 1.898900
12.262400 1.922600
12.274800 1.942500
12.287200 1.925000
12.299600 1.907600
12.311900 1.904500
12.324300 1.913000
12.336700 1.966000
12.349100 1.960000
12.361500 1.973500
12.373900 1.983600
12.386200 1.990500
12.398600 1.994900
12.411000 1.995100
12.423400 2.000200
12.435800 2.024800
12.448200 2.042600
12.460500 2.041500
12.472900 2.015900
12.485300 1.988300
12.497700 1.987100
12.510100 2.001600
12.522500 2.022100
12.534800 2.037700
12.547200 2.042500
12.559600 2.035200
12.572000 2.002900
12.584400 1.960600
12.596800 1.926700
12.609100 1.904200
12.621500 1.894100
12.633900 1.898900
12.646300 1.829600
12.658700 1.725100
12.671100 1.701900
12.683400 1.677800
12.695800 1.653900
12.708200 1.630800
12.720600 1.612000
12.733000 1.595600
12.745400 1.579400
12.757700 1.561300
12.770100 1.541600
12.782500 1.520600
12.794900 1.498100
12.807300 1.473100
12.819700 1.447300
12.832000 1.423300
12.844400 1.400000
12.856800 1.377300
12.869200 1.352100
12.881600 1.324700
12.894000 1.298300
12.906300 1.272500
12.918700 1.247100
12.931100 1.222400
12.943500 1.200200
12.955900 1.179200
12.968300 1.158500
12.980600 1.136500
12.993000 1.121100
13.005400 1.106600
13.017800 1.083300
13.030200 1.060300
13.042600 1.040300
13.054900 1.021300
13.067300 1.002200
13.079700 0.984400
13.092100 0.967900
13.104500 0.951600
13.116900 0.935600
13.129200 0.920500
13.141600 0.906900
13.154000 0.894500
13.166400 0.882900
13.178800 0.872100
13.191200 0.861700
13.203500 0.851900
13.215900 0.843100
13.228300 0.834400
13.240700 0.825900
13.253100 0.817300
13.265500 0.808900
13.277800 0.800900
13.290200 0.793200
13.302600 0.785200
13.315000 0.777400
13.327400 0.769900
13.339800 0.762700
13.352100 0.754300
13.364500 0.745200
13.376900 0.736900
13.389300 0.728900
13.401700 0.721100
13.414100 0.713300
13.426400 0.705600
13.438800 0.697900
13.451200 0.690200
13.463600 0.682600
13.476000 0.675200
13.488400 0.667800
13.500700 0.660300
13.513100 0.651900
13.525500 0.643100
13.537900 0.635600
13.550300 0.630600
13.562700 0.626600
13.575000 0.620100
13.587400 0.614000
13.599800 0.612100
13.612200 0.616300
13.624600 0.619600
13.637000 0.616700
13.649300 0.610600
13.661700 0.602800
13.674100 0.597400
13.686500 0.592000
13.698900 0.586400
13.711300 0.580500
13.723600 0.574700
13.736000 0.568900
13.748400 0.563300
13.760800 0.557700
13.773200 0.552900
13.785600 0.554400
13.798000 0.553300
13.810300 0.549900
13.822700 0.546200
13.835100 0.542500
13.847500 0.538600
13.859900 0.534500
13.872300 0.529900
13.884600 0.524800
13.897000 0.519300
13.909400 0.554700
13.921800 0.585000
13.934200 0.607200
13.946600 0.587200
13.958900 0.535000
13.971300 0.510500
13.983700 0.508000
13.996100 0.512700
14.008500 0.483700
14.020900 0.513300
14.033200 0.520500
14.045600 0.487900
14.058000 0.429100
14.070400 0.359900
14.082800 0.299100
14.095200 0.265100
14.107500 0.229600
14.119900 0.196900
14.132300 0.141000
14.144700 0.107900
14.157100 0.083900
14.169500 0.062800
14.181800 0.046700
14.194200 0.033200
14.206600 0.021000
14.219000 0.009700
14.231400 0.000600
14.243800 0.000000
14.256100 0.000000
14.268500 0.000000
14.280900 0.000000
14.293300 0.000000
14.305700 0.000000
14.318100 0.000000
14.330400 0.000000
14.342800 0.000000
14.355200 0.000000
14.367600 0.000000
14.380000 0.000000
14.392400 0.000000
14.404700 0.000000
14.417100 0.000000
14.429500 0.000000
14.441900 0.000000
14.454300 0.000000
14.466700 0.000000
14.479000 0.000000
14.491400 0.000000
14.503800 0.000000
14.516200 0.000000
14.528600 0.000000
14.541000 0.000000
14.553300 0.000000
14.565700 0.000000
14.578100 0.000000
14.590500 0.000000
14.602900 0.000000
14.615300 0.000000
14.627600 0.000000
14.640000 0.000000
14.652400 0.000000
14.664800 0.000000
14.677200 0.000000
14.689600 0.000000
14.701900 0.000000
14.714300 0.000000
14.726700 0.000000
14.739100 0.000000
14.751500 0.000000
14.763900 0.000000
14.776200 0.000000
14.788600 0.000000
14.801000 0.000000
14.813400 0.000000
14.825800 0.000000
14.838200 0.000000
14.850500 0.000000
14.862900 0.000000
14.875300 0.000000
14.887700 0.000000
14.900100 0.000000
14.912500 0.000000
14.924800 0.000000
14.937200 0.000000
14.949600 0.000000
14.962000 0.000000
14.974400 0.000000
14.986800 0.000000
14.999100 0.000000
15.011500 0.000000
15.023900 0.000000
15.036300 0.000000
15.048700 0.000000
15.061100 0.000000
15.073400 0.000000
15.085800 0.000000
15.098200 0.000000
15.110600 0.000000
15.123000 0.000000
15.135400 0.000000
15.147700 0.000000
15.160100 0.000000
15.172500 0.000000
15.184900 0.000000
15.197300 0.000000
15.209700 0.000000
15.222000 0.000000
15.234400 0.000000
15.246800 0.000000
15.259200 0.000000
15.271600 0.000000
15.284000 0.000000
15.296300 0.000000
15.308700 0.000000
15.321100 0.000000
15.333500 0.000000
15.345900 0.000000
15.358300 0.000000
15.370600 0.000000
e
