set title 'mp-1102082 - Density of States'
set xlabel 'Energy (eV)'
set ylabel 'DOS (states/eV)'
set grid
set xrange [-10:10]
set yrange [0:25.351]
set xzeroaxis lt -1
set terminal png size 800,600
set output 'mp-1102082_dos_gnuplot.png'
plot '-' using 1:2 with lines title 'DOS'
-9.773400 0.000000
-9.763100 0.000000
-9.752800 0.000000
-9.742500 0.000000
-9.732200 0.000000
-9.721900 0.000000
-9.711600 0.000000
-9.701200 0.000000
-9.690900 0.000000
-9.680600 0.000000
-9.670300 0.000000
-9.660000 0.000000
-9.649700 0.000000
-9.639300 0.000000
-9.629000 0.000000
-9.618700 0.000000
-9.608400 0.000000
-9.598100 0.000000
-9.587800 0.000000
-9.577400 0.000000
-9.567100 0.000000
-9.556800 0.000000
-9.546500 0.000000
-9.536200 0.000000
-9.525900 0.000000
-9.515500 0.000000
-9.505200 0.000000
-9.494900 0.000000
-9.484600 0.000000
-9.474300 0.000000
-9.464000 0.000000
-9.453600 0.000000
-9.443300 0.000000
-9.433000 0.000000
-9.422700 0.000000
-9.412400 0.000000
-9.402100 0.000000
-9.391800 0.000000
-9.381400 0.000000
-9.371100 0.000000
-9.360800 0.000000
-9.350500 0.000000
-9.340200 0.000000
-9.329900 0.000000
-9.319500 0.000000
-9.309200 0.000000
-9.298900 0.000000
-9.288600 0.000000
-9.278300 0.000000
-9.268000 0.000000
-9.257600 0.000000
-9.247300 0.000000
-9.237000 0.000000
-9.226700 0.000000
-9.216400 0.000000
-9.206100 0.000000
-9.195700 0.000000
-9.185400 0.000000
-9.175100 0.000000
-9.164800 0.000000
-9.154500 0.000000
-9.144200 0.000000
-9.133900 0.000000
-9.123500 0.000000
-9.113200 0.000000
-9.102900 0.000000
-9.092600 0.000000
-9.082300 0.000000
-9.072000 0.000000
-9.061600 0.000000
-9.051300 0.000000
-9.041000 0.000000
-9.030700 0.000000
-9.020400 0.000000
-9.010100 0.000000
-8.999700 0.000000
-8.989400 0.000000
-8.979100 0.000000
-8.968800 0.000000
-8.958500 0.000000
-8.948200 0.000000
-8.937800 0.000000
-8.927500 0.000000
-8.917200 0.000000
-8.906900 0.000000
-8.896600 0.000000
-8.886300 0.000000
-8.876000 0.000000
-8.865600 0.000000
-8.855300 0.000000
-8.845000 0.000000
-8.834700 0.000600
-8.824400 0.086500
-8.814100 0.317700
-8.803700 0.668300
-8.793400 0.904200
-8.783100 1.000900
-8.772800 1.045300
-8.762500 1.140600
-8.752200 1.264800
-8.741800 1.396400
-8.731500 1.535000
-8.721200 1.728400
-8.710900 2.024100
-8.700600 2.250600
-8.690300 2.202200
-8.679900 2.143800
-8.669600 2.183100
-8.659300 2.221200
-8.649000 2.265300
-8.638700 2.311500
-8.628400 2.357400
-8.618000 2.391800
-8.607700 2.444500
-8.597400 2.537800
-8.587100 2.879700
-8.576800 3.282800
-8.566500 3.523700
-8.556200 3.671500
-8.545800 3.790800
-8.535500 3.746400
-8.525200 3.792600
-8.514900 3.888000
-8.504600 3.974400
-8.494300 4.040400
-8.483900 4.085300
-8.473600 4.110200
-8.463300 3.895400
-8.453000 3.820200
-8.442700 3.891100
-8.432400 4.010800
-8.422000 4.176700
-8.411700 4.379400
-8.401400 4.568400
-8.391100 4.740800
-8.380800 5.119700
-8.370500 5.130200
-8.360100 5.053400
-8.349800 5.036100
-8.339500 5.025300
-8.329200 5.026500
-8.318900 5.019800
-8.308600 4.990100
-8.298300 4.946700
-8.287900 4.938700
-8.277600 4.957300
-8.267300 4.970700
-8.257000 4.940100
-8.246700 4.887300
-8.236400 4.766600
-8.226000 4.596700
-8.215700 4.387000
-8.205400 4.255300
-8.195100 4.150600
-8.184800 4.059400
-8.174500 3.976400
-8.164100 3.905900
-8.153800 3.854600
-8.143500 3.826900
-8.133200 3.804100
-8.122900 3.781100
-8.112600 3.757200
-8.102200 3.731000
-8.091900 3.704800
-8.081600 3.678300
-8.071300 3.653200
-8.061000 3.643300
-8.050700 3.634000
-8.040300 3.633600
-8.030000 3.682000
-8.019700 3.776500
-8.009400 3.897800
-7.999100 4.034200
-7.988800 4.183400
-7.978500 4.328500
-7.968100 4.466400
-7.957800 4.605400
-7.947500 4.758800
-7.937200 4.922600
-7.926900 5.120400
-7.916600 5.328100
-7.906200 5.535300
-7.895900 5.789300
-7.885600 6.168800
-7.875300 6.810100
-7.865000 7.563800
-7.854700 8.088000
-7.844300 8.553700
-7.834000 8.971600
-7.823700 9.372000
-7.813400 11.013500
-7.803100 10.818200
-7.792800 9.010100
-7.782400 8.251800
-7.772100 7.821500
-7.761800 7.969100
-7.751500 3.852400
-7.741200 4.014600
-7.730900 4.282000
-7.720600 4.578300
-7.710200 4.823000
-7.699900 4.966600
-7.689600 5.160100
-7.679300 5.353100
-7.669000 5.570800
-7.658700 6.254500
-7.648300 6.631500
-7.638000 6.605900
-7.627700 7.060700
-7.617400 7.725500
-7.607100 13.698700
-7.596800 15.480100
-7.586400 16.898000
-7.576100 17.725700
-7.565800 23.046700
-7.555500 22.048200
-7.545200 18.449100
-7.534900 15.869300
-7.524500 14.988300
-7.514200 13.260500
-7.503900 11.995500
-7.493600 11.807600
-7.483300 10.872000
-7.473000 10.400400
-7.462700 9.780300
-7.452300 7.732500
-7.442000 7.264000
-7.431700 6.550600
-7.421400 5.455100
-7.411100 3.889300
-7.400800 1.456300
-7.390400 0.000000
-7.380100 0.000000
-7.369800 0.000000
-7.359500 0.000000
-7.349200 0.000000
-7.338900 0.000000
-7.328500 0.000000
-7.318200 0.000000
-7.307900 0.000000
-7.297600 0.000000
-7.287300 0.000000
-7.277000 0.000000
-7.266600 0.000000
-7.256300 0.000000
-7.246000 0.000000
-7.235700 0.000000
-7.225400 0.000000
-7.215100 0.000000
-7.204700 0.000000
-7.194400 0.000000
-7.184100 0.000000
-7.173800 0.000000
-7.163500 0.000000
-7.153200 0.000000
-7.142900 0.000000
-7.132500 0.000000
-7.122200 0.000000
-7.111900 0.000000
-7.101600 0.000000
-7.091300 0.000000
-7.081000 0.000000
-7.070600 0.000000
-7.060300 0.000000
-7.050000 0.000000
-7.039700 0.000000
-7.029400 0.000000
-7.019100 0.000000
-7.008700 0.000000
-6.998400 0.000000
-6.988100 0.003000
-6.977800 0.060100
-6.967500 0.190200
-6.957200 0.386600
-6.946800 0.579200
-6.936500 0.752500
-6.926200 0.939500
-6.915900 1.130400
-6.905600 1.255400
-6.895300 1.296800
-6.885000 1.298200
-6.874600 1.312100
-6.864300 1.343400
-6.854000 1.402500
-6.843700 1.475200
-6.833400 1.543600
-6.823100 1.602300
-6.812700 1.646200
-6.802400 1.688700
-6.792100 1.763200
-6.781800 2.337500
-6.771500 2.347900
-6.761200 2.224100
-6.750800 2.062900
-6.740500 2.065300
-6.730200 2.084200
-6.719900 2.070700
-6.709600 2.274300
-6.699300 2.551900
-6.688900 2.821000
-6.678600 2.982000
-6.668300 3.009000
-6.658000 3.055500
-6.647700 3.070300
-6.637400 3.144900
-6.627000 3.223400
-6.616700 3.306400
-6.606400 3.390400
-6.596100 3.468000
-6.585800 3.497600
-6.575500 3.526500
-6.565200 3.590700
-6.554800 3.557900
-6.544500 3.518500
-6.534200 3.488900
-6.523900 3.451300
-6.513600 3.454500
-6.503300 3.473000
-6.492900 3.496500
-6.482600 3.520400
-6.472300 3.536200
-6.462000 3.542500
-6.451700 3.533300
-6.441400 3.519400
-6.431000 3.508300
-6.420700 3.380600
-6.410400 3.438400
-6.400100 3.383300
-6.389800 3.314200
-6.379500 3.360100
-6.369100 3.411100
-6.358800 3.469700
-6.348500 3.538300
-6.338200 3.609500
-6.327900 3.686300
-6.317600 3.832300
-6.307300 3.969100
-6.296900 3.812400
-6.286600 3.831600
-6.276300 3.895400
-6.266000 3.966300
-6.255700 3.933700
-6.245400 4.007400
-6.235000 4.279900
-6.224700 4.517000
-6.214400 4.592600
-6.204100 4.582900
-6.193800 4.587100
-6.183500 4.528700
-6.173100 4.399400
-6.162800 4.243800
-6.152500 4.054900
-6.142200 3.928000
-6.131900 3.857300
-6.121600 3.798600
-6.111200 3.746000
-6.100900 3.697200
-6.090600 3.669600
-6.080300 3.646600
-6.070000 3.638000
-6.059700 3.625600
-6.049400 3.606900
-6.039000 3.587500
-6.028700 3.570700
-6.018400 3.574600
-6.008100 3.590600
-5.997800 3.607900
-5.987500 3.627100
-5.977100 3.655900
-5.966800 3.698700
-5.956500 3.766500
-5.946200 3.820600
-5.935900 3.903200
-5.925600 4.016200
-5.915200 4.126300
-5.904900 4.294600
-5.894600 4.931800
-5.884300 5.416800
-5.874000 5.676000
-5.863700 6.143800
-5.853300 6.393400
-5.843000 5.773700
-5.832700 5.327800
-5.822400 4.515800
-5.812100 4.314400
-5.801800 4.055300
-5.791400 3.695600
-5.781100 3.316200
-5.770800 3.000700
-5.760500 2.725000
-5.750200 2.458500
-5.739900 2.251200
-5.729600 2.126900
-5.719200 2.073500
-5.708900 2.083900
-5.698600 2.182800
-5.688300 2.323500
-5.678000 2.459700
-5.667700 2.516400
-5.657300 2.593100
-5.647000 2.624200
-5.636700 3.052800
-5.626400 3.706800
-5.616100 4.282500
-5.605800 4.829200
-5.595400 5.364900
-5.585100 5.846900
-5.574800 6.059200
-5.564500 6.453500
-5.554200 6.954300
-5.543900 7.517500
-5.533500 7.839200
-5.523200 8.086100
-5.512900 8.220700
-5.502600 8.600000
-5.492300 8.986200
-5.482000 8.806000
-5.471700 9.269500
-5.461300 9.590100
-5.451000 10.012400
-5.440700 10.536900
-5.430400 8.713700
-5.420100 7.905100
-5.409800 7.477700
-5.399400 7.746000
-5.389100 8.299500
-5.378800 8.489900
-5.368500 9.281800
-5.358200 10.179900
-5.347900 11.707800
-5.337500 13.407600
-5.327200 12.937400
-5.316900 12.830800
-5.306600 12.769300
-5.296300 12.931600
-5.286000 12.402000
-5.275600 11.798400
-5.265300 11.756300
-5.255000 9.423600
-5.244700 8.640900
-5.234400 6.516000
-5.224100 5.512300
-5.213800 4.035700
-5.203400 2.662100
-5.193100 2.964200
-5.182800 3.631600
-5.172500 4.327400
-5.162200 5.061300
-5.151900 6.424900
-5.141500 7.522800
-5.131200 8.726400
-5.120900 9.854900
-5.110600 10.626900
-5.100300 11.419400
-5.090000 11.214800
-5.079600 10.598900
-5.069300 10.750300
-5.059000 10.843200
-5.048700 10.189800
-5.038400 8.411300
-5.028100 8.131900
-5.017700 8.086800
-5.007400 8.132000
-4.997100 8.768400
-4.986800 10.319900
-4.976500 12.225000
-4.966200 13.863900
-4.955800 10.346600
-4.945500 8.456100
-4.935200 7.225700
-4.924900 6.839000
-4.914600 6.833900
-4.904300 6.741400
-4.894000 5.667000
-4.883600 5.427200
-4.873300 6.026700
-4.863000 5.685600
-4.852700 6.063000
-4.842400 5.842300
-4.832100 6.068400
-4.821700 7.577100
-4.811400 9.099600
-4.801100 10.895600
-4.790800 10.611100
-4.780500 7.826600
-4.770200 8.034500
-4.759800 8.474800
-4.749500 9.284900
-4.739200 9.677400
-4.728900 9.291000
-4.718600 8.823600
-4.708300 8.764300
-4.697900 8.358400
-4.687600 7.735900
-4.677300 7.351700
-4.667000 7.122200
-4.656700 6.836800
-4.646400 6.435900
-4.636100 6.084500
-4.625700 5.913800
-4.615400 5.737900
-4.605100 5.529700
-4.594800 5.308000
-4.584500 5.124100
-4.574200 4.964200
-4.563800 4.807100
-4.553500 4.665400
-4.543200 4.519400
-4.532900 4.370200
-4.522600 4.247400
-4.512300 4.188400
-4.501900 4.171000
-4.491600 4.097700
-4.481300 3.973900
-4.471000 3.876500
-4.460700 3.823500
-4.450400 3.793500
-4.440000 3.774500
-4.429700 3.754000
-4.419400 3.739100
-4.409100 3.796000
-4.398800 3.894100
-4.388500 4.186800
-4.378100 4.280900
-4.367800 4.289800
-4.357500 4.275000
-4.347200 4.401000
-4.336900 4.084300
-4.326600 3.757400
-4.316300 3.670700
-4.305900 3.672800
-4.295600 3.579600
-4.285300 3.488600
-4.275000 3.399500
-4.264700 3.338800
-4.254400 3.295200
-4.244000 3.263200
-4.233700 3.209400
-4.223400 3.146100
-4.213100 3.087800
-4.202800 3.029600
-4.192500 2.970800
-4.182100 2.923200
-4.171800 2.888600
-4.161500 2.855200
-4.151200 2.866000
-4.140900 2.941600
-4.130600 3.041500
-4.120200 2.951100
-4.109900 2.939100
-4.099600 2.941100
-4.089300 2.940700
-4.079000 2.938200
-4.068700 2.934500
-4.058400 2.927100
-4.048000 2.909400
-4.037700 2.895400
-4.027400 2.893900
-4.017100 2.896600
-4.006800 2.889800
-3.996500 2.874000
-3.986100 2.859500
-3.975800 2.846600
-3.965500 2.820000
-3.955200 2.789800
-3.944900 2.768200
-3.934600 2.735200
-3.924200 2.690800
-3.913900 2.633700
-3.903600 2.578500
-3.893300 2.524800
-3.883000 2.449000
-3.872700 2.360500
-3.862300 2.275000
-3.852000 2.192700
-3.841700 2.114700
-3.831400 2.040200
-3.821100 1.977700
-3.810800 1.922100
-3.800500 1.862000
-3.790100 1.802900
-3.779800 1.744300
-3.769500 1.689600
-3.759200 1.641700
-3.748900 1.597800
-3.738600 1.556200
-3.728200 1.517200
-3.717900 1.482100
-3.707600 1.476400
-3.697300 1.457500
-3.687000 1.422500
-3.676700 1.392800
-3.666300 1.335500
-3.656000 1.264700
-3.645700 1.197100
-3.635400 1.132700
-3.625100 1.072700
-3.614800 1.041700
-3.604400 1.028100
-3.594100 1.016100
-3.583800 1.008000
-3.573500 1.001000
-3.563200 0.993100
-3.552900 0.985500
-3.542500 0.975700
-3.532200 0.979500
-3.521900 0.985800
-3.511600 0.994400
-3.501300 0.995500
-3.491000 0.950400
-3.480700 0.900000
-3.470300 0.844400
-3.460000 0.783600
-3.449700 0.718200
-3.439400 0.650800
-3.429100 0.617500
-3.418800 0.585900
-3.408400 0.558100
-3.398100 0.534900
-3.387800 0.516100
-3.377500 0.502500
-3.367200 0.486000
-3.356900 0.454400
-3.346500 0.407100
-3.336200 0.344300
-3.325900 0.268300
-3.315600 0.192200
-3.305300 0.123400
-3.295000 0.069300
-3.284600 0.030800
-3.274300 0.007600
-3.264000 0.000000
-3.253700 0.000000
-3.243400 0.000000
-3.233100 0.000000
-3.222800 0.000000
-3.212400 0.000000
-3.202100 0.000000
-3.191800 0.000000
-3.181500 0.000000
-3.171200 0.000000
-3.160900 0.000000
-3.150500 0.000000
-3.140200 0.000000
-3.129900 0.000000
-3.119600 0.000000
-3.109300 0.000000
-3.099000 0.000000
-3.088600 0.000000
-3.078300 0.000000
-3.068000 0.000000
-3.057700 0.000000
-3.047400 0.000000
-3.037100 0.000000
-3.026700 0.000000
-3.016400 0.000000
-3.006100 0.000000
-2.995800 0.000000
-2.985500 0.000000
-2.975200 0.000000
-2.964900 0.000000
-2.954500 0.000000
-2.944200 0.000000
-2.933900 0.000000
-2.923600 0.000000
-2.913300 0.000000
-2.903000 0.000000
-2.892600 0.000000
-2.882300 0.000000
-2.872000 0.000000
-2.861700 0.000000
-2.851400 0.000000
-2.841100 0.000000
-2.830700 0.000000
-2.820400 0.000000
-2.810100 0.000000
-2.799800 0.000000
-2.789500 0.000000
-2.779200 0.000000
-2.768800 0.000000
-2.758500 0.000000
-2.748200 0.000000
-2.737900 0.000000
-2.727600 0.000000
-2.717300 0.000000
-2.706900 0.000000
-2.696600 0.000000
-2.686300 0.000000
-2.676000 0.000000
-2.665700 0.000000
-2.655400 0.000000
-2.645100 0.000000
-2.634700 0.000000
-2.624400 0.000000
-2.614100 0.000000
-2.603800 0.000000
-2.593500 0.000000
-2.583200 0.000000
-2.572800 0.000000
-2.562500 0.000000
-2.552200 0.000000
-2.541900 0.000000
-2.531600 0.000000
-2.521300 0.000000
-2.510900 0.000000
-2.500600 0.000000
-2.490300 0.000000
-2.480000 0.000000
-2.469700 0.000000
-2.459400 0.000000
-2.449000 0.000000
-2.438700 0.000000
-2.428400 0.000000
-2.418100 0.000000
-2.407800 0.000000
-2.397500 0.000000
-2.387200 0.000000
-2.376800 0.000000
-2.366500 0.000000
-2.356200 0.000000
-2.345900 0.000000
-2.335600 0.000000
-2.325300 0.000000
-2.314900 0.000000
-2.304600 0.000000
-2.294300 0.000000
-2.284000 0.000000
-2.273700 0.000000
-2.263400 0.000000
-2.253000 0.000000
-2.242700 0.000000
-2.232400 0.000000
-2.222100 0.000000
-2.211800 0.000000
-2.201500 0.000000
-2.191100 0.000000
-2.180800 0.000000
-2.170500 0.000000
-2.160200 0.000000
-2.149900 0.000000
-2.139600 0.000000
-2.129200 0.000000
-2.118900 0.000000
-2.108600 0.000000
-2.098300 0.000000
-2.088000 0.000000
-2.077700 0.000000
-2.067400 0.000000
-2.057000 0.000000
-2.046700 0.000000
-2.036400 0.000000
-2.026100 0.000000
-2.015800 0.000000
-2.005500 0.000000
-1.995100 0.000000
-1.984800 0.000000
-1.974500 0.000000
-1.964200 0.000000
-1.953900 0.000000
-1.943600 0.000000
-1.933200 0.000000
-1.922900 0.000000
-1.912600 0.000000
-1.902300 0.000000
-1.892000 0.000000
-1.881700 0.000000
-1.871300 0.000000
-1.861000 0.000000
-1.850700 0.000000
-1.840400 0.000000
-1.830100 0.000000
-1.819800 0.000000
-1.809500 0.000000
-1.799100 0.000000
-1.788800 0.000000
-1.778500 0.000000
-1.768200 0.000000
-1.757900 0.000000
-1.747600 0.000000
-1.737200 0.000000
-1.726900 0.000000
-1.716600 0.000000
-1.706300 0.000000
-1.696000 0.000000
-1.685700 0.000000
-1.675300 0.000000
-1.665000 0.000000
-1.654700 0.000000
-1.644400 0.000000
-1.634100 0.000000
-1.623800 0.000000
-1.613400 0.000000
-1.603100 0.000000
-1.592800 0.000000
-1.582500 0.000000
-1.572200 0.000000
-1.561900 0.000000
-1.551600 0.000000
-1.541200 0.000000
-1.530900 0.000000
-1.520600 0.000000
-1.510300 0.000000
-1.500000 0.000000
-1.489700 0.000000
-1.479300 0.000000
-1.469000 0.000000
-1.458700 0.000000
-1.448400 0.000000
-1.438100 0.000000
-1.427800 0.000000
-1.417400 0.000000
-1.407100 0.000000
-1.396800 0.000000
-1.386500 0.000000
-1.376200 0.000000
-1.365900 0.000000
-1.355500 0.000000
-1.345200 0.000000
-1.334900 0.000000
-1.324600 0.000000
-1.314300 0.000000
-1.304000 0.000000
-1.293600 0.000000
-1.283300 0.000000
-1.273000 0.000000
-1.262700 0.000000
-1.252400 0.000000
-1.242100 0.000000
-1.231800 0.000000
-1.221400 0.000000
-1.211100 0.000000
-1.200800 0.000000
-1.190500 0.000000
-1.180200 0.000000
-1.169900 0.000000
-1.159500 0.000000
-1.149200 0.000000
-1.138900 0.000000
-1.128600 0.000000
-1.118300 0.000000
-1.108000 0.000000
-1.097600 0.000000
-1.087300 0.000000
-1.077000 0.000000
-1.066700 0.000000
-1.056400 0.000000
-1.046100 0.000000
-1.035700 0.000000
-1.025400 0.000000
-1.015100 0.000000
-1.004800 0.000000
-0.994500 0.000000
-0.984200 0.000000
-0.973900 0.000000
-0.963500 0.000000
-0.953200 0.000000
-0.942900 0.000000
-0.932600 0.000000
-0.922300 0.000000
-0.912000 0.000000
-0.901600 0.000000
-0.891300 0.000000
-0.881000 0.000000
-0.870700 0.000000
-0.860400 0.000000
-0.850100 0.000000
-0.839700 0.000000
-0.829400 0.000000
-0.819100 0.000000
-0.808800 0.000000
-0.798500 0.000000
-0.788200 0.000000
-0.777800 0.000000
-0.767500 0.000000
-0.757200 0.000000
-0.746900 0.000000
-0.736600 0.000000
-0.726300 0.000000
-0.715900 0.000000
-0.705600 0.000000
-0.695300 0.000000
-0.685000 0.000000
-0.674700 0.000000
-0.664400 0.000000
-0.654100 0.000000
-0.643700 0.000000
-0.633400 0.000000
-0.623100 0.000000
-0.612800 0.000000
-0.602500 0.000000
-0.592200 0.000000
-0.581800 0.000000
-0.571500 0.000000
-0.561200 0.000000
-0.550900 0.000000
-0.540600 0.000000
-0.530300 0.000000
-0.519900 0.000000
-0.509600 0.000000
-0.499300 0.000000
-0.489000 0.000000
-0.478700 0.000000
-0.468400 0.000000
-0.458000 0.000000
-0.447700 0.000000
-0.437400 0.000000
-0.427100 0.000000
-0.416800 0.000000
-0.406500 0.000000
-0.396200 0.000000
-0.385800 0.000000
-0.375500 0.000000
-0.365200 0.000000
-0.354900 0.000000
-0.344600 0.000000
-0.334300 0.000000
-0.323900 0.000000
-0.313600 0.000000
-0.303300 0.000000
-0.293000 0.000000
-0.282700 0.000000
-0.272400 0.000000
-0.262000 0.000000
-0.251700 0.000000
-0.241400 0.000000
-0.231100 0.000000
-0.220800 0.000000
-0.210500 0.000000
-0.200100 0.000000
-0.189800 0.000000
-0.179500 0.000000
-0.169200 0.000000
-0.158900 0.000000
-0.148600 0.000000
-0.138300 0.000000
-0.127900 0.000000
-0.117600 0.000000
-0.107300 0.000000
-0.097000 0.000000
-0.086700 0.000000
-0.076400 0.000000
-0.066000 0.000000
-0.055700 0.000000
-0.045400 0.000000
-0.035100 0.000000
-0.024800 0.000000
-0.014500 0.000000
-0.004100 0.005200
0.006200 0.025400
0.016500 0.060800
0.026800 0.110200
0.037100 0.154300
0.047400 0.192000
0.057800 0.241800
0.068100 0.400100
0.078400 0.585800
0.088700 0.746800
0.099000 0.905400
0.109300 1.015900
0.119700 1.086400
0.130000 1.172700
0.140300 1.263600
0.150600 1.405700
0.160900 1.615200
0.171200 1.923000
0.181500 2.261400
0.191900 2.560800
0.202200 2.878000
0.212500 3.123800
0.222800 3.280500
0.233100 3.419700
0.243400 3.567800
0.253800 3.729500
0.264100 3.916500
0.274400 4.141300
0.284700 4.520800
0.295000 4.499100
0.305300 4.555400
0.315700 4.698500
0.326000 4.795000
0.336300 4.915000
0.346600 4.988600
0.356900 4.986800
0.367200 4.939700
0.377600 4.985100
0.387900 5.023100
0.398200 5.009400
0.408500 4.931100
0.418800 4.813200
0.429100 4.729700
0.439400 4.687200
0.449800 4.731900
0.460100 4.860400
0.470400 4.821700
0.480700 4.821700
0.491000 4.841900
0.501300 4.867100
0.511700 4.877300
0.522000 4.902300
0.532300 4.940500
0.542600 4.994200
0.552900 5.043900
0.563200 5.085000
0.573600 5.108400
0.583900 5.122900
0.594200 5.143800
0.604500 5.170200
0.614800 5.334600
0.625100 5.494300
0.635500 5.641700
0.645800 5.563300
0.656100 5.485300
0.666400 5.477000
0.676700 5.478100
0.687000 5.492100
0.697300 5.520100
0.707700 5.548000
0.718000 5.557600
0.728300 5.554300
0.738600 5.550500
0.748900 5.557900
0.759200 5.564500
0.769600 5.563900
0.779900 5.561900
0.790200 5.659800
0.800500 5.741000
0.810800 5.795500
0.821100 5.841500
0.831500 6.426900
0.841800 6.298800
0.852100 6.019300
0.862400 5.938400
0.872700 5.996200
0.883000 6.179700
0.893400 6.382800
0.903700 6.543100
0.914000 6.703300
0.924300 6.817200
0.934600 6.918700
0.944900 7.049000
0.955300 7.177200
0.965600 7.327000
0.975900 7.454900
0.986200 7.332500
0.996500 7.376100
1.006800 7.426000
1.017100 7.477700
1.027500 7.537300
1.037800 7.569700
1.048100 7.564600
1.058400 7.607800
1.068700 7.706000
1.079000 7.833400
1.089400 8.159900
1.099700 8.497100
1.110000 8.942700
1.120300 9.627800
1.130600 9.870900
1.140900 9.975700
1.151300 9.982700
1.161600 10.014700
1.171900 10.180300
1.182200 9.966000
1.192500 9.837400
1.202800 9.922600
1.213200 9.846100
1.223500 9.855800
1.233800 9.695600
1.244100 9.543300
1.254400 9.524400
1.264700 9.358100
1.275000 8.995900
1.285400 9.201100
1.295700 10.012200
1.306000 10.212600
1.316300 9.752600
1.326600 9.877700
1.336900 9.802000
1.347300 9.572600
1.357600 9.310900
1.367900 9.006600
1.378200 9.039200
1.388500 9.056300
1.398800 9.041200
1.409200 9.170200
1.419500 8.962200
1.429800 8.942100
1.440100 9.128300
1.450400 9.316400
1.460700 9.504500
1.471100 9.943000
1.481400 10.239200
1.491700 10.378000
1.502000 10.551600
1.512300 10.794700
1.522600 11.313900
1.533000 11.403100
1.543300 11.572600
1.553600 11.622200
1.563900 11.448900
1.574200 10.552400
1.584500 10.174900
1.594800 10.028900
1.605200 9.881900
1.615500 9.716400
1.625800 9.589000
1.636100 9.227200
1.646400 9.080900
1.656700 9.231700
1.667100 9.404400
1.677400 9.456400
1.687700 8.899300
1.698000 8.492500
1.708300 8.365000
1.718600 8.251500
1.729000 8.150700
1.739300 8.010200
1.749600 7.958000
1.759900 7.913600
1.770200 7.876200
1.780500 7.901500
1.790900 7.937600
1.801200 7.912200
1.811500 7.883300
1.821800 7.888000
1.832100 7.881400
1.842400 8.088600
1.852700 8.210900
1.863100 8.316500
1.873400 8.566500
1.883700 8.947100
1.894000 9.189500
1.904300 9.580000
1.914600 10.166700
1.925000 10.267500
1.935300 9.999800
1.945600 9.963200
1.955900 9.882900
1.966200 9.946300
1.976500 9.916200
1.986900 9.826500
1.997200 9.761500
2.007500 9.833700
2.017800 9.817500
2.028100 9.788200
2.038400 9.717600
2.048800 9.669800
2.059100 9.717400
2.069400 9.629800
2.079700 9.727700
2.090000 9.910300
2.100300 10.036900
2.110600 10.068800
2.121000 10.148300
2.131300 10.401300
2.141600 10.887600
2.151900 10.877500
2.162200 10.925800
2.172500 10.947000
2.182900 11.264800
2.193200 11.567000
2.203500 11.506100
2.213800 11.681800
2.224100 12.221900
2.234400 11.905100
2.244800 11.871700
2.255100 11.167000
2.265400 10.996700
2.275700 10.837400
2.286000 10.820200
2.296300 10.941800
2.306700 10.329500
2.317000 10.336500
2.327300 10.292300
2.337600 10.254300
2.347900 10.215600
2.358200 10.199600
2.368600 9.993700
2.378900 9.972000
2.389200 10.253800
2.399500 9.954700
2.409800 9.799400
2.420100 9.590100
2.430400 9.443000
2.440800 9.467900
2.451100 9.582000
2.461400 9.957000
2.471700 9.923600
2.482000 9.508400
2.492300 9.373700
2.502700 9.243800
2.513000 9.211500
2.523300 9.181400
2.533600 9.042700
2.543900 8.960100
2.554200 8.767500
2.564600 8.673700
2.574900 8.590200
2.585200 8.518100
2.595500 8.434400
2.605800 8.328400
2.616100 8.294400
2.626500 8.284000
2.636800 8.282000
2.647100 8.318800
2.657400 8.340600
2.667700 8.495000
2.678000 8.991100
2.688300 8.869800
2.698700 8.677000
2.709000 8.640500
2.719300 8.486700
2.729600 8.360500
2.739900 8.261900
2.750200 8.172000
2.760600 8.131900
2.770900 8.119200
2.781200 8.132500
2.791500 8.177700
2.801800 8.258800
2.812100 8.352800
2.822500 8.460100
2.832800 8.570800
2.843100 8.648200
2.853400 9.304300
2.863700 9.093300
2.874000 9.174100
2.884400 9.005100
2.894700 8.916900
2.905000 8.969700
2.915300 8.888800
2.925600 8.833000
2.935900 8.948700
2.946200 9.055400
2.956600 9.123700
2.966900 9.029200
2.977200 8.776700
2.987500 8.427600
2.997800 8.085000
3.008100 8.021500
3.018500 8.114400
3.028800 8.395800
3.039100 8.844600
3.049400 9.280000
3.059700 9.676200
3.070000 9.798400
3.080400 10.718000
3.090700 10.404300
3.101000 9.600900
3.111300 9.750000
3.121600 9.365700
3.131900 9.023200
3.142300 8.335000
3.152600 7.934700
3.162900 7.767600
3.173200 7.386200
3.183500 7.249200
3.193800 7.380700
3.204200 7.699000
3.214500 8.946500
3.224800 7.740200
3.235100 7.284200
3.245400 7.240300
3.255700 7.231700
3.266000 7.162500
3.276400 6.959600
3.286700 6.948500
3.297000 7.103400
3.307300 7.113500
3.317600 7.295700
3.327900 7.550700
3.338300 7.939600
3.348600 8.005200
3.358900 7.957200
3.369200 7.812900
3.379500 7.677600
3.389800 7.385200
3.400200 7.471800
3.410500 7.938900
3.420800 8.220900
3.431100 8.258200
3.441400 8.107300
3.451700 7.994100
3.462100 8.024000
3.472400 8.037800
3.482700 8.092800
3.493000 8.095800
3.503300 8.168100
3.513600 8.238700
3.523900 8.137100
3.534300 8.045900
3.544600 7.953200
3.554900 7.872300
3.565200 7.619800
3.575500 7.437400
3.585800 7.237800
3.596200 7.075000
3.606500 6.963200
3.616800 6.768600
3.627100 6.631700
3.637400 6.370300
3.647700 6.207500
3.658100 6.182000
3.668400 6.199200
3.678700 6.244300
3.689000 6.291200
3.699300 6.352800
3.709600 6.366700
3.720000 6.593600
3.730300 6.674000
3.740600 6.606000
3.750900 6.534500
3.761200 6.467600
3.771500 6.472500
3.781900 6.601300
3.792200 6.613400
3.802500 6.649900
3.812800 6.690500
3.823100 6.698000
3.833400 6.673400
3.843700 6.638100
3.854100 6.630700
3.864400 6.656700
3.874700 6.657500
3.885000 6.541800
3.895300 6.539900
3.905600 6.621100
3.916000 6.724800
3.926300 6.854100
3.936600 6.973000
3.946900 6.975200
3.957200 6.936600
3.967500 7.054100
3.977900 7.174400
3.988200 7.315800
3.998500 7.480400
4.008800 7.628300
4.019100 7.847300
4.029400 8.214600
4.039800 9.551000
4.050100 9.130200
4.060400 8.374100
4.070700 8.240800
4.081000 8.297000
4.091300 8.337100
4.101600 8.567100
4.112000 8.759200
4.122300 8.965600
4.132600 9.053800
4.142900 9.057000
4.153200 9.184500
4.163500 9.147700
4.173900 9.023600
4.184200 8.888400
4.194500 8.901700
4.204800 8.960300
4.215100 8.969500
4.225400 8.847000
4.235800 8.717800
4.246100 8.677400
4.256400 8.773200
4.266700 8.795700
4.277000 8.731800
4.287300 8.597600
4.297700 8.511500
4.308000 8.429600
4.318300 8.297200
4.328600 8.201700
4.338900 8.131800
4.349200 8.064500
4.359500 8.050200
4.369900 8.078000
4.380200 8.098900
4.390500 8.133600
4.400800 8.162700
4.411100 8.146600
4.421400 8.112800
4.431800 8.076500
4.442100 8.047400
4.452400 8.049300
4.462700 8.041400
4.473000 8.027900
4.483300 8.009600
4.493700 7.959500
4.504000 7.869700
4.514300 7.836700
4.524600 7.820000
4.534900 7.806600
4.545200 7.786800
4.555600 7.774900
4.565900 7.768600
4.576200 7.772200
4.586500 7.776700
4.596800 7.801100
4.607100 7.844600
4.617500 7.865200
4.627800 7.887200
4.638100 7.916600
4.648400 7.895400
4.658700 7.861000
4.669000 7.818400
4.679300 7.768400
4.689700 7.709400
4.700000 7.652800
4.710300 7.589200
4.720600 7.518500
4.730900 7.470000
4.741200 7.421400
4.751600 7.385300
4.761900 7.353800
4.772200 7.313400
4.782500 7.276200
4.792800 7.238600
4.803100 7.208800
4.813500 7.177500
4.823800 7.156300
4.834100 7.138500
4.844400 7.108300
4.854700 7.066600
4.865000 7.029800
4.875400 6.991300
4.885700 6.960700
4.896000 6.985400
4.906300 6.911600
4.916600 6.805600
4.926900 6.765900
4.937200 6.761800
4.947600 6.747400
4.957900 6.735900
4.968200 6.726900
4.978500 6.722600
4.988800 6.728300
4.999100 6.694700
5.009500 6.588100
5.019800 6.864400
5.030100 7.045700
5.040400 6.674900
5.050700 6.564700
5.061000 6.569700
5.071400 6.635600
5.081700 7.056700
5.092000 6.669000
5.102300 6.581500
5.112600 6.521200
5.122900 6.445700
5.133300 6.395200
5.143600 6.354500
5.153900 6.255600
5.164200 6.136700
5.174500 6.044200
5.184800 5.920100
5.195200 5.775500
5.205500 5.678000
5.215800 5.597600
5.226100 5.530500
5.236400 5.458300
5.246700 5.396400
5.257000 5.357000
5.267400 5.351800
5.277700 5.323900
5.288000 5.733600
5.298300 5.873400
5.308600 5.771600
5.318900 5.414200
5.329300 5.305200
5.339600 5.270700
5.349900 5.289000
5.360200 5.512600
5.370500 5.541800
5.380800 5.526100
5.391200 5.606700
5.401500 5.641100
5.411800 5.591500
5.422100 5.531500
5.432400 5.477900
5.442700 5.433300
5.453100 5.402100
5.463400 5.310400
5.473700 5.319200
5.484000 5.371800
5.494300 5.459300
5.504600 5.573500
5.514900 5.664300
5.525300 5.605400
5.535600 5.540500
5.545900 5.462800
5.556200 5.460000
5.566500 5.564300
5.576800 5.707400
5.587200 5.783400
5.597500 5.803700
5.607800 5.815700
5.618100 5.785700
5.628400 5.882300
5.638700 6.286200
5.649100 6.170800
5.659400 5.816800
5.669700 5.876400
5.680000 5.857100
5.690300 5.680600
5.700600 5.533400
5.711000 5.462600
5.721300 5.271700
5.731600 5.271400
5.741900 5.168100
5.752200 5.538500
5.762500 5.382300
5.772800 5.334100
5.783200 5.204000
5.793500 5.351700
5.803800 5.480700
5.814100 5.657400
5.824400 5.849500
5.834700 6.763400
5.845100 5.930000
5.855400 5.150500
5.865700 4.641500
5.876000 4.405800
5.886300 4.207300
5.896600 4.072100
5.907000 3.807200
5.917300 3.931000
5.927600 4.047300
5.937900 4.215100
5.948200 4.366500
5.958500 4.498600
5.968900 4.605200
5.979200 4.675600
5.989500 4.721300
5.999800 4.778000
6.010100 4.859500
6.020400 4.956700
6.030800 5.046000
6.041100 4.834100
6.051400 4.590200
6.061700 4.447300
6.072000 4.419900
6.082300 4.500700
6.092600 4.495000
6.103000 4.521700
6.113300 4.653300
6.123600 4.810700
6.133900 4.932200
6.144200 5.066900
6.154500 5.214600
6.164900 5.392800
6.175200 5.142600
6.185500 4.897600
6.195800 4.598200
6.206100 4.535300
6.216400 4.447500
6.226800 4.337500
6.237100 4.221200
6.247400 4.076800
6.257700 3.997400
6.268000 4.027400
6.278300 4.271100
6.288700 4.186000
6.299000 4.295600
6.309300 4.495200
6.319600 4.653500
6.329900 4.779000
6.340200 4.939900
6.350500 5.147300
6.360900 5.266100
6.371200 5.349800
6.381500 5.492500
6.391800 5.668600
6.402100 5.910500
6.412400 6.450300
6.422800 7.009200
6.433100 7.773600
6.443400 8.026800
6.453700 8.288200
6.464000 8.374800
6.474300 8.199200
6.484700 8.393500
6.495000 8.488100
6.505300 8.608600
6.515600 8.976200
6.525900 9.750600
6.536200 10.080700
6.546600 9.949300
6.556900 9.200300
6.567200 8.856500
6.577500 8.470600
6.587800 8.037100
6.598100 7.440100
6.608400 7.225700
6.618800 7.205500
6.629100 7.116300
6.639400 7.816200
6.649700 7.075600
6.660000 6.716100
6.670300 6.810500
6.680700 6.915700
6.691000 7.157500
6.701300 7.080400
6.711600 7.211200
6.721900 7.456100
6.732200 7.718100
6.742600 8.031100
6.752900 8.225900
6.763200 9.059000
6.773500 8.291600
6.783800 8.458500
6.794100 8.583900
6.804500 8.804600
6.814800 9.018200
6.825100 9.337900
6.835400 9.129300
6.845700 8.804300
6.856000 8.866000
6.866400 8.975800
6.876700 8.951100
6.887000 8.788800
6.897300 8.693000
6.907600 8.336400
6.917900 8.041500
6.928200 7.836000
6.938600 7.502800
6.948900 6.859800
6.959200 6.719200
6.969500 6.712600
6.979800 6.377700
6.990100 6.452400
7.000500 6.553800
7.010800 6.638300
7.021100 6.731100
7.031400 6.667700
7.041700 6.531500
7.052000 6.338000
7.062400 6.395000
7.072700 6.532500
7.083000 6.696800
7.093300 6.892100
7.103600 7.121000
7.113900 7.413700
7.124300 7.713600
7.134600 7.853200
7.144900 7.940800
7.155200 8.220000
7.165500 8.218600
7.175800 8.179700
7.186100 8.113700
7.196500 8.064400
7.206800 8.110100
7.217100 8.073300
7.227400 8.058300
7.237700 8.037000
7.248000 7.993700
7.258400 7.923600
7.268700 7.884000
7.279000 7.849500
7.289300 7.863500
7.299600 7.924500
7.309900 8.072900
7.320300 8.158000
7.330600 8.184900
7.340900 8.309800
7.351200 8.406300
7.361500 8.496800
7.371800 8.560800
7.382200 8.649900
7.392500 8.802000
7.402800 8.773100
7.413100 8.760600
7.423400 8.981800
7.433700 8.954000
7.444100 8.919800
7.454400 8.886400
7.464700 8.927600
7.475000 9.047800
7.485300 9.258300
7.495600 9.535000
7.505900 10.043700
7.516300 10.545500
7.526600 10.326000
7.536900 10.431400
7.547200 10.463300
7.557500 10.440300
7.567800 10.438200
7.578200 10.648400
7.588500 10.505700
7.598800 10.368800
7.609100 10.334000
7.619400 10.296300
7.629700 10.353700
7.640100 10.461200
7.650400 10.432200
7.660700 10.273200
7.671000 10.117600
7.681300 10.027200
7.691600 9.988400
7.702000 9.770400
7.712300 9.761100
7.722600 9.772500
7.732900 9.666100
7.743200 9.544100
7.753500 9.423200
7.763800 9.465500
7.774200 9.135200
7.784500 8.941300
7.794800 8.846100
7.805100 8.819800
7.815400 8.817600
7.825700 8.821800
7.836100 8.848700
7.846400 8.877300
7.856700 8.892200
7.867000 8.915400
7.877300 8.926900
7.887600 8.940200
7.898000 9.069500
7.908300 8.985200
7.918600 9.141000
7.928900 9.226300
7.939200 9.325300
7.949500 9.525500
7.959900 9.580700
7.970200 9.477200
7.980500 9.488300
7.990800 9.508300
8.001100 9.533700
8.011400 9.605700
8.021700 9.700000
8.032100 9.791400
8.042400 9.584200
8.052700 9.550500
8.063000 9.506800
8.073300 9.499700
8.083600 9.539900
8.094000 9.640800
8.104300 9.562900
8.114600 9.621700
8.124900 9.702500
8.135200 9.723700
8.145500 9.753900
8.155900 9.745200
8.166200 9.761300
8.176500 9.845600
8.186800 9.914200
8.197100 10.002000
8.207400 10.253600
8.217800 10.316400
8.228100 10.312400
8.238400 10.389700
8.248700 10.501300
8.259000 10.631800
8.269300 10.773900
8.279700 10.818800
8.290000 10.881600
8.300300 10.741800
8.310600 10.420000
8.320900 10.381300
8.331200 10.375300
8.341500 10.355200
8.351900 10.382200
8.362200 10.412400
8.372500 10.462100
8.382800 10.540600
8.393100 10.455900
8.403400 10.488300
8.413800 10.368000
8.424100 10.455800
8.434400 10.295600
8.444700 10.271700
8.455000 10.205900
8.465300 10.160600
8.475700 10.169000
8.486000 10.199800
8.496300 10.258000
8.506600 10.291700
8.516900 10.289800
8.527200 10.241200
8.537600 10.091100
8.547900 9.739600
8.558200 9.531900
8.568500 9.424400
8.578800 9.428100
8.589100 9.585300
8.599400 9.501400
8.609800 9.439700
8.620100 9.318300
8.630400 9.242700
8.640700 9.330200
8.651000 9.178800
8.661300 8.908400
8.671700 8.783100
8.682000 8.606200
8.692300 8.391300
8.702600 8.150700
8.712900 7.926200
8.723200 7.750600
8.733600 7.618100
8.743900 7.567400
8.754200 7.482900
8.764500 7.359300
8.774800 7.231200
8.785100 7.129600
8.795500 7.048900
8.805800 7.563600
8.816100 7.086600
8.826400 6.885300
8.836700 6.785100
8.847000 6.734800
8.857300 6.621400
8.867700 6.512100
8.878000 6.431500
8.888300 6.353300
8.898600 6.283900
8.908900 6.222600
8.919200 6.168400
8.929600 5.687500
8.939900 5.578800
8.950200 5.537300
8.960500 5.519600
8.970800 5.518900
8.981100 5.527100
8.991500 5.595400
9.001800 5.683400
9.012100 6.049300
9.022400 5.733700
9.032700 5.727600
9.043000 5.719900
9.053400 5.721100
9.063700 5.745600
9.074000 5.696200
9.084300 5.637800
9.094600 5.575600
9.104900 5.563900
9.115300 5.526900
9.125600 5.370900
9.135900 5.256000
9.146200 5.226300
9.156500 5.195200
9.166800 5.240700
9.177100 5.271100
9.187500 5.340000
9.197800 5.392400
9.208100 5.436400
9.218400 5.396800
9.228700 5.377500
9.239000 5.374800
9.249400 5.396500
9.259700 5.405400
9.270000 5.329300
9.280300 5.351300
9.290600 5.419200
9.300900 5.472000
9.311300 5.471000
9.321600 5.492500
9.331900 5.525200
9.342200 5.534500
9.352500 5.476200
9.362800 5.365700
9.373200 5.250500
9.383500 5.148700
9.393800 5.066900
9.404100 5.037100
9.414400 5.039900
9.424700 5.070900
9.435000 5.109800
9.445400 5.157900
9.455700 5.138900
9.466000 5.113900
9.476300 5.022300
9.486600 4.742400
9.496900 4.494000
9.507300 4.247500
9.517600 4.064400
9.527900 3.941600
9.538200 3.868200
9.548500 3.776800
9.558800 3.529100
9.569200 3.302800
9.579500 3.112400
9.589800 2.934000
9.600100 2.761500
9.610400 2.610400
9.620700 2.476500
9.631100 2.362400
9.641400 2.075800
9.651700 1.747300
9.662000 1.527300
9.672300 1.355300
9.682600 1.187500
9.693000 1.036200
9.703300 0.898600
9.713600 0.785400
9.723900 0.697300
9.734200 0.623800
9.744500 0.555400
9.754800 0.493300
9.765200 0.434000
9.775500 0.378700
9.785800 0.328800
9.796100 0.282900
9.806400 0.240300
9.816700 0.198900
9.827100 0.158500
9.837400 0.119000
9.847700 0.082600
9.858000 0.053500
9.868300 0.031600
9.878600 0.017000
9.889000 0.009200
9.899300 0.004200
9.909600 0.001100
9.919900 0.000000
9.930200 0.000000
9.940500 0.000000
9.950900 0.000000
9.961200 0.000000
9.971500 0.000000
9.981800 0.000000
9.992100 0.000000
10.002400 0.000000
10.012700 0.000000
10.023100 0.000000
10.033400 0.000000
10.043700 0.000000
10.054000 0.000000
10.064300 0.000000
10.074600 0.000000
10.085000 0.000000
10.095300 0.000000
10.105600 0.000000
10.115900 0.000000
10.126200 0.000000
10.136500 0.000000
10.146900 0.000000
10.157200 0.000000
10.167500 0.000000
10.177800 0.000000
10.188100 0.000000
10.198400 0.000000
10.208800 0.000000
10.219100 0.000000
10.229400 0.000000
10.239700 0.000000
10.250000 0.000000
10.260300 0.000000
10.270600 0.000000
10.281000 0.000000
10.291300 0.000000
10.301600 0.000000
10.311900 0.000000
10.322200 0.000000
10.332500 0.000000
10.342900 0.000000
10.353200 0.000000
10.363500 0.000000
10.373800 0.000000
10.384100 0.000000
10.394400 0.000000
10.404800 0.000000
10.415100 0.000000
10.425400 0.000000
10.435700 0.000000
10.446000 0.000000
10.456300 0.000000
10.466700 0.000000
10.477000 0.000000
10.487300 0.000000
10.497600 0.000000
10.507900 0.000000
10.518200 0.000000
10.528600 0.000000
10.538900 0.000000
10.549200 0.000000
10.559500 0.000000
10.569800 0.000000
10.580100 0.000000
10.590400 0.000000
10.600800 0.000000
10.611100 0.000000
10.621400 0.000000
10.631700 0.000000
10.642000 0.000000
10.652300 0.000000
10.662700 0.000000
10.673000 0.000000
10.683300 0.000000
10.693600 0.000000
10.703900 0.000000
10.714200 0.000000
10.724600 0.000000
10.734900 0.000000
10.745200 0.000000
10.755500 0.000000
10.765800 0.000000
10.776100 0.000000
10.786500 0.000000
10.796800 0.000000
10.807100 0.000000
10.817400 0.000000
10.827700 0.000000
10.838000 0.000000
10.848300 0.000000
10.858700 0.000000
e
