set title 'mp-2441 - Density of States'
set xlabel 'Energy (eV)'
set ylabel 'DOS (states/eV)'
set grid
set xrange [-10:10]
set yrange [0:918.514]
set xzeroaxis lt -1
set terminal png size 800,600
set output 'mp-2441_dos_gnuplot.png'
plot '-' using 1:2 with lines title 'DOS'
-9.702200 0.000000
-9.690400 0.000000
-9.678600 0.000000
-9.666800 0.000000
-9.655000 0.000000
-9.643200 0.000000
-9.631400 0.000000
-9.619600 0.000000
-9.607900 0.000000
-9.596100 0.000000
-9.584300 0.000000
-9.572500 0.000000
-9.560700 0.000000
-9.548900 0.000000
-9.537100 0.000000
-9.525300 0.000000
-9.513500 0.000000
-9.501700 0.000000
-9.489900 0.000000
-9.478100 0.000000
-9.466300 0.000000
-9.454500 0.000000
-9.442700 0.000000
-9.430900 0.000000
-9.419100 0.000000
-9.407300 0.000000
-9.395500 0.000000
-9.383700 0.000000
-9.371900 0.000000
-9.360100 0.000000
-9.348300 0.000000
-9.336500 0.000000
-9.324700 0.000000
-9.312900 0.000000
-9.301100 0.000000
-9.289300 0.000000
-9.277500 0.000000
-9.265700 0.000000
-9.253900 0.000000
-9.242100 0.000000
-9.230300 0.000000
-9.218500 0.000000
-9.206700 0.000000
-9.194900 0.000000
-9.183100 0.000000
-9.171300 0.000000
-9.159500 0.000000
-9.147700 0.000000
-9.135900 0.000000
-9.124100 0.000000
-9.112300 0.000000
-9.100500 0.000000
-9.088700 0.000000
-9.076900 0.000000
-9.065100 0.000000
-9.053300 0.000000
-9.041500 0.000000
-9.029700 0.000000
-9.017900 0.000000
-9.006100 0.000000
-8.994300 0.000000
-8.982500 0.000000
-8.970700 0.000000
-8.958900 0.000000
-8.947100 0.000000
-8.935300 0.000000
-8.923500 0.000000
-8.911700 0.000000
-8.899900 0.000000
-8.888100 0.000000
-8.876300 0.000000
-8.864500 0.000000
-8.852700 0.000000
-8.840900 0.000000
-8.829100 0.000000
-8.817300 0.000000
-8.805500 0.000000
-8.793700 0.000000
-8.781900 0.000000
-8.770100 0.000000
-8.758300 0.000000
-8.746500 0.000000
-8.734800 0.000000
-8.723000 0.000000
-8.711200 0.000000
-8.699400 0.000000
-8.687600 0.000000
-8.675800 0.000000
-8.664000 0.000000
-8.652200 0.000000
-8.640400 0.000000
-8.628600 0.002900
-8.616800 0.413600
-8.605000 1.519300
-8.593200 3.280300
-8.581400 5.695100
-8.569600 8.046600
-8.557800 9.450400
-8.546000 8.911000
-8.534200 8.557600
-8.522400 8.829800
-8.510600 9.492600
-8.498800 12.461700
-8.487000 14.622700
-8.475200 18.519100
-8.463400 16.487100
-8.451600 15.842100
-8.439800 13.544400
-8.428000 13.580000
-8.416200 14.799500
-8.404400 18.057400
-8.392600 21.944600
-8.380800 33.352600
-8.369000 33.955800
-8.357200 28.939500
-8.345400 28.124400
-8.333600 26.806600
-8.321800 29.479800
-8.310000 23.757800
-8.298200 45.115500
-8.286400 67.045200
-8.274600 69.882800
-8.262800 50.529600
-8.251000 23.818900
-8.239200 11.961000
-8.227400 28.394900
-8.215600 67.764400
-8.203800 67.744600
-8.192000 60.302800
-8.180200 71.541500
-8.168400 95.214900
-8.156600 104.595400
-8.144800 106.793900
-8.133000 221.638500
-8.121200 101.333800
-8.109400 140.288000
-8.097600 116.865300
-8.085800 297.889700
-8.074000 197.476500
-8.062200 123.279600
-8.050400 81.898600
-8.038600 24.637900
-8.026800 0.000000
-8.015000 0.000000
-8.003200 0.000000
-7.991400 0.000000
-7.979600 0.000000
-7.967800 0.000000
-7.956000 0.000000
-7.944200 0.000000
-7.932400 0.000000
-7.920600 0.000000
-7.908800 0.000000
-7.897000 0.000000
-7.885200 0.000000
-7.873400 0.000000
-7.861700 0.000000
-7.849900 0.000000
-7.838100 0.000000
-7.826300 0.000000
-7.814500 0.000000
-7.802700 0.000000
-7.790900 0.000000
-7.779100 0.000000
-7.767300 0.000000
-7.755500 0.000000
-7.743700 0.000000
-7.731900 0.000000
-7.720100 0.000000
-7.708300 0.000000
-7.696500 0.000000
-7.684700 0.000000
-7.672900 0.000000
-7.661100 0.000000
-7.649300 0.000000
-7.637500 0.000000
-7.625700 0.000000
-7.613900 0.000000
-7.602100 0.000000
-7.590300 0.000000
-7.578500 0.000000
-7.566700 0.000000
-7.554900 0.000000
-7.543100 0.000000
-7.531300 0.000000
-7.519500 0.000000
-7.507700 0.000000
-7.495900 0.000000
-7.484100 0.000000
-7.472300 0.000000
-7.460500 0.000000
-7.448700 0.000000
-7.436900 0.000000
-7.425100 0.000000
-7.413300 0.000000
-7.401500 0.000000
-7.389700 0.000000
-7.377900 0.000000
-7.366100 0.000000
-7.354300 0.000000
-7.342500 0.000000
-7.330700 0.000000
-7.318900 0.000000
-7.307100 0.000000
-7.295300 0.000000
-7.283500 0.000000
-7.271700 0.000000
-7.259900 0.000000
-7.248100 0.000000
-7.236300 0.000000
-7.224500 0.000000
-7.212700 0.000000
-7.200900 0.000000
-7.189100 0.000000
-7.177300 0.000000
-7.165500 0.000000
-7.153700 0.000000
-7.141900 0.000000
-7.130100 0.000000
-7.118300 0.000000
-7.106500 0.000000
-7.094700 0.000000
-7.082900 0.000000
-7.071100 0.000000
-7.059300 0.000000
-7.047500 0.000000
-7.035700 0.000000
-7.023900 0.000000
-7.012100 0.000000
-7.000300 0.000000
-6.988500 0.000000
-6.976800 0.000000
-6.965000 0.000000
-6.953200 0.000000
-6.941400 0.000000
-6.929600 0.000000
-6.917800 0.000000
-6.906000 0.000000
-6.894200 0.000000
-6.882400 0.000000
-6.870600 0.000000
-6.858800 0.000000
-6.847000 0.000000
-6.835200 0.000000
-6.823400 0.000000
-6.811600 0.000000
-6.799800 0.000000
-6.788000 0.000000
-6.776200 0.000000
-6.764400 0.000000
-6.752600 0.000000
-6.740800 0.000000
-6.729000 0.000000
-6.717200 0.000000
-6.705400 0.000000
-6.693600 0.000000
-6.681800 0.000000
-6.670000 0.000000
-6.658200 0.000000
-6.646400 0.000000
-6.634600 0.000000
-6.622800 0.000000
-6.611000 0.000000
-6.599200 0.000000
-6.587400 0.000000
-6.575600 0.000000
-6.563800 0.000000
-6.552000 0.000000
-6.540200 0.000000
-6.528400 0.000000
-6.516600 0.000000
-6.504800 0.000000
-6.493000 0.000000
-6.481200 0.000000
-6.469400 0.000000
-6.457600 0.000000
-6.445800 0.000000
-6.434000 0.000000
-6.422200 0.000000
-6.410400 0.000000
-6.398600 0.000000
-6.386800 83.009700
-6.375000 101.179800
-6.363200 149.843600
-6.351400 376.630100
-6.339600 192.555500
-6.327800 264.075700
-6.316000 343.224800
-6.304200 312.069900
-6.292400 347.622400
-6.280600 262.742100
-6.268800 438.508100
-6.257000 281.254000
-6.245200 361.990200
-6.233400 835.013100
-6.221600 324.425500
-6.209800 579.059200
-6.198000 395.318300
-6.186200 309.181700
-6.174400 511.433700
-6.162600 345.427600
-6.150800 404.652700
-6.139000 336.321900
-6.127200 403.311800
-6.115400 326.860500
-6.103700 559.704700
-6.091900 376.934000
-6.080100 552.412000
-6.068300 286.719400
-6.056500 295.783200
-6.044700 434.633500
-6.032900 391.053900
-6.021100 458.266500
-6.009300 326.808400
-5.997500 492.642900
-5.985700 371.205600
-5.973900 451.088000
-5.962100 526.361100
-5.950300 381.025900
-5.938500 523.424600
-5.926700 337.361300
-5.914900 453.873600
-5.903100 223.393300
-5.891300 202.552900
-5.879500 272.072400
-5.867700 338.737400
-5.855900 102.181000
-5.844100 52.085100
-5.832300 71.935900
-5.820500 250.894500
-5.808700 207.251400
-5.796900 212.200200
-5.785100 119.332600
-5.773300 159.460700
-5.761500 130.843500
-5.749700 203.225800
-5.737900 168.260000
-5.726100 194.996400
-5.714300 49.095500
-5.702500 24.818400
-5.690700 29.350200
-5.678900 30.894700
-5.667100 32.847800
-5.655300 30.055400
-5.643500 25.618900
-5.631700 20.844600
-5.619900 19.888800
-5.608100 20.493300
-5.596300 17.672000
-5.584500 14.654700
-5.572700 15.247400
-5.560900 16.695400
-5.549100 21.512300
-5.537300 20.868700
-5.525500 19.582600
-5.513700 20.119800
-5.501900 19.439500
-5.490100 19.922200
-5.478300 20.786100
-5.466500 22.673600
-5.454700 24.952400
-5.442900 24.966800
-5.431100 28.496100
-5.419300 28.815800
-5.407500 31.138600
-5.395700 31.542100
-5.383900 33.280800
-5.372100 46.085600
-5.360300 39.593400
-5.348500 29.156500
-5.336700 21.035500
-5.324900 20.169100
-5.313100 18.870300
-5.301300 17.691200
-5.289500 18.667300
-5.277700 20.665500
-5.265900 29.162700
-5.254100 46.850500
-5.242300 48.214000
-5.230600 58.859300
-5.218800 22.958500
-5.207000 21.315700
-5.195200 25.485900
-5.183400 32.125200
-5.171600 45.375100
-5.159800 28.005600
-5.148000 19.461000
-5.136200 16.955400
-5.124400 19.461600
-5.112600 73.001900
-5.100800 64.596700
-5.089000 51.910900
-5.077200 36.247700
-5.065400 44.944500
-5.053600 56.698600
-5.041800 55.143200
-5.030000 52.819200
-5.018200 49.844600
-5.006400 40.333600
-4.994600 41.336900
-4.982800 62.505300
-4.971000 64.328900
-4.959200 72.863000
-4.947400 76.896800
-4.935600 48.312700
-4.923800 28.408900
-4.912000 17.955600
-4.900200 11.210000
-4.888400 4.571000
-4.876600 1.460300
-4.864800 0.000000
-4.853000 0.000000
-4.841200 0.000000
-4.829400 0.000000
-4.817600 0.000000
-4.805800 0.000000
-4.794000 0.000000
-4.782200 0.000000
-4.770400 0.000000
-4.758600 0.000000
-4.746800 0.000000
-4.735000 0.000000
-4.723200 0.000000
-4.711400 0.000000
-4.699600 0.000000
-4.687800 0.000000
-4.676000 0.000000
-4.664200 0.000000
-4.652400 0.000000
-4.640600 0.000000
-4.628800 0.000000
-4.617000 0.000000
-4.605200 0.000000
-4.593400 0.000000
-4.581600 0.000000
-4.569800 0.000000
-4.558000 0.000000
-4.546200 0.000000
-4.534400 0.000000
-4.522600 0.000000
-4.510800 0.000000
-4.499000 0.000000
-4.487200 0.000000
-4.475400 0.000000
-4.463600 0.000000
-4.451800 0.000000
-4.440000 0.000000
-4.428200 0.000000
-4.416400 0.000000
-4.404600 0.000000
-4.392800 0.000000
-4.381000 0.000000
-4.369200 0.000000
-4.357500 0.000000
-4.345700 0.000000
-4.333900 0.000000
-4.322100 0.000000
-4.310300 0.000000
-4.298500 0.000000
-4.286700 0.000000
-4.274900 0.000000
-4.263100 0.000000
-4.251300 0.000000
-4.239500 0.000000
-4.227700 0.000000
-4.215900 0.000000
-4.204100 0.000000
-4.192300 0.000000
-4.180500 0.000000
-4.168700 0.000000
-4.156900 0.000000
-4.145100 0.000000
-4.133300 0.000000
-4.121500 0.000000
-4.109700 0.000000
-4.097900 0.000000
-4.086100 0.000000
-4.074300 0.000000
-4.062500 0.000000
-4.050700 0.000000
-4.038900 0.000000
-4.027100 0.000000
-4.015300 0.000000
-4.003500 0.000000
-3.991700 0.000000
-3.979900 0.000000
-3.968100 0.000000
-3.956300 0.000000
-3.944500 0.000000
-3.932700 0.000000
-3.920900 0.000000
-3.909100 0.000000
-3.897300 0.000000
-3.885500 0.000000
-3.873700 0.000000
-3.861900 0.000000
-3.850100 0.000000
-3.838300 0.000000
-3.826500 0.000000
-3.814700 0.000000
-3.802900 0.000000
-3.791100 0.000000
-3.779300 0.000000
-3.767500 0.000000
-3.755700 0.000000
-3.743900 0.000000
-3.732100 0.000000
-3.720300 0.000000
-3.708500 0.000000
-3.696700 0.000000
-3.684900 0.000000
-3.673100 0.000000
-3.661300 0.000000
-3.649500 0.000000
-3.637700 0.000000
-3.625900 0.000000
-3.614100 0.000000
-3.602300 0.000000
-3.590500 0.000000
-3.578700 0.000000
-3.566900 0.000000
-3.555100 0.000000
-3.543300 0.000000
-3.531500 0.000000
-3.519700 0.000000
-3.507900 0.000000
-3.496100 0.000000
-3.484400 0.000000
-3.472600 0.000000
-3.460800 0.000000
-3.449000 0.000000
-3.437200 0.000000
-3.425400 0.000000
-3.413600 0.000000
-3.401800 0.000000
-3.390000 0.000000
-3.378200 0.000000
-3.366400 0.000000
-3.354600 0.000000
-3.342800 0.000000
-3.331000 0.000000
-3.319200 0.000000
-3.307400 0.000000
-3.295600 0.000000
-3.283800 0.000000
-3.272000 0.000000
-3.260200 0.000000
-3.248400 0.000000
-3.236600 0.000000
-3.224800 0.000000
-3.213000 0.000000
-3.201200 0.000000
-3.189400 0.000000
-3.177600 0.000000
-3.165800 0.000000
-3.154000 0.000000
-3.142200 0.000000
-3.130400 0.000000
-3.118600 0.000000
-3.106800 0.000000
-3.095000 0.000000
-3.083200 0.000000
-3.071400 0.000000
-3.059600 0.000000
-3.047800 0.000000
-3.036000 0.000000
-3.024200 0.000000
-3.012400 0.000000
-3.000600 0.000000
-2.988800 0.000000
-2.977000 0.000000
-2.965200 0.000000
-2.953400 0.000000
-2.941600 0.000000
-2.929800 0.000000
-2.918000 0.000000
-2.906200 0.000000
-2.894400 0.000000
-2.882600 0.000000
-2.870800 0.000000
-2.859000 0.000000
-2.847200 0.000000
-2.835400 0.000000
-2.823600 0.000000
-2.811800 0.002300
-2.800000 0.021500
-2.788200 0.060200
-2.776400 0.118500
-2.764600 0.196200
-2.752800 0.293500
-2.741000 0.411000
-2.729200 0.556500
-2.717400 0.707600
-2.705600 0.858100
-2.693800 1.035500
-2.682000 1.239900
-2.670200 1.471300
-2.658400 1.729700
-2.646600 2.021500
-2.634800 2.363100
-2.623000 2.755500
-2.611300 4.334700
-2.599500 6.000300
-2.587700 5.786800
-2.575900 5.811100
-2.564100 6.108600
-2.552300 7.139500
-2.540500 8.313000
-2.528700 9.614800
-2.516900 10.360300
-2.505100 9.598700
-2.493300 8.876800
-2.481500 8.802300
-2.469700 9.267500
-2.457900 9.757700
-2.446100 10.245200
-2.434300 10.684600
-2.422500 10.655200
-2.410700 10.959800
-2.398900 11.247500
-2.387100 11.518300
-2.375300 14.109200
-2.363500 14.269100
-2.351700 14.536700
-2.339900 14.834000
-2.328100 10.882400
-2.316300 11.237300
-2.304500 11.577900
-2.292700 11.904500
-2.280900 12.216800
-2.269100 14.555600
-2.257300 15.284400
-2.245500 16.027000
-2.233700 16.783400
-2.221900 20.460600
-2.210100 20.404300
-2.198300 18.951000
-2.186500 20.869400
-2.174700 23.681300
-2.162900 22.160400
-2.151100 21.858800
-2.139300 21.651500
-2.127500 21.790000
-2.115700 22.529400
-2.103900 23.917600
-2.092100 42.468000
-2.080300 25.384700
-2.068500 25.913900
-2.056700 28.326400
-2.044900 28.760200
-2.033100 29.399800
-2.021300 29.297900
-2.009500 29.848400
-1.997700 32.484000
-1.985900 27.279100
-1.974100 25.031700
-1.962300 24.307700
-1.950500 23.325100
-1.938700 22.503300
-1.926900 21.842500
-1.915100 21.346600
-1.903300 20.177900
-1.891500 19.743600
-1.879700 19.003100
-1.867900 19.399100
-1.856100 20.611300
-1.844300 19.979800
-1.832500 19.616200
-1.820700 22.340900
-1.808900 27.009400
-1.797100 26.285200
-1.785300 25.159300
-1.773500 22.605100
-1.761700 19.283600
-1.749900 20.129000
-1.738100 21.389000
-1.726400 24.832700
-1.714600 25.422400
-1.702800 25.560300
-1.691000 23.496500
-1.679200 23.846700
-1.667400 22.883700
-1.655600 22.393000
-1.643800 22.565400
-1.632000 23.103500
-1.620200 23.878100
-1.608400 24.273900
-1.596600 26.132600
-1.584800 24.193700
-1.573000 20.442900
-1.561200 19.724700
-1.549400 19.975700
-1.537600 22.736200
-1.525800 23.982900
-1.514000 23.078000
-1.502200 21.209500
-1.490400 20.897500
-1.478600 20.368500
-1.466800 19.985000
-1.455000 19.926800
-1.443200 21.478300
-1.431400 22.407200
-1.419600 25.712100
-1.407800 20.516900
-1.396000 18.844600
-1.384200 19.108700
-1.372400 19.419900
-1.360600 22.937800
-1.348800 20.837200
-1.337000 17.972900
-1.325200 16.763500
-1.313400 13.832800
-1.301600 13.578000
-1.289800 12.306100
-1.278000 12.125500
-1.266200 11.636300
-1.254400 9.377400
-1.242600 7.431900
-1.230800 5.866200
-1.219000 8.325300
-1.207200 13.280700
-1.195400 13.570600
-1.183600 13.678200
-1.171800 18.289700
-1.160000 18.567800
-1.148200 12.993400
-1.136400 13.026200
-1.124600 12.948900
-1.112800 12.761400
-1.101000 12.457700
-1.089200 12.732000
-1.077400 12.184800
-1.065600 11.670900
-1.053800 12.209000
-1.042000 12.611000
-1.030200 13.186600
-1.018400 13.935900
-1.006600 12.552300
-0.994800 12.502400
-0.983000 13.637200
-0.971200 15.450500
-0.959400 18.690900
-0.947600 22.914800
-0.935800 25.980600
-0.924000 22.678800
-0.912200 20.724600
-0.900400 18.742500
-0.888600 16.827700
-0.876800 15.043300
-0.865000 12.576700
-0.853300 11.097400
-0.841500 12.394300
-0.829700 13.883300
-0.817900 14.305700
-0.806100 14.931700
-0.794300 14.496400
-0.782500 13.174900
-0.770700 15.492000
-0.758900 16.251500
-0.747100 18.476100
-0.735300 17.698500
-0.723500 14.193800
-0.711700 13.222500
-0.699900 12.429400
-0.688100 12.546200
-0.676300 12.672100
-0.664500 14.404200
-0.652700 15.440500
-0.640900 15.961200
-0.629100 15.915100
-0.617300 15.710900
-0.605500 16.800900
-0.593700 16.331400
-0.581900 15.568100
-0.570100 14.978400
-0.558300 14.462700
-0.546500 14.032700
-0.534700 13.165500
-0.522900 13.150000
-0.511100 13.158600
-0.499300 12.665600
-0.487500 13.866500
-0.475700 14.279900
-0.463900 14.740700
-0.452100 15.248700
-0.440300 13.052300
-0.428500 12.032600
-0.416700 11.765100
-0.404900 11.467900
-0.393100 11.140800
-0.381300 13.264000
-0.369500 13.363100
-0.357700 15.156900
-0.345900 13.993200
-0.334100 15.183200
-0.322300 15.538600
-0.310500 16.058100
-0.298700 14.489800
-0.286900 15.014000
-0.275100 15.507500
-0.263300 15.909900
-0.251500 15.464900
-0.239700 15.437600
-0.227900 16.615400
-0.216100 16.944000
-0.204300 17.041100
-0.192500 17.210300
-0.180700 16.933700
-0.168900 16.435300
-0.157100 16.326300
-0.145300 17.050400
-0.133500 16.647200
-0.121700 18.107900
-0.109900 20.052100
-0.098100 21.813600
-0.086300 21.949100
-0.074500 24.543600
-0.062700 21.093200
-0.050900 20.139400
-0.039100 19.879100
-0.027300 20.076700
-0.015500 22.152700
-0.003700 20.990200
0.008100 21.586200
0.019800 22.094200
0.031600 21.711200
0.043400 21.393300
0.055200 21.192500
0.067000 21.477000
0.078800 20.206100
0.090600 21.219600
0.102400 20.739500
0.114200 18.263300
0.126000 12.476000
0.137800 38.008800
0.149600 22.419500
0.161400 24.606200
0.173200 24.729400
0.185000 27.263100
0.196800 29.647500
0.208600 26.942400
0.220400 27.895000
0.232200 31.844400
0.244000 37.251800
0.255800 38.461400
0.267600 34.957000
0.279400 24.874800
0.291200 22.847500
0.303000 24.493400
0.314800 23.531200
0.326600 25.175500
0.338400 25.850500
0.350200 27.097900
0.362000 28.477000
0.373800 27.866400
0.385600 26.429500
0.397400 23.766400
0.409200 28.497300
0.421000 28.618400
0.432800 27.125400
0.444600 27.675500
0.456400 25.689900
0.468200 28.448600
0.480000 33.437800
0.491800 28.292100
0.503600 28.080000
0.515400 28.113000
0.527200 27.558300
0.539000 27.674600
0.550800 22.581800
0.562600 24.039900
0.574400 20.166500
0.586200 20.415700
0.598000 23.105300
0.609800 30.325300
0.621600 31.515300
0.633400 23.047000
0.645200 23.925600
0.657000 17.420600
0.668800 37.456600
0.680600 23.980200
0.692400 17.891800
0.704200 27.428700
0.716000 26.241600
0.727800 24.906200
0.739600 22.818500
0.751400 21.917000
0.763200 21.295200
0.775000 18.133200
0.786800 14.786600
0.798600 25.893600
0.810400 25.970000
0.822200 24.469700
0.834000 28.056900
0.845800 31.444500
0.857600 33.963000
0.869400 31.158600
0.881200 29.081200
0.892900 24.026100
0.904700 21.121100
0.916500 19.909500
0.928300 22.714600
0.940100 23.028700
0.951900 24.563000
0.963700 26.931000
0.975500 32.000500
0.987300 32.441100
0.999100 25.349000
1.010900 29.229800
1.022700 28.324300
1.034500 28.679000
1.046300 24.466400
1.058100 24.575300
1.069900 42.987400
1.081700 26.567600
1.093500 26.416000
1.105300 26.373800
1.117100 25.651200
1.128900 28.687700
1.140700 28.673000
1.152500 33.003500
1.164300 31.062900
1.176100 29.214600
1.187900 29.287300
1.199700 28.596600
1.211500 31.711000
1.223300 37.779400
1.235100 24.153000
1.246900 22.766700
1.258700 22.389100
1.270500 22.167100
1.282300 22.885700
1.294100 22.624100
1.305900 22.606800
1.317700 22.716800
1.329500 22.956300
1.341300 22.359500
1.353100 22.290400
1.364900 23.161000
1.376700 24.023000
1.388500 23.453500
1.400300 23.107600
1.412100 22.569000
1.423900 22.219600
1.435700 22.149100
1.447500 31.478000
1.459300 25.088800
1.471100 25.055300
1.482900 25.892200
1.494700 29.020200
1.506500 31.014300
1.518300 33.220900
1.530100 35.642000
1.541900 32.358600
1.553700 29.885700
1.565500 28.655800
1.577300 26.453300
1.589100 26.356300
1.600900 27.164500
1.612700 25.141500
1.624500 23.382300
1.636300 20.887700
1.648100 19.281500
1.659900 17.602400
1.671700 16.902700
1.683500 15.946800
1.695300 15.731600
1.707100 13.637500
1.718900 13.513100
1.730700 13.869900
1.742500 13.496200
1.754300 13.612200
1.766000 13.649700
1.777800 14.604800
1.789600 16.873300
1.801400 15.280200
1.813200 9.928100
1.825000 8.629000
1.836800 8.369400
1.848600 8.133200
1.860400 7.920500
1.872200 7.731300
1.884000 8.306100
1.895800 8.360600
1.907600 8.460300
1.919400 8.465800
1.931200 8.462900
1.943000 8.468400
1.954800 8.482200
1.966600 8.504200
1.978400 13.394700
1.990200 11.918600
2.002000 12.359500
2.013800 12.945300
2.025600 13.216100
2.037400 11.050100
2.049200 10.485800
2.061000 9.970900
2.072800 9.910300
2.084600 9.829400
2.096400 8.536900
2.108200 8.330900
2.120000 8.122100
2.131800 7.910400
2.143600 7.696000
2.155400 7.351700
2.167200 6.790500
2.179000 6.618100
2.190800 6.789100
2.202600 7.003300
2.214400 7.143700
2.226200 5.911000
2.238000 4.596900
2.249800 3.218300
2.261600 2.460400
2.273400 2.017900
2.285200 1.626800
2.297000 1.286900
2.308800 0.998100
2.320600 0.760500
2.332400 0.550400
2.344200 0.141100
2.356000 0.000100
2.367800 0.000100
2.379600 0.000300
2.391400 0.000700
2.403200 0.001200
2.415000 0.001900
2.426800 0.002800
2.438600 0.003800
2.450400 0.004900
2.462200 0.006200
2.474000 0.007700
2.485800 0.009300
2.497600 0.011100
2.509400 0.013000
2.521200 0.015100
2.533000 0.017300
2.544800 0.019700
2.556600 0.022300
2.568400 0.025000
2.580200 0.027800
2.592000 0.030900
2.603800 0.034000
2.615600 0.037300
2.627400 0.040800
2.639100 0.044500
2.650900 0.048200
2.662700 0.052200
2.674500 0.056300
2.686300 0.060500
2.698100 0.064900
2.709900 0.069500
2.721700 0.074400
2.733500 0.079900
2.745300 0.086200
2.757100 0.093100
2.768900 0.100700
2.780700 0.109000
2.792500 0.118000
2.804300 0.127700
2.816100 0.138100
2.827900 0.149200
2.839700 0.160900
2.851500 0.173300
2.863300 0.186500
2.875100 0.200300
2.886900 0.214800
2.898700 0.230000
2.910500 0.245900
2.922300 0.262400
2.934100 0.279700
2.945900 0.297600
2.957700 0.316300
2.969500 0.335600
2.981300 0.355600
2.993100 0.376300
3.004900 0.397700
3.016700 0.420000
3.028500 0.443900
3.040300 0.469500
3.052100 0.496800
3.063900 0.525600
3.075700 0.585100
3.087500 0.697800
3.099300 0.861600
3.111100 1.078200
3.122900 1.347500
3.134700 1.669700
3.146500 1.764900
3.158300 2.050500
3.170100 2.324800
3.181900 2.653500
3.193700 2.733300
3.205500 2.818600
3.217300 2.909700
3.229100 3.006500
3.240900 3.109200
3.252700 3.217600
3.264500 3.331800
3.276300 3.451900
3.288100 3.577700
3.299900 3.709300
3.311700 4.196400
3.323500 4.783200
3.335300 5.331300
3.347100 5.475500
3.358900 5.614100
3.370700 5.778300
3.382500 5.954500
3.394300 6.146600
3.406100 6.355200
3.417900 6.575900
3.429700 6.816000
3.441500 7.076900
3.453300 7.358700
3.465100 7.661300
3.476900 7.988100
3.488700 8.343400
3.500500 13.746500
3.512200 10.999300
3.524000 11.110600
3.535800 11.270500
3.547600 11.464300
3.559400 12.024500
3.571200 12.626000
3.583000 13.206700
3.594800 13.772300
3.606600 13.794200
3.618400 14.387700
3.630200 15.272400
3.642000 15.869400
3.653800 16.647700
3.665600 16.964100
3.677400 17.290000
3.689200 17.563000
3.701000 17.783300
3.712800 17.974100
3.724600 18.250100
3.736400 18.694500
3.748200 25.729400
3.760000 19.323400
3.771800 19.297800
3.783600 18.849200
3.795400 18.427000
3.807200 18.401000
3.819000 18.377300
3.830800 18.356000
3.842600 18.334800
3.854400 18.314900
3.866200 18.454300
3.878000 18.549600
3.889800 18.663200
3.901600 18.795100
3.913400 18.903000
3.925200 19.003300
3.937000 19.546700
3.948800 19.831000
3.960600 19.503300
3.972400 19.120600
3.984200 18.840300
3.996000 18.626700
4.007800 18.515300
4.019600 17.932100
4.031400 17.843300
4.043200 17.922300
4.055000 17.721300
4.066800 17.538000
4.078600 17.372300
4.090400 16.484200
4.102200 16.352100
4.114000 16.953700
4.125800 18.815400
4.137600 19.417500
4.149400 20.425800
4.161200 21.516200
4.173000 20.159000
4.184800 20.597500
4.196600 21.019200
4.208400 20.933900
4.220200 20.849400
4.232000 20.105400
4.243800 20.095200
4.255600 20.073800
4.267400 20.057000
4.279200 20.118800
4.291000 20.228300
4.302800 19.577300
4.314600 19.335400
4.326400 19.151800
4.338200 20.293700
4.350000 19.368600
4.361800 18.852200
4.373600 19.401100
4.385400 19.154900
4.397100 19.495600
4.408900 20.545200
4.420700 20.556600
4.432500 20.683800
4.444300 19.949000
4.456100 20.954900
4.467900 22.657800
4.479700 22.344900
4.491500 21.528500
4.503300 19.503400
4.515100 19.230400
4.526900 17.942200
4.538700 17.927200
4.550500 17.909100
4.562300 17.908300
4.574100 17.924800
4.585900 17.958700
4.597700 17.295100
4.609500 18.280100
4.621300 18.017800
4.633100 17.943900
4.644900 17.882600
4.656700 17.950200
4.668500 18.308900
4.680300 18.898000
4.692100 18.859100
4.703900 18.006700
4.715700 18.132500
4.727500 18.286300
4.739300 18.468000
4.751100 19.414900
4.762900 20.409500
4.774700 20.801800
4.786500 20.160100
4.798300 20.901400
4.810100 21.663200
4.821900 22.765000
4.833700 22.315100
4.845500 21.825700
4.857300 21.071000
4.869100 21.498300
4.880900 21.821500
4.892700 22.835100
4.904500 22.489500
4.916300 23.920000
4.928100 23.337900
4.939900 22.923300
4.951700 22.669600
4.963500 21.724100
4.975300 21.502400
4.987100 21.423800
4.998900 20.937500
5.010700 23.180000
5.022500 20.244300
5.034300 21.057800
5.046100 21.031900
5.057900 21.597900
5.069700 20.342400
5.081500 19.141100
5.093300 19.118700
5.105100 16.758900
5.116900 17.398900
5.128700 17.347100
5.140500 17.214900
5.152300 18.023900
5.164100 16.984900
5.175900 14.983500
5.187700 14.864100
5.199500 14.799000
5.211300 14.483100
5.223100 14.215600
5.234900 14.076100
5.246700 13.959500
5.258500 13.840500
5.270200 13.725900
5.282000 18.633600
5.293800 12.213400
5.305600 11.644500
5.317400 10.118100
5.329200 10.642600
5.341000 11.057700
5.352800 11.368800
5.364600 12.421200
5.376400 13.404100
5.388200 14.308700
5.400000 15.231300
5.411800 16.160700
5.423600 17.097600
5.435400 27.759700
5.447200 27.888600
5.459000 27.221800
5.470800 27.001700
5.482600 26.967400
5.494400 14.825200
5.506200 17.258700
5.518000 17.360000
5.529800 17.388700
5.541600 17.361900
5.553400 17.315600
5.565200 16.232700
5.577000 15.577100
5.588800 17.641800
5.600600 14.503500
5.612400 15.253400
5.624200 16.410300
5.636000 15.654800
5.647800 16.070300
5.659600 16.355800
5.671400 17.786700
5.683200 20.342000
5.695000 20.867900
5.706800 21.658200
5.718600 22.051800
5.730400 22.605300
5.742200 24.479200
5.754000 23.304900
5.765800 23.344300
5.777600 23.415800
5.789400 23.456500
5.801200 22.053800
5.813000 21.954100
5.824800 22.032000
5.836600 21.812100
5.848400 22.159600
5.860200 22.009400
5.872000 22.480800
5.883800 22.973400
5.895600 21.841800
5.907400 21.495900
5.919200 23.996200
5.931000 34.613500
5.942800 37.380700
5.954600 23.930900
5.966400 19.392300
5.978200 19.274100
5.990000 18.795700
6.001800 18.997400
6.013600 19.273500
6.025400 21.947600
6.037200 24.618500
6.049000 28.135900
6.060800 24.446300
6.072600 16.319700
6.084400 14.954200
6.096200 14.471800
6.108000 13.067900
6.119800 23.266600
6.131600 29.794300
6.143300 46.798300
6.155100 27.724700
6.166900 22.611200
6.178700 14.251800
6.190500 14.220400
6.202300 17.803000
6.214100 22.784600
6.225900 21.707300
6.237700 18.890400
6.249500 17.348100
6.261300 15.954200
6.273100 14.711200
6.284900 38.065500
6.296700 25.847300
6.308500 20.764000
6.320300 22.176800
6.332100 24.602300
6.343900 29.948800
6.355700 57.343300
6.367500 33.127900
6.379300 24.098600
6.391100 17.853100
6.402900 13.613500
6.414700 10.725700
6.426500 10.589300
6.438300 10.436600
6.450100 10.317800
6.461900 10.233000
6.473700 16.515300
6.485500 22.699800
6.497300 18.809700
6.509100 16.350800
6.520900 14.367100
6.532700 15.997100
6.544500 16.774300
6.556300 14.779600
6.568100 14.374400
6.579900 28.156800
6.591700 34.020900
6.603500 32.104200
6.615300 24.555600
6.627100 24.512900
6.638900 24.536100
6.650700 32.003400
6.662500 32.627500
6.674300 35.119700
6.686100 29.862200
6.697900 26.293300
6.709700 24.975100
6.721500 24.082500
6.733300 23.667200
6.745100 25.428400
6.756900 30.325100
6.768700 33.330800
6.780500 29.818000
6.792300 26.030500
6.804100 24.839200
6.815900 25.630800
6.827700 25.095100
6.839500 24.912700
6.851300 26.371800
6.863100 26.977700
6.874900 28.733100
6.886700 38.062800
6.898500 46.029800
6.910300 42.910400
6.922100 39.903100
6.933900 66.989600
6.945700 44.753100
6.957500 35.921000
6.969300 27.514000
6.981100 28.981000
6.992900 34.392000
7.004700 37.739200
7.016400 30.717700
7.028200 42.194500
7.040000 35.879300
7.051800 33.814600
7.063600 37.521400
7.075400 40.951600
7.087200 43.881400
7.099000 32.559300
7.110800 26.997400
7.122600 18.296100
7.134400 13.578100
7.146200 20.470900
7.158000 39.342300
7.169800 57.619800
7.181600 39.893500
7.193400 33.478400
7.205200 23.880200
7.217000 18.069100
7.228800 17.671000
7.240600 21.406700
7.252400 22.977300
7.264200 26.434600
7.276000 31.302400
7.287800 35.731800
7.299600 35.294200
7.311400 33.139800
7.323200 28.647300
7.335000 19.571000
7.346800 22.859600
7.358600 28.980600
7.370400 23.346500
7.382200 20.127700
7.394000 16.936600
7.405800 23.577600
7.417600 29.401900
7.429400 29.589900
7.441200 33.330000
7.453000 29.439700
7.464800 27.953400
7.476600 24.883300
7.488400 23.817100
7.500200 24.147700
7.512000 20.607900
7.523800 18.025700
7.535600 15.857600
7.547400 16.522500
7.559200 16.309900
7.571000 16.382900
7.582800 16.843700
7.594600 17.404600
7.606400 18.572700
7.618200 28.794300
7.630000 30.449500
7.641800 30.431400
7.653600 20.803700
7.665400 17.421400
7.677200 18.797400
7.689000 21.262100
7.700800 19.170200
7.712600 32.545000
7.724400 26.293900
7.736200 27.753900
7.748000 27.889000
7.759800 27.125300
7.771600 24.370000
7.783400 23.731700
7.795200 27.212000
7.807000 33.954500
7.818800 36.440200
7.830600 21.986100
7.842400 21.071100
7.854200 23.818000
7.866000 24.792500
7.877800 25.963000
7.889500 25.482500
7.901300 21.395300
7.913100 20.561600
7.924900 24.556900
7.936700 25.881500
7.948500 24.583000
7.960300 26.255500
7.972100 31.115600
7.983900 30.821300
7.995700 28.805500
8.007500 28.774800
8.019300 25.986200
8.031100 25.342800
8.042900 24.362400
8.054700 25.554100
8.066500 26.238400
8.078300 26.394600
8.090100 45.601000
8.101900 24.607900
8.113700 24.522400
8.125500 23.025500
8.137300 22.545700
8.149100 22.252900
8.160900 61.772800
8.172700 23.468700
8.184500 23.126000
8.196300 22.060800
8.208100 20.981000
8.219900 19.997900
8.231700 19.346200
8.243500 18.669200
8.255300 17.923600
8.267100 20.685400
8.278900 22.401000
8.290700 24.044600
8.302500 26.197900
8.314300 27.738100
8.326100 28.736300
8.337900 24.854500
8.349700 21.532300
8.361500 18.887400
8.373300 18.028400
8.385100 18.676500
8.396900 19.420300
8.408700 18.630900
8.420500 17.679000
8.432300 18.805600
8.444100 19.370200
8.455900 22.491800
8.467700 23.313800
8.479500 22.867800
8.491300 22.972100
8.503100 17.270000
8.514900 20.291800
8.526700 25.984500
8.538500 31.694600
8.550300 26.337300
8.562100 20.867800
8.573900 19.238400
8.585700 17.633300
8.597500 16.312300
8.609300 18.524700
8.621100 24.097300
8.632900 25.201400
8.644700 26.513500
8.656500 23.623100
8.668300 19.711100
8.680100 19.147500
8.691900 18.976100
8.703700 18.500200
8.715500 17.643100
8.727300 18.310700
8.739100 16.777800
8.750900 16.004900
8.762600 15.797300
8.774400 20.347800
8.786200 20.479400
8.798000 20.944900
8.809800 21.262100
8.821600 21.584800
8.833400 21.698500
8.845200 20.575600
8.857000 21.032000
8.868800 21.746100
8.880600 22.193500
8.892400 22.612100
8.904200 22.996200
8.916000 23.572200
8.927800 24.674100
8.939600 25.061300
8.951400 24.256800
8.963200 24.440700
8.975000 24.726100
8.986800 27.203000
8.998600 28.093500
9.010400 28.268200
9.022200 26.949200
9.034000 26.344100
9.045800 26.027100
9.057600 26.494600
9.069400 27.716500
9.081200 26.548200
9.093000 25.977600
9.104800 25.502400
9.116600 24.843600
9.128400 24.608000
9.140200 24.724900
9.152000 25.465600
9.163800 24.718000
9.175600 24.672600
9.187400 25.098400
9.199200 26.435600
9.211000 25.866100
9.222800 25.150000
9.234600 23.970700
9.246400 23.281000
9.258200 22.536600
9.270000 21.845100
9.281800 21.206400
9.293600 19.592200
9.305400 18.399500
9.317200 21.044200
9.329000 17.078400
9.340800 17.042000
9.352600 17.043300
9.364400 17.165900
9.376200 17.330600
9.388000 17.908300
9.399800 18.187300
9.411600 18.428600
9.423400 18.596200
9.435200 18.685900
9.447000 18.697700
9.458800 18.673000
9.470600 19.575800
9.482400 19.755700
9.494200 20.123900
9.506000 19.858300
9.517800 20.801500
9.529600 21.943800
9.541400 22.355500
9.553200 23.791000
9.565000 24.951900
9.576800 25.435900
9.588600 25.706100
9.600400 26.069100
9.612200 29.669700
9.624000 26.834100
9.635700 22.513000
9.647500 22.972600
9.659300 22.300900
9.671100 30.428800
9.682900 20.706600
9.694700 20.572100
9.706500 22.489400
9.718300 22.719900
9.730100 19.807800
9.741900 21.642000
9.753700 21.896200
9.765500 22.389600
9.777300 23.845300
9.789100 23.518500
9.800900 22.500600
9.812700 22.861900
9.824500 22.535800
9.836300 24.029800
9.848100 27.672700
9.859900 27.387900
9.871700 27.212000
9.883500 25.431200
9.895300 30.420700
9.907100 25.564800
9.918900 24.532600
9.930700 24.928300
9.942500 24.276800
9.954300 23.366300
9.966100 23.809700
9.977900 22.764500
9.989700 23.114600
10.001500 22.699800
10.013300 20.667300
10.025100 21.211700
10.036900 20.656000
10.048700 20.106900
10.060500 19.657800
10.072300 18.148400
10.084100 17.470900
10.095900 16.990400
10.107700 42.610600
10.119500 23.816800
10.131300 20.557000
10.143100 37.985000
10.154900 25.279700
10.166700 25.302400
10.178500 23.803800
10.190300 22.887100
10.202100 21.667200
10.213900 21.273600
10.225700 21.083300
10.237500 21.099300
10.249300 21.153100
10.261100 21.319500
10.272900 21.483600
10.284700 21.763200
10.296500 25.699000
10.308300 25.777000
10.320100 31.635400
10.331900 30.474400
10.343700 30.517400
10.355500 33.366000
10.367300 31.555000
10.379100 31.146300
10.390900 28.928400
10.402700 27.264100
10.414500 26.079100
10.426300 28.689400
10.438100 27.514700
10.449900 28.016600
10.461700 28.476600
10.473500 27.494200
10.485300 27.563900
10.497100 27.419500
10.508900 23.115600
10.520600 22.921600
10.532400 25.314100
10.544200 25.390900
10.556000 25.039700
10.567800 24.548600
10.579600 23.550000
10.591400 22.378000
10.603200 21.525700
10.615000 19.877500
10.626800 19.189600
10.638600 18.457100
10.650400 17.838500
10.662200 17.176100
10.674000 16.350000
10.685800 19.972300
10.697600 21.867900
10.709400 23.793600
10.721200 28.524600
10.733000 36.086200
10.744800 23.254700
10.756600 23.336000
10.768400 23.319700
10.780200 23.636300
10.792000 24.805600
10.803800 28.255700
10.815600 31.259400
10.827400 24.824300
10.839200 24.525300
10.851000 23.697900
10.862800 23.320800
10.874600 22.875800
10.886400 22.345700
10.898200 21.730500
10.910000 21.030300
10.921800 20.253300
10.933600 18.979300
10.945400 18.276300
10.957200 18.046900
10.969000 16.733900
10.980800 15.620000
10.992600 16.640000
11.004400 22.148800
11.016200 23.563900
11.028000 23.625200
11.039800 24.235400
11.051600 22.033800
11.063400 12.965400
11.075200 12.056200
11.087000 10.808400
11.098800 10.165200
11.110600 9.532800
11.122400 8.910800
11.134200 9.423800
11.146000 19.330900
11.157800 21.114800
11.169600 23.310000
11.181400 22.811200
11.193200 20.817500
11.205000 17.201300
11.216800 19.877200
11.228600 26.459300
11.240400 40.238300
11.252200 27.753400
11.264000 17.228000
11.275800 17.364600
11.287600 21.642600
11.299400 22.178100
11.311200 22.712600
11.323000 22.958800
11.334800 22.532300
11.346600 22.044800
11.358400 20.094300
11.370200 26.978600
11.382000 26.900500
11.393700 27.339200
11.405500 27.267500
11.417300 26.573600
11.429100 25.398800
11.440900 23.907600
11.452700 21.950700
11.464500 20.793700
11.476300 19.502800
11.488100 16.644800
11.499900 14.885400
11.511700 14.234000
11.523500 14.870500
11.535300 14.505600
11.547100 15.088800
11.558900 16.600000
11.570700 17.700600
11.582500 19.160800
11.594300 20.833100
11.606100 20.014000
11.617900 21.100000
11.629700 22.294600
11.641500 21.530100
11.653300 22.189400
11.665100 22.767800
11.676900 23.352200
11.688700 24.029000
11.700500 25.355600
11.712300 25.583300
11.724100 27.159600
11.735900 28.914000
11.747700 28.116400
11.759500 25.775900
11.771300 27.437500
11.783100 25.793000
11.794900 23.606800
11.806700 21.911800
11.818500 21.440900
11.830300 20.607800
11.842100 19.340800
11.853900 19.014400
11.865700 18.210700
11.877500 16.938500
11.889300 17.368800
11.901100 20.787700
11.912900 21.012800
11.924700 19.191500
11.936500 18.587700
11.948300 18.056200
11.960100 16.189900
11.971900 15.850600
11.983700 16.318800
11.995500 19.022300
12.007300 18.371400
12.019100 19.008900
12.030900 24.398400
12.042700 27.916400
12.054500 25.693200
12.066300 19.870300
12.078100 22.739800
12.089900 22.969700
12.101700 23.281400
12.113500 23.825100
12.125300 24.334700
12.137100 24.495900
12.148900 22.690900
12.160700 22.364800
12.172500 25.258100
12.184300 24.892400
12.196100 25.932100
12.207900 26.122800
12.219700 31.056000
12.231500 22.018700
12.243300 21.822500
12.255100 21.900500
12.266800 21.616800
12.278600 18.470000
12.290400 18.270800
12.302200 17.626500
12.314000 17.452500
12.325800 17.566700
12.337600 17.640400
12.349400 17.537300
12.361200 17.150300
12.373000 16.972700
12.384800 16.910700
12.396600 18.907700
12.408400 23.037900
12.420200 22.787400
12.432000 27.491900
12.443800 26.852200
12.455600 31.593000
12.467400 25.577200
12.479200 25.110300
12.491000 22.356100
12.502800 21.931500
12.514600 20.059700
12.526400 20.748500
12.538200 19.028100
12.550000 18.275500
12.561800 19.004800
12.573600 18.348300
12.585400 16.354100
12.597200 14.189400
12.609000 10.973300
12.620800 9.328100
12.632600 6.237800
12.644400 5.529200
12.656200 5.632300
12.668000 4.993300
12.679800 4.474800
12.691600 4.072500
12.703400 3.713400
12.715200 3.371800
12.727000 3.047700
12.738800 1.669200
12.750600 1.519500
12.762400 1.350000
12.774200 1.190500
12.786000 1.041000
12.797800 0.901600
12.809600 0.772200
12.821400 0.652900
12.833200 0.000000
12.845000 0.000000
12.856800 0.000000
12.868600 0.000000
12.880400 0.000000
12.892200 0.000000
12.904000 0.000000
12.915800 0.000000
12.927600 0.000000
12.939400 0.000000
12.951200 0.000000
12.963000 0.000000
12.974800 0.000000
12.986600 0.000000
12.998400 0.000000
13.010200 0.000000
13.022000 0.000000
13.033800 0.000000
13.045600 0.000000
13.057400 0.000000
13.069200 0.000000
13.081000 0.000000
13.092800 0.000000
13.104600 0.000000
13.116400 0.000000
13.128200 0.000000
13.139900 0.000000
13.151700 0.000000
13.163500 0.000000
13.175300 0.000000
13.187100 0.000000
13.198900 0.000000
13.210700 0.000000
13.222500 0.000000
13.234300 0.000000
13.246100 0.000000
13.257900 0.000000
13.269700 0.000000
13.281500 0.000000
13.293300 0.000000
13.305100 0.000000
13.316900 0.000000
13.328700 0.000000
13.340500 0.000000
13.352300 0.000000
13.364100 0.000000
13.375900 0.000000
13.387700 0.000000
13.399500 0.000000
13.411300 0.000000
13.423100 0.000000
13.434900 0.000000
13.446700 0.000000
13.458500 0.000000
13.470300 0.000000
13.482100 0.000000
13.493900 0.000000
13.505700 0.000000
13.517500 0.000000
13.529300 0.000000
13.541100 0.000000
13.552900 0.000000
13.564700 0.000000
13.576500 0.000000
13.588300 0.000000
13.600100 0.000000
13.611900 0.000000
13.623700 0.000000
13.635500 0.000000
13.647300 0.000000
13.659100 0.000000
13.670900 0.000000
13.682700 0.000000
13.694500 0.000000
13.706300 0.000000
13.718100 0.000000
13.729900 0.000000
13.741700 0.000000
13.753500 0.000000
13.765300 0.000000
13.777100 0.000000
13.788900 0.000000
13.800700 0.000000
13.812500 0.000000
13.824300 0.000000
13.836100 0.000000
13.847900 0.000000
13.859700 0.000000
13.871500 0.000000
13.883300 0.000000
13.895100 0.000000
e
