set title 'mp-1143 - Density of States'
set xlabel 'Energy (eV)'
set ylabel 'DOS (states/eV)'
set grid
set xrange [-10:10]
set yrange [0:16.199]
set xzeroaxis lt -1
set terminal png size 800,600
set output 'mp-1143_dos_gnuplot.png'
plot '-' using 1:2 with lines title 'DOS'
-16.798400 0.000000
-16.758500 0.000000
-16.718700 0.000000
-16.678800 0.000000
-16.639000 0.000000
-16.599100 0.000000
-16.559300 0.000000
-16.519500 0.000000
-16.479600 0.000000
-16.439800 0.000000
-16.399900 0.000000
-16.360100 0.000000
-16.320200 0.000000
-16.280400 0.000000
-16.240500 0.000000
-16.200700 0.000000
-16.160800 0.000000
-16.121000 0.000000
-16.081100 0.000000
-16.041300 0.000000
-16.001500 0.000000
-15.961600 0.000000
-15.921800 0.000000
-15.881900 0.000000
-15.842100 0.000000
-15.802200 0.000000
-15.762400 0.000000
-15.722500 0.000000
-15.682700 0.000000
-15.642800 0.000000
-15.603000 0.000000
-15.563100 0.000000
-15.523300 0.000000
-15.483500 0.000000
-15.443600 0.000000
-15.403800 0.000000
-15.363900 0.000000
-15.324100 0.000000
-15.284200 0.000000
-15.244400 0.000000
-15.204500 0.000000
-15.164700 0.000000
-15.124800 0.000000
-15.085000 0.000000
-15.045100 0.000000
-15.005300 0.000000
-14.965500 0.000000
-14.925600 0.000000
-14.885800 0.000000
-14.845900 0.000000
-14.806100 0.000000
-14.766200 0.000000
-14.726400 0.000000
-14.686500 0.000000
-14.646700 0.000000
-14.606800 0.000000
-14.567000 0.000000
-14.527100 0.000000
-14.487300 0.000000
-14.447400 0.000000
-14.407600 0.000000
-14.367800 0.000000
-14.327900 0.000000
-14.288100 0.000000
-14.248200 0.000000
-14.208400 0.000000
-14.168500 0.000000
-14.128700 0.000000
-14.088800 0.000000
-14.049000 0.000000
-14.009100 0.000000
-13.969300 0.000000
-13.929400 0.000000
-13.889600 0.000000
-13.849800 0.000000
-13.809900 0.000000
-13.770100 0.000000
-13.730200 0.000000
-13.690400 0.000000
-13.650500 0.000000
-13.610700 0.000000
-13.570800 0.000000
-13.531000 0.000000
-13.491100 0.000000
-13.451300 0.000000
-13.411400 0.000000
-13.371600 0.000000
-13.331800 0.000000
-13.291900 0.000000
-13.252100 0.000000
-13.212200 0.000000
-13.172400 0.020500
-13.132500 0.234300
-13.092700 0.427200
-13.052800 0.540900
-13.013000 0.631900
-12.973100 0.728300
-12.933300 0.784100
-12.893400 0.864100
-12.853600 0.948600
-12.813800 1.036600
-12.773900 1.106100
-12.734100 1.176200
-12.694200 1.247700
-12.654400 1.318100
-12.614500 1.385200
-12.574700 1.453600
-12.534800 1.537400
-12.495000 1.653600
-12.455100 1.777800
-12.415300 1.894000
-12.375400 2.010600
-12.335600 2.159100
-12.295700 2.505900
-12.255900 2.732800
-12.216100 3.183200
-12.176200 3.301100
-12.136400 2.964300
-12.096500 3.009900
-12.056700 2.552200
-12.016800 2.415700
-11.977000 1.906300
-11.937100 1.398400
-11.897300 0.807000
-11.857400 1.160700
-11.817600 2.745400
-11.777700 4.208700
-11.737900 4.626000
-11.698100 3.360700
-11.658200 3.071900
-11.618400 2.889000
-11.578500 2.708000
-11.538700 2.526100
-11.498800 2.361000
-11.459000 2.683800
-11.419100 2.582300
-11.379300 2.259000
-11.339400 1.826200
-11.299600 3.762900
-11.259700 4.519400
-11.219900 4.595100
-11.180100 4.411500
-11.140200 4.337300
-11.100400 5.387300
-11.060500 7.929200
-11.020700 10.004500
-10.980800 8.473400
-10.941000 8.243400
-10.901100 8.571200
-10.861300 10.287500
-10.821400 6.709400
-10.781600 5.740000
-10.741700 11.414500
-10.701900 9.901700
-10.662100 8.818100
-10.622200 10.835200
-10.582400 10.718300
-10.542500 6.848800
-10.502700 11.801200
-10.462800 8.295700
-10.423000 14.273900
-10.383100 22.788500
-10.343300 0.000000
-10.303400 0.000000
-10.263600 0.000000
-10.223700 0.000000
-10.183900 0.000000
-10.144000 0.000000
-10.104200 0.000000
-10.064400 0.000000
-10.024500 0.000000
-9.984700 0.000000
-9.944800 0.000000
-9.905000 0.000000
-9.865100 0.000000
-9.825300 0.000000
-9.785400 0.000000
-9.745600 0.000000
-9.705700 0.000000
-9.665900 0.000000
-9.626000 0.000000
-9.586200 0.000000
-9.546400 0.000000
-9.506500 0.000000
-9.466700 0.000000
-9.426800 0.000000
-9.387000 0.000000
-9.347100 0.000000
-9.307300 0.000000
-9.267400 0.000000
-9.227600 0.000000
-9.187700 0.000000
-9.147900 0.000000
-9.108000 0.000000
-9.068200 0.000000
-9.028400 0.000000
-8.988500 0.000000
-8.948700 0.000000
-8.908800 0.000000
-8.869000 0.000000
-8.829100 0.000000
-8.789300 0.000000
-8.749400 0.000000
-8.709600 0.000000
-8.669700 0.000000
-8.629900 0.000000
-8.590000 0.000000
-8.550200 0.000000
-8.510400 0.000000
-8.470500 0.000000
-8.430700 0.000000
-8.390800 0.000000
-8.351000 0.000000
-8.311100 0.000000
-8.271300 0.000000
-8.231400 0.000000
-8.191600 0.000000
-8.151700 0.000000
-8.111900 0.000000
-8.072000 0.000000
-8.032200 0.000000
-7.992300 0.000000
-7.952500 0.000000
-7.912700 0.000000
-7.872800 0.000000
-7.833000 0.000000
-7.793100 0.000000
-7.753300 0.000000
-7.713400 0.000000
-7.673600 0.000000
-7.633700 0.000000
-7.593900 0.000000
-7.554000 0.000000
-7.514200 0.000000
-7.474300 0.000000
-7.434500 0.000000
-7.394700 0.000000
-7.354800 0.000000
-7.315000 0.000000
-7.275100 0.000000
-7.235300 0.000000
-7.195400 0.000000
-7.155600 0.000000
-7.115700 0.000000
-7.075900 0.000000
-7.036000 0.000000
-6.996200 0.000000
-6.956300 0.000000
-6.916500 0.000000
-6.876700 0.000000
-6.836800 0.000000
-6.797000 0.000000
-6.757100 0.000000
-6.717300 0.000000
-6.677400 0.000000
-6.637600 0.000000
-6.597700 0.000000
-6.557900 0.000000
-6.518000 0.000000
-6.478200 0.000000
-6.438300 0.000000
-6.398500 0.000000
-6.358700 0.000000
-6.318800 0.000000
-6.279000 0.000000
-6.239100 0.000000
-6.199300 0.000000
-6.159400 0.000000
-6.119600 0.000000
-6.079700 0.000000
-6.039900 0.000000
-6.000000 0.000000
-5.960200 0.000000
-5.920300 0.000000
-5.880500 0.000000
-5.840600 0.000000
-5.800800 0.000000
-5.761000 0.000000
-5.721100 0.000000
-5.681300 0.000000
-5.641400 0.000000
-5.601600 0.000000
-5.561700 0.000000
-5.521900 0.000000
-5.482000 0.000000
-5.442200 0.000000
-5.402300 0.000000
-5.362500 0.000000
-5.322600 0.000000
-5.282800 0.000000
-5.243000 0.000000
-5.203100 0.000000
-5.163300 0.000000
-5.123400 0.000000
-5.083600 0.000000
-5.043700 0.000000
-5.003900 0.000000
-4.964000 0.000000
-4.924200 0.000000
-4.884300 0.000000
-4.844500 0.000000
-4.804600 0.000000
-4.764800 0.000000
-4.725000 0.000000
-4.685100 0.000000
-4.645300 0.000000
-4.605400 0.000000
-4.565600 0.000000
-4.525700 0.000000
-4.485900 0.000000
-4.446000 0.000000
-4.406200 0.000000
-4.366300 0.000000
-4.326500 0.000000
-4.286600 0.000000
-4.246800 0.000000
-4.207000 0.000000
-4.167100 0.000000
-4.127300 0.000000
-4.087400 0.000000
-4.047600 0.000000
-4.007700 0.000000
-3.967900 0.000000
-3.928000 0.000000
-3.888200 0.000000
-3.848300 0.000000
-3.808500 0.000000
-3.768600 0.000000
-3.728800 0.000000
-3.688900 0.000000
-3.649100 0.000000
-3.609300 0.000000
-3.569400 0.000000
-3.529600 0.000000
-3.489700 0.000000
-3.449900 0.000000
-3.410000 0.000000
-3.370200 0.000000
-3.330300 0.000000
-3.290500 0.000000
-3.250600 0.000000
-3.210800 0.000000
-3.170900 0.000000
-3.131100 0.000000
-3.091300 0.000000
-3.051400 0.000000
-3.011600 0.000000
-2.971700 0.000000
-2.931900 0.000000
-2.892000 0.000000
-2.852200 0.000000
-2.812300 0.000000
-2.772500 0.000000
-2.732600 0.000000
-2.692800 0.000000
-2.652900 0.000000
-2.613100 0.000000
-2.573300 0.000000
-2.533400 0.000000
-2.493600 0.000000
-2.453700 0.000000
-2.413900 0.000000
-2.374000 0.000000
-2.334200 0.000000
-2.294300 0.000000
-2.254500 0.000000
-2.214600 0.000000
-2.174800 0.000000
-2.134900 0.000000
-2.095100 0.000000
-2.055300 0.000000
-2.015400 0.000000
-1.975600 0.000000
-1.935700 0.000000
-1.895900 0.000000
-1.856000 0.000000
-1.816200 0.000000
-1.776300 0.000000
-1.736500 0.000000
-1.696600 0.000000
-1.656800 0.000000
-1.616900 0.000000
-1.577100 0.000000
-1.537200 0.000000
-1.497400 0.000000
-1.457600 0.000000
-1.417700 0.000000
-1.377900 0.000000
-1.338000 0.000000
-1.298200 0.000000
-1.258300 0.000000
-1.218500 0.000000
-1.178600 0.000000
-1.138800 0.000000
-1.098900 0.000000
-1.059100 0.000000
-1.019200 0.000000
-0.979400 0.000000
-0.939600 0.000000
-0.899700 0.000000
-0.859900 0.000000
-0.820000 0.490200
-0.780200 0.303200
-0.740300 0.398400
-0.700500 0.520600
-0.660600 0.669800
-0.620800 0.856600
-0.580900 1.126900
-0.541100 1.509800
-0.501200 2.061200
-0.461400 2.426000
-0.421600 2.594900
-0.381700 2.698800
-0.341900 2.636000
-0.302000 2.695300
-0.262200 3.346700
-0.222300 5.438500
-0.182500 6.762200
-0.142600 6.765300
-0.102800 6.703400
-0.062900 6.888000
-0.023100 6.096300
0.016800 4.945400
0.056600 4.054000
0.096400 4.771300
0.136300 5.232300
0.176100 5.880300
0.216000 6.413700
0.255800 5.243000
0.295700 5.064300
0.335500 4.912000
0.375400 4.584800
0.415200 4.155700
0.455100 3.578200
0.494900 3.170500
0.534800 2.963500
0.574600 2.947300
0.614400 3.056000
0.654300 3.828800
0.694100 5.463300
0.734000 2.993800
0.773800 2.189500
0.813700 2.027400
0.853500 3.423200
0.893400 7.074600
0.933200 5.345300
0.973100 5.410400
1.012900 4.468300
1.052800 3.794000
1.092600 3.892700
1.132500 3.920100
1.172300 4.906200
1.212100 5.007000
1.252000 5.413300
1.291800 4.355700
1.331700 1.860800
1.371500 1.188500
1.411400 1.273800
1.451200 1.507200
1.491100 1.890900
1.530900 2.832600
1.570800 5.067400
1.610600 6.028200
1.650500 6.480300
1.690300 6.125200
1.730100 5.647200
1.770000 5.105400
1.809800 4.462300
1.849700 3.390000
1.889500 3.846500
1.929400 4.556700
1.969200 5.430400
2.009100 8.030100
2.048900 9.735900
2.088800 5.655400
2.128600 2.936400
2.168500 2.176800
2.208300 2.377200
2.248100 2.665100
2.288000 3.055500
2.327800 3.433400
2.367700 3.874500
2.407500 3.960600
2.447400 3.865300
2.487200 4.680200
2.527100 4.849100
2.566900 2.764600
2.606800 2.327400
2.646600 2.127900
2.686500 3.605800
2.726300 5.552600
2.766100 5.899100
2.806000 4.924200
2.845800 4.683600
2.885700 4.537200
2.925500 3.608200
2.965400 3.135900
3.005200 3.069700
3.045100 3.420000
3.084900 3.827500
3.124800 4.102100
3.164600 4.302800
3.204500 4.143500
3.244300 4.093400
3.284200 4.536300
3.324000 4.708900
3.363800 5.056600
3.403700 4.646100
3.443500 5.110100
3.483400 9.125100
3.523200 10.919700
3.563100 11.249900
3.602900 7.467000
3.642800 6.801100
3.682600 6.628000
3.722500 5.298100
3.762300 5.535600
3.802200 6.005300
3.842000 7.253400
3.881800 5.346200
3.921700 4.620100
3.961500 4.999900
4.001400 6.415200
4.041200 8.338000
4.081100 9.699700
4.120900 9.752200
4.160800 6.940900
4.200600 6.363100
4.240500 6.741800
4.280300 7.334700
4.320200 7.516500
4.360000 8.229200
4.399800 10.918100
4.439700 8.886800
4.479500 11.797300
4.519400 11.269500
4.559200 14.726200
4.599100 11.586500
4.638900 8.946500
4.678800 7.827800
4.718600 8.753700
4.758500 6.371800
4.798300 3.528800
4.838200 5.696300
4.878000 11.132300
4.917800 13.291200
4.957700 4.404500
4.997500 3.613000
5.037400 3.337100
5.077200 9.129700
5.117100 12.662800
5.156900 9.738300
5.196800 9.068700
5.236600 8.612500
5.276500 8.459700
5.316300 7.643600
5.356200 8.740200
5.396000 8.181400
5.435900 9.250100
5.475700 9.816300
5.515500 13.840800
5.555400 11.783000
5.595200 13.337100
5.635100 6.143100
5.674900 4.786200
5.714800 3.843900
5.754600 3.748100
5.794500 0.000000
5.834300 0.000000
5.874200 0.000000
5.914000 0.000000
5.953900 0.000000
5.993700 0.000000
6.033500 0.000000
6.073400 0.000000
6.113200 0.000000
6.153100 0.000000
6.192900 0.000000
6.232800 0.000000
6.272600 0.000000
6.312500 0.000000
6.352300 0.000000
6.392200 0.000000
6.432000 0.000000
6.471900 0.000000
6.511700 0.000000
6.551500 0.000000
6.591400 0.000000
6.631200 0.000000
6.671100 0.000000
6.710900 0.000000
6.750800 0.000000
6.790600 0.000000
6.830500 0.000000
6.870300 0.000000
6.910200 0.000000
6.950000 0.000000
6.989900 0.000000
7.029700 0.000000
7.069500 0.000000
7.109400 0.000000
7.149200 0.000000
7.189100 0.000000
7.228900 0.000000
7.268800 0.000000
7.308600 0.000000
7.348500 0.000000
7.388300 0.000000
7.428200 0.000000
7.468000 0.000000
7.507900 0.000000
7.547700 0.000000
7.587600 0.000000
7.627400 0.000000
7.667200 0.000000
7.707100 0.000000
7.746900 0.000000
7.786800 0.000000
7.826600 0.000000
7.866500 0.000000
7.906300 0.000000
7.946200 0.000000
7.986000 0.000000
8.025900 0.000000
8.065700 0.000000
8.105600 0.000000
8.145400 0.000000
8.185200 0.000000
8.225100 0.000000
8.264900 0.000000
8.304800 0.000000
8.344600 0.000000
8.384500 0.000000
8.424300 0.000000
8.464200 0.000000
8.504000 0.000000
8.543900 0.000000
8.583700 0.000000
8.623600 0.000000
8.663400 0.000000
8.703200 0.000000
8.743100 0.000000
8.782900 0.000000
8.822800 0.000000
8.862600 0.000000
8.902500 0.000000
8.942300 0.000000
8.982200 0.000000
9.022000 0.000000
9.061900 0.000000
9.101700 0.000000
9.141600 0.000000
9.181400 0.000000
9.221200 0.000000
9.261100 0.000000
9.300900 0.000000
9.340800 0.000000
9.380600 0.000000
9.420500 0.000000
9.460300 0.000000
9.500200 0.000000
9.540000 0.000000
9.579900 0.000000
9.619700 0.000000
9.659600 0.000000
9.699400 0.000000
9.739300 0.000000
9.779100 0.000000
9.818900 0.000000
9.858800 0.000000
9.898600 0.000000
9.938500 0.000000
9.978300 0.000000
10.018200 0.000000
10.058000 0.000000
10.097900 0.000000
10.137700 0.000000
10.177600 0.000000
10.217400 0.000000
10.257300 0.000000
10.297100 0.000000
10.336900 0.000000
10.376800 0.000000
10.416600 0.000000
10.456500 0.000000
10.496300 0.000000
10.536200 0.000000
10.576000 0.000000
10.615900 0.000000
10.655700 0.000000
10.695600 0.000000
10.735400 0.000000
10.775300 0.000000
10.815100 0.000000
10.854900 0.000000
10.894800 0.000000
10.934600 0.000000
10.974500 0.000000
11.014300 0.000000
11.054200 0.000000
11.094000 0.000000
11.133900 0.000000
11.173700 0.000000
11.213600 0.000000
11.253400 0.000000
11.293300 0.000000
11.333100 0.000000
11.372900 0.000000
11.412800 0.000000
11.452600 0.000000
11.492500 0.000000
11.532300 0.000000
11.572200 0.000000
11.612000 0.000000
11.651900 0.000000
11.691700 0.000000
11.731600 0.000000
11.771400 0.000000
11.811300 0.000000
11.851100 0.004400
11.891000 0.014900
11.930800 0.025500
11.970600 0.036100
12.010500 0.046900
12.050300 0.057700
12.090200 0.068700
12.130000 0.079700
12.169900 0.090800
12.209700 0.102000
12.249600 0.113200
12.289400 0.124600
12.329300 0.132600
12.369100 0.140200
12.409000 0.148100
12.448800 0.156200
12.488600 0.164600
12.528500 0.173200
12.568300 0.182000
12.608200 0.191100
12.648000 0.200000
12.687900 0.208800
12.727700 0.217600
12.767600 0.226500
12.807400 0.235500
12.847300 0.244800
12.887100 0.254100
12.927000 0.263600
12.966800 0.273200
13.006600 0.282900
13.046500 0.292700
13.086300 0.302700
13.126200 0.312800
13.166000 0.323000
13.205900 0.333300
13.245700 0.344300
13.285600 0.357200
13.325400 0.370500
13.365300 0.384100
13.405100 0.398100
13.445000 0.412400
13.484800 0.427100
13.524600 0.442500
13.564500 0.458700
13.604300 0.475400
13.644200 0.492500
13.684000 0.510000
13.723900 0.528100
13.763700 0.547300
13.803600 0.571000
13.843400 0.595000
13.883300 0.618300
13.923100 0.640900
13.963000 0.662800
14.002800 0.684100
14.042700 0.704600
14.082500 0.724400
14.122300 0.743500
14.162200 0.761900
14.202000 0.779600
14.241900 0.796600
14.281700 0.812900
14.321600 0.828500
14.361400 0.881300
14.401300 0.941800
14.441100 1.041100
14.481000 1.154700
14.520800 1.264100
14.560700 1.394500
14.600500 1.498000
14.640300 1.574800
14.680200 1.636000
14.720000 1.714000
14.759900 1.828200
14.799700 1.968200
14.839600 2.068900
14.879400 1.961300
14.919300 1.980800
14.959100 2.602300
14.999000 3.791900
15.038800 4.004100
15.078700 4.288500
15.118500 4.238900
15.158300 3.962900
15.198200 3.420800
15.238000 3.549400
15.277900 4.190500
15.317700 4.655300
15.357600 5.411900
15.397400 5.397000
15.437300 5.717700
15.477100 5.351300
15.517000 5.048300
15.556800 4.545400
15.596700 4.280900
15.636500 3.583500
15.676300 3.285800
15.716200 3.230100
15.756000 3.225900
15.795900 3.666700
15.835700 4.429700
15.875600 9.477300
15.915400 7.139000
15.955300 4.498500
15.995100 3.669900
16.035000 4.008600
16.074800 4.156800
16.114700 3.944700
16.154500 4.029900
16.194400 4.132600
16.234200 4.218500
16.274000 4.295100
16.313900 4.643600
16.353700 4.925800
16.393600 5.440600
16.433400 4.682800
16.473300 4.642600
16.513100 4.657300
16.553000 4.007400
16.592800 3.608900
16.632700 3.407500
16.672500 3.458600
16.712400 3.653500
16.752200 3.876300
16.792000 4.017800
16.831900 4.067000
16.871700 3.991100
16.911600 4.032400
16.951400 3.972900
16.991300 3.862800
17.031100 4.042300
17.071000 4.710900
17.110800 4.725300
17.150700 4.503800
17.190500 4.551700
17.230400 4.387100
17.270200 3.509000
17.310000 3.251200
17.349900 3.094800
17.389700 2.992000
17.429600 3.220400
17.469400 2.753000
17.509300 3.118100
17.549100 4.173600
17.589000 4.645800
17.628800 4.601000
17.668700 4.567800
17.708500 4.338700
17.748400 2.527400
17.788200 1.980400
17.828000 1.803100
17.867900 2.043500
17.907700 2.839900
17.947600 3.822500
17.987400 4.405500
18.027300 4.183800
18.067100 3.958900
18.107000 4.607500
18.146800 5.612200
18.186700 6.030500
18.226500 5.425400
18.266400 3.566800
18.306200 3.138800
18.346100 2.500900
18.385900 2.353100
18.425700 2.544600
18.465600 3.095900
18.505400 5.782400
18.545300 6.746000
18.585100 10.856300
18.625000 6.827700
18.664800 6.105600
18.704700 5.701100
18.744500 5.205200
18.784400 4.446100
18.824200 4.632200
18.864100 5.914100
18.903900 5.794800
18.943700 5.573800
18.983600 6.406800
19.023400 7.510600
19.063300 7.347300
19.103100 3.871400
19.143000 3.988100
19.182800 5.051700
19.222700 5.512700
19.262500 5.742000
19.302400 6.134100
19.342200 6.744900
19.382100 7.316700
19.421900 7.532000
19.461700 7.334100
19.501600 6.610700
19.541400 4.181100
19.581300 3.794600
19.621100 3.353600
19.661000 3.003300
19.700800 2.850200
19.740700 2.514600
19.780500 2.396500
19.820400 2.272300
19.860200 2.084700
19.900100 1.672900
19.939900 1.575500
19.979700 1.717800
20.019600 2.249900
20.059400 5.284700
20.099300 6.625500
20.139100 6.471600
20.179000 5.375100
20.218800 5.486200
20.258700 5.897800
20.298500 7.309100
20.338400 7.990100
20.378200 9.711100
20.418100 7.487700
20.457900 8.300500
20.497700 11.467300
20.537600 7.433700
20.577400 8.199000
20.617300 10.132400
20.657100 14.443600
20.697000 7.602700
20.736800 6.138500
20.776700 5.854400
20.816500 4.819500
20.856400 4.448600
20.896200 4.229600
20.936100 4.320800
20.975900 4.628300
21.015800 4.780600
21.055600 4.882500
21.095400 5.412200
21.135300 6.331500
21.175100 5.867000
21.215000 6.100400
21.254800 6.840400
21.294700 6.637000
21.334500 4.668900
21.374400 5.837400
21.414200 7.473200
21.454100 7.658400
21.493900 7.366300
21.533800 7.123600
21.573600 6.580200
21.613400 5.955700
21.653300 3.367300
21.693100 2.573800
21.733000 2.278900
21.772800 2.056700
21.812700 1.687600
21.852500 1.455000
21.892400 1.338200
21.932200 1.214500
21.972100 1.673900
22.011900 1.851100
22.051800 1.884400
22.091600 1.986100
22.131400 2.144400
22.171300 2.350100
22.211100 2.563600
22.251000 2.770900
22.290800 2.973100
22.330700 4.690000
22.370500 5.180700
22.410400 5.658900
22.450200 6.439300
22.490100 3.968900
22.529900 3.651800
22.569800 3.597800
22.609600 3.270200
22.649400 3.150600
22.689300 3.134200
22.729100 3.073900
22.769000 2.976000
22.808800 2.876500
22.848700 2.769200
22.888500 2.650100
22.928400 2.525800
22.968200 2.469300
23.008100 2.454600
23.047900 2.970800
23.087800 3.140400
23.127600 2.813100
23.167500 2.729200
23.207300 2.654100
23.247100 2.591600
23.287000 2.699300
23.326800 2.858800
23.366700 3.101300
23.406500 3.536300
23.446400 4.223000
23.486200 6.429400
23.526100 3.783600
23.565900 3.461500
23.605800 3.238000
23.645600 3.080400
23.685500 2.990800
23.725300 2.985200
23.765100 2.978100
23.805000 2.979400
23.844800 2.861800
23.884700 2.630600
23.924500 2.473400
23.964400 2.449900
24.004200 2.464500
24.044100 2.517500
24.083900 2.581900
24.123800 2.621200
24.163600 2.642900
24.203500 3.225600
24.243300 2.765000
24.283100 2.443000
24.323000 1.724300
24.362800 1.484300
24.402700 1.494100
24.442500 1.503800
24.482400 1.535000
24.522200 1.563600
24.562100 2.199400
24.601900 1.822500
24.641800 1.765600
24.681600 1.734800
24.721500 1.737300
24.761300 2.027600
24.801100 2.095200
24.841000 2.188500
24.880800 2.361400
24.920700 2.468600
24.960500 2.376000
25.000400 1.953900
25.040200 1.241500
25.080100 0.651400
25.119900 0.742800
25.159800 0.856200
25.199600 1.065700
25.239500 1.354500
25.279300 1.740900
25.319200 2.257800
25.359000 3.574900
25.398800 8.139400
25.438700 6.815100
25.478500 4.524500
25.518400 3.500400
25.558200 2.724800
25.598100 2.232600
25.637900 2.138300
25.677800 2.069700
25.717600 2.084500
25.757500 2.647200
25.797300 3.685600
25.837200 3.543000
25.877000 3.170800
25.916800 3.413100
25.956700 3.499300
25.996500 3.417800
26.036400 3.301000
26.076200 3.177300
26.116100 3.051700
26.155900 2.990000
26.195800 2.902000
26.235600 2.719200
26.275500 2.455000
26.315300 2.361500
26.355200 2.431800
26.395000 2.699000
26.434800 2.343900
26.474700 1.971400
26.514500 1.885500
26.554400 1.868100
26.594200 1.846200
26.634100 1.829600
26.673900 1.832900
26.713800 1.864600
26.753600 1.979600
26.793500 2.240800
26.833300 2.882000
26.873200 3.150600
26.913000 3.194200
26.952800 3.227400
26.992700 3.258500
27.032500 3.473300
27.072400 3.625300
27.112200 3.590300
27.152100 3.791300
27.191900 3.993200
27.231800 4.611300
27.271600 4.907200
27.311500 4.116400
27.351300 3.574700
27.391200 2.786600
27.431000 2.363600
27.470900 2.323800
27.510700 2.478800
27.550500 2.651800
27.590400 3.030100
27.630200 3.200400
27.670100 3.346900
27.709900 3.464100
27.749800 3.524200
27.789600 4.867400
27.829500 3.559700
27.869300 3.636500
27.909200 4.554200
27.949000 5.074100
27.988900 5.463500
28.028700 6.088700
28.068500 6.114100
28.108400 5.661800
28.148200 4.322600
28.188100 3.588600
28.227900 3.215400
28.267800 2.953400
28.307600 2.750700
28.347500 2.610900
28.387300 2.490600
28.427200 2.383800
28.467000 2.303600
28.506900 2.314500
28.546700 2.337200
28.586500 2.851000
28.626400 3.070600
28.666200 3.118800
28.706100 3.304100
28.745900 3.543200
28.785800 3.978500
28.825600 4.004200
28.865500 3.990000
28.905300 4.008300
28.945200 4.508700
28.985000 4.183200
29.024900 4.077000
29.064700 4.004000
29.104500 3.915100
29.144400 3.579100
29.184200 3.334600
29.224100 3.242000
29.263900 3.463200
29.303800 3.284600
29.343600 3.482600
29.383500 3.695000
29.423300 3.590700
29.463200 3.688700
29.503000 3.284100
29.542900 3.058700
29.582700 2.932700
29.622600 2.804300
29.662400 2.724200
29.702200 2.743200
29.742100 2.818700
29.781900 2.934200
29.821800 3.086800
29.861600 3.276500
29.901500 3.504000
29.941300 4.132100
29.981200 5.144500
30.021000 4.828900
30.060900 4.372700
30.100700 4.251900
30.140600 3.560400
30.180400 3.231700
30.220200 2.829700
30.260100 3.054100
30.299900 3.325200
30.339800 3.924000
30.379600 4.736100
30.419500 4.861800
30.459300 4.970400
30.499200 4.945500
30.539000 4.511900
30.578900 4.328500
30.618700 4.323300
30.658600 3.395900
30.698400 3.461700
30.738200 3.581300
30.778100 3.214000
30.817900 2.954500
30.857800 3.045100
30.897600 3.122100
30.937500 3.184800
30.977300 3.328100
31.017200 3.588900
31.057000 2.992700
31.096900 2.778700
31.136700 2.563200
31.176600 2.048200
31.216400 1.972500
31.256200 2.804800
31.296100 3.427700
31.335900 3.854200
31.375800 4.028200
31.415600 4.456300
31.455500 3.581600
31.495300 3.027600
31.535200 2.686800
31.575000 2.405100
31.614900 2.177700
31.654700 2.042400
31.694600 1.938000
31.734400 1.820900
31.774300 1.707100
31.814100 1.598400
31.853900 1.335900
31.893800 1.294000
31.933600 1.266600
31.973500 0.897500
32.013300 0.721400
32.053200 0.557200
32.093000 0.590600
32.132900 0.801900
32.172700 1.104800
32.212600 1.503400
32.252400 2.537500
32.292300 2.566200
32.332100 3.250400
32.371900 3.315300
32.411800 3.064200
32.451600 3.252300
32.491500 3.583300
32.531300 3.822400
32.571200 3.999300
32.611000 4.650900
32.650900 4.781500
32.690700 5.172000
32.730600 5.462000
32.770400 5.746500
32.810300 5.944800
32.850100 5.984800
32.889900 5.534900
32.929800 5.384500
32.969600 6.498900
33.009500 8.476800
33.049300 8.275900
33.089200 7.084500
33.129000 5.398300
33.168900 3.879900
33.208700 3.614900
33.248600 3.722700
33.288400 4.061700
33.328300 4.250900
33.368100 4.983300
33.407900 5.102700
33.447800 5.167400
33.487600 2.938400
33.527500 2.679700
33.567300 2.610500
33.607200 3.180600
33.647000 4.219400
33.686900 5.097100
33.726700 5.574100
33.766600 6.116300
33.806400 6.450500
33.846300 6.865400
33.886100 5.162700
33.926000 4.874700
33.965800 4.643800
34.005600 4.456900
34.045500 5.010800
34.085300 5.195000
34.125200 5.930800
34.165000 6.230000
34.204900 7.368800
34.244700 5.477900
34.284600 4.074800
34.324400 4.061900
34.364300 4.499200
34.404100 4.791200
34.444000 4.951200
34.483800 4.986700
34.523600 5.123400
34.563500 5.423700
34.603300 5.722500
34.643200 5.330800
34.683000 5.019900
34.722900 4.948400
34.762700 4.951100
34.802600 5.399000
34.842400 6.002400
34.882300 5.181900
34.922100 5.454800
34.962000 6.273200
35.001800 6.051200
35.041600 4.966500
35.081500 4.277500
35.121300 3.766800
35.161200 3.714400
35.201000 4.129300
35.240900 5.084600
35.280700 5.816400
35.320600 5.592300
35.360400 5.859700
35.400300 5.258700
35.440100 5.364200
35.480000 4.160100
35.519800 3.852900
35.559600 3.471700
35.599500 3.568600
35.639300 3.923300
35.679200 3.823800
35.719000 3.895400
35.758900 3.795200
35.798700 4.034500
35.838600 4.188500
35.878400 4.210800
35.918300 4.869400
35.958100 3.918500
35.998000 3.779000
36.037800 3.521500
36.077700 3.447400
36.117500 3.834200
36.157300 4.571600
36.197200 5.164700
36.237000 5.509600
36.276900 5.603800
36.316700 5.523500
36.356600 5.454500
36.396400 5.050700
36.436300 4.863600
36.476100 4.200500
36.516000 3.870100
36.555800 3.475500
36.595700 3.113400
36.635500 2.908000
36.675300 2.851700
36.715200 3.106400
36.755000 3.008600
36.794900 3.265500
36.834700 3.757800
36.874600 4.009700
36.914400 4.067700
36.954300 3.925100
36.994100 4.004600
37.034000 4.000400
37.073800 3.948800
37.113700 4.393800
37.153500 4.032700
37.193300 4.115600
37.233200 4.218800
37.273000 4.382700
37.312900 4.814400
37.352700 3.907600
37.392600 3.577000
37.432400 3.244600
37.472300 2.906400
37.512100 2.608300
37.552000 2.356700
37.591800 2.790700
37.631700 1.531900
37.671500 2.024800
37.711300 2.857300
37.751200 3.762600
37.791000 4.662800
37.830900 5.664200
37.870700 6.242400
37.910600 4.650800
37.950400 3.300600
37.990300 2.913900
38.030100 2.881700
38.070000 2.888700
38.109800 2.887600
38.149700 2.854300
38.189500 2.721500
38.229400 2.499900
38.269200 2.232800
38.309000 2.069000
38.348900 1.943000
38.388700 1.897600
38.428600 1.942700
38.468400 1.983500
38.508300 1.964300
38.548100 1.819100
38.588000 1.685800
38.627800 1.579200
38.667700 1.499500
38.707500 1.534500
38.747400 2.081400
38.787200 2.732700
38.827000 3.340800
38.866900 3.575700
38.906700 3.523200
38.946600 3.407600
38.986400 3.325700
39.026300 3.243600
39.066100 3.206800
39.106000 3.157100
39.145800 3.020500
39.185700 3.065500
39.225500 3.050700
39.265400 3.055900
39.305200 3.340300
39.345000 4.016700
39.384900 4.696100
39.424700 5.402600
39.464600 6.010700
39.504400 6.083100
39.544300 4.776900
39.584100 4.110100
39.624000 3.430500
39.663800 2.844500
39.703700 2.586200
39.743500 2.419900
39.783400 2.263700
39.823200 2.170300
39.863000 2.106400
39.902900 2.257600
39.942700 2.041900
39.982600 2.125200
40.022400 2.248600
40.062300 2.339400
40.102100 2.031700
40.142000 2.061100
40.181800 2.129600
40.221700 2.973000
40.261500 5.570100
40.301400 6.155900
40.341200 6.417900
40.381000 5.728300
40.420900 4.720400
40.460700 3.772200
40.500600 3.200700
40.540400 3.510000
40.580300 3.459300
40.620100 3.227300
40.660000 3.171700
40.699800 3.222800
40.739700 3.328400
40.779500 3.517300
40.819400 3.730600
40.859200 4.559500
40.899100 4.588700
40.938900 4.979000
40.978700 4.924600
41.018600 4.646400
41.058400 4.149500
41.098300 3.628700
41.138100 2.901500
41.178000 2.634800
41.217800 2.720000
41.257700 3.250400
41.297500 3.288000
41.337400 3.238200
41.377200 3.593100
41.417100 3.672800
41.456900 3.772600
41.496700 3.892400
41.536600 4.001600
41.576400 3.852700
41.616300 4.150300
41.656100 4.620900
41.696000 4.201600
41.735800 3.681300
41.775700 3.256700
41.815500 2.954100
41.855400 2.905900
41.895200 3.099100
41.935100 3.766300
41.974900 4.400700
42.014700 5.147600
42.054600 5.709600
42.094400 6.012300
42.134300 5.715600
42.174100 5.793400
42.214000 5.543100
42.253800 5.517600
42.293700 7.373800
42.333500 2.853700
42.373400 2.161800
42.413200 2.263500
42.453100 2.840800
42.492900 2.600700
42.532700 3.234300
42.572600 4.464400
42.612400 4.884200
42.652300 4.568000
42.692100 4.244400
42.732000 3.978800
42.771800 3.773700
42.811700 3.600100
42.851500 3.662000
42.891400 4.308200
42.931200 4.824000
42.971100 5.413500
43.010900 6.537700
43.050800 5.512000
43.090600 5.317800
43.130400 5.162900
43.170300 5.083400
43.210100 5.697600
43.250000 6.472100
43.289800 5.224800
43.329700 5.052500
43.369500 5.902000
43.409400 6.283400
43.449200 6.528500
43.489100 7.010100
43.528900 6.614400
43.568800 5.716300
43.608600 4.393400
43.648400 2.948500
43.688300 3.067500
43.728100 4.208300
43.768000 4.679400
43.807800 4.777700
43.847700 4.646500
43.887500 4.229900
43.927400 3.590500
43.967200 4.229100
44.007100 4.228600
44.046900 4.262700
44.086800 4.441500
44.126600 5.413600
44.166400 6.532700
44.206300 6.160100
44.246100 4.987900
44.286000 4.512900
44.325800 4.433800
44.365700 4.565600
44.405500 4.516400
44.445400 4.802800
44.485200 4.757000
44.525100 5.533200
44.564900 7.980700
44.604800 11.379300
44.644600 9.713300
44.684400 6.619000
44.724300 3.882900
44.764100 3.997500
44.804000 4.155300
44.843800 4.447800
44.883700 4.824800
44.923500 4.366600
44.963400 4.182000
45.003200 3.880700
45.043100 2.986700
45.082900 2.897900
45.122800 2.865300
45.162600 2.835800
45.202500 2.801100
45.242300 3.789500
45.282100 3.702000
45.322000 3.785500
45.361800 3.828100
45.401700 3.700900
45.441500 3.545900
45.481400 3.539200
45.521200 3.657100
45.561100 3.976800
45.600900 4.216400
45.640800 4.376100
45.680600 4.295300
45.720500 4.300700
45.760300 4.390300
45.800100 5.735500
45.840000 6.314500
45.879800 7.252600
45.919700 5.529200
45.959500 4.104900
45.999400 3.751700
46.039200 3.935400
46.079100 4.159800
46.118900 4.391800
46.158800 4.332500
46.198600 4.311400
46.238500 4.559300
46.278300 5.281500
46.318100 5.004400
46.358000 4.507400
46.397800 4.102300
46.437700 4.055100
46.477500 4.116600
46.517400 4.368600
46.557200 4.100700
46.597100 3.921100
46.636900 3.863100
46.676800 3.981200
46.716600 3.703000
46.756500 3.285300
46.796300 2.860700
46.836100 2.955000
46.876000 3.828500
46.915800 4.019000
46.955700 4.476400
46.995500 4.539400
47.035400 4.436700
47.075200 4.460000
47.115100 4.447100
47.154900 4.402100
47.194800 4.320600
47.234600 4.646700
47.274500 5.830500
47.314300 5.295400
47.354200 5.174800
47.394000 4.559200
47.433800 3.655600
47.473700 3.272100
47.513500 3.174300
47.553400 3.106800
47.593200 3.062100
47.633100 3.016800
47.672900 3.148700
47.712800 3.385800
47.752600 3.369600
47.792500 4.078900
47.832300 4.461900
47.872200 4.636300
47.912000 4.971200
47.951800 5.286300
47.991700 5.284500
48.031500 5.936100
48.071400 5.679500
48.111200 5.351500
48.151100 5.199900
48.190900 5.158900
48.230800 5.157900
48.270600 5.011700
48.310500 4.920200
48.350300 5.567400
48.390200 4.615800
48.430000 4.676800
48.469800 4.974500
48.509700 5.351000
48.549500 6.858300
48.589400 6.621800
48.629200 5.904400
48.669100 5.160100
48.708900 5.229900
48.748800 5.056400
48.788600 4.705900
48.828500 4.735300
48.868300 4.812900
48.908200 4.791500
48.948000 4.572700
48.987800 4.825000
49.027700 4.888100
49.067500 4.922700
49.107400 4.805700
49.147200 4.894500
49.187100 4.918300
49.226900 4.502900
49.266800 4.800300
49.306600 5.572500
49.346500 5.209100
49.386300 5.336400
49.426200 5.346500
49.466000 4.409800
49.505900 4.194300
49.545700 3.975400
49.585500 3.789700
49.625400 3.605200
49.665200 3.445100
49.705100 3.299600
49.744900 3.599800
49.784800 3.589600
49.824600 3.284100
49.864500 3.175600
49.904300 3.099300
49.944200 3.094400
49.984000 3.089600
50.023900 3.037800
50.063700 3.033800
50.103500 3.207000
50.143400 3.445200
50.183200 3.499900
50.223100 3.493200
50.262900 3.601800
50.302800 3.842400
50.342600 4.112200
50.382500 3.888400
50.422300 4.080100
50.462200 3.936100
50.502000 4.357200
50.541900 4.415800
50.581700 4.975700
50.621500 4.879900
50.661400 4.685600
50.701200 4.384000
50.741100 4.266900
50.780900 4.383000
50.820800 4.540700
50.860600 4.647200
50.900500 5.024200
50.940300 4.292700
50.980200 4.070700
51.020000 4.076000
51.059900 4.092100
51.099700 4.179900
51.139500 4.538900
51.179400 4.857800
51.219200 4.818600
51.259100 5.150200
51.298900 5.451300
51.338800 5.807100
51.378600 5.717700
51.418500 5.554300
51.458300 5.403200
51.498200 5.275700
51.538000 5.120500
51.577900 4.868600
51.617700 4.714400
51.657600 4.611900
51.697400 4.320700
51.737200 3.769700
51.777100 3.469400
51.816900 3.394900
51.856800 3.312000
51.896600 4.687000
51.936500 5.328000
51.976300 6.129300
52.016200 5.966600
52.056000 5.976200
52.095900 4.763800
52.135700 4.017300
52.175600 3.590300
52.215400 3.362700
52.255200 3.421500
52.295100 3.953200
52.334900 4.823900
52.374800 5.607400
52.414600 5.292700
52.454500 6.202500
52.494300 7.577900
52.534200 7.568200
52.574000 5.644200
52.613900 4.608000
52.653700 3.975200
52.693600 4.384800
52.733400 4.642400
52.773200 4.500400
52.813100 4.862400
52.852900 4.897400
52.892800 4.919200
52.932600 4.954700
52.972500 5.878800
53.012300 6.316200
53.052200 6.243500
53.092000 4.763300
53.131900 4.505400
53.171700 4.919700
53.211600 5.089500
53.251400 5.269100
53.291200 5.687600
53.331100 5.738300
53.370900 5.719000
53.410800 5.419600
53.450600 6.026200
53.490500 5.903200
53.530300 5.695300
53.570200 5.779100
53.610000 6.225100
53.649900 5.857200
53.689700 5.783500
53.729600 5.731600
53.769400 5.645300
53.809300 5.385400
53.849100 5.212900
53.888900 5.178400
53.928800 5.543000
53.968600 7.297500
54.008500 6.748400
54.048300 6.022800
54.088200 6.254200
54.128000 6.263800
54.167900 5.595500
54.207700 4.355400
54.247600 3.606700
54.287400 3.652200
54.327300 5.861200
54.367100 10.119400
54.406900 15.205700
54.446800 8.085300
54.486600 6.051600
54.526500 6.170300
54.566300 6.922100
54.606200 7.404500
54.646000 8.651300
54.685900 9.199000
54.725700 10.623400
54.765600 11.076900
54.805400 9.743900
54.845300 8.536600
54.885100 7.836600
54.924900 9.027600
54.964800 9.491400
55.004600 9.050100
55.044500 8.785600
55.084300 10.247200
55.124200 11.552300
55.164000 11.241600
55.203900 8.378900
55.243700 9.679600
55.283600 10.745800
55.323400 12.204600
55.363300 11.391900
55.403100 11.410300
55.442900 12.775000
55.482800 10.327100
55.522600 13.648900
55.562500 14.838800
55.602300 11.897800
55.642200 11.914900
55.682000 11.772200
55.721900 13.569800
55.761700 12.170800
55.801600 11.168900
55.841400 9.036600
55.881300 8.817900
55.921100 9.447900
55.961000 10.906100
56.000800 11.093000
56.040600 11.228000
56.080500 12.757700
56.120300 16.679500
56.160200 10.627500
56.200000 10.905900
56.239900 11.842000
56.279700 13.600400
56.319600 16.118000
56.359400 11.818100
56.399300 10.611900
56.439100 12.493200
56.479000 12.004700
56.518800 14.828500
56.558600 11.275600
56.598500 11.163700
56.638300 14.428300
56.678200 14.512900
56.718000 11.583000
56.757900 9.674200
56.797700 12.932800
56.837600 12.972400
56.877400 12.123400
56.917300 16.472500
56.957100 15.323200
56.997000 11.066500
57.036800 9.564000
57.076600 9.075400
57.116500 8.416600
57.156300 8.106300
57.196200 7.105700
57.236000 8.008400
57.275900 12.512400
57.315700 12.524900
57.355600 10.182900
57.395400 7.035800
57.435300 11.646500
57.475100 10.417800
57.515000 9.739300
57.554800 10.252000
57.594600 8.519200
57.634500 8.493100
57.674300 11.546400
57.714200 7.900500
57.754000 7.651600
57.793900 7.478000
57.833700 7.211200
57.873600 11.717000
57.913400 11.399300
57.953300 9.828500
57.993100 7.505800
58.033000 5.011300
58.072800 4.517400
58.112600 3.835300
58.152500 11.989900
58.192300 8.827400
58.232200 8.452300
58.272000 5.805300
58.311900 5.434000
58.351700 5.446700
58.391600 5.188600
58.431400 5.382500
58.471300 6.405700
58.511100 8.159500
58.551000 8.621200
58.590800 8.185800
58.630700 6.072700
58.670500 3.842100
58.710300 2.159900
58.750200 1.157200
58.790000 0.768000
58.829900 0.608300
58.869700 0.479800
58.909600 0.356300
58.949400 0.281500
58.989300 0.247900
59.029100 0.220800
59.069000 0.196400
59.108800 0.174700
59.148700 0.155700
59.188500 0.139400
59.228300 0.125800
59.268200 1.591400
59.308000 0.000000
59.347900 0.000000
59.387700 0.000000
59.427600 0.000000
59.467400 0.000000
59.507300 0.000000
59.547100 0.000000
59.587000 0.000000
59.626800 0.000000
59.666700 0.000000
59.706500 0.000000
59.746300 0.000000
59.786200 0.000000
59.826000 0.000000
59.865900 0.000000
59.905700 0.000000
59.945600 0.000000
59.985400 0.000000
60.025300 0.000000
60.065100 0.000000
60.105000 0.000000
60.144800 0.000000
60.184700 0.000000
60.224500 0.000000
60.264300 0.000000
60.304200 0.000000
60.344000 0.000000
60.383900 0.000000
60.423700 0.000000
60.463600 0.000000
60.503400 0.000000
60.543300 0.000000
60.583100 0.000000
60.623000 0.000000
60.662800 0.000000
60.702700 0.000000
60.742500 0.000000
60.782400 0.000000
60.822200 0.000000
60.862000 0.000000
60.901900 0.000000
60.941700 0.000000
60.981600 0.000000
61.021400 0.000000
61.061300 0.000000
61.101100 0.000000
61.141000 0.000000
61.180800 0.000000
61.220700 0.000000
61.260500 0.000000
61.300400 0.000000
61.340200 0.000000
61.380000 0.000000
61.419900 0.000000
61.459700 0.000000
61.499600 0.000000
61.539400 0.000000
61.579300 0.000000
61.619100 0.000000
61.659000 0.000000
61.698800 0.000000
61.738700 0.000000
61.778500 0.000000
61.818400 0.000000
61.858200 0.000000
61.898000 0.000000
61.937900 0.000000
61.977700 0.000000
62.017600 0.000000
62.057400 0.000000
62.097300 0.000000
62.137100 0.000000
62.177000 0.000000
62.216800 0.000000
62.256700 0.000000
62.296500 0.000000
62.336400 0.000000
62.376200 0.000000
62.416000 0.000000
62.455900 0.000000
62.495700 0.000000
62.535600 0.000000
62.575400 0.000000
62.615300 0.000000
62.655100 0.000000
62.695000 0.000000
62.734800 0.000000
62.774700 0.000000
62.814500 0.000000
62.854400 0.000000
62.894200 0.000000
e
