set title 'mp-555760 - Density of States'
set xlabel 'Energy (eV)'
set ylabel 'DOS (states/eV)'
set grid
set xrange [-10:10]
set yrange [0:27.635]
set xzeroaxis lt -1
set terminal png size 800,600
set output 'mp-555760_dos_gnuplot.png'
plot '-' using 1:2 with lines title 'DOS'
-16.934200 0.000000
-16.917600 0.000000
-16.901000 0.000000
-16.884400 0.000000
-16.867900 0.000000
-16.851300 0.000000
-16.834700 0.000000
-16.818100 0.000000
-16.801600 0.000000
-16.785000 0.000000
-16.768400 0.000000
-16.751800 0.000000
-16.735200 0.000000
-16.718700 0.000000
-16.702100 0.000000
-16.685500 0.000000
-16.668900 0.000000
-16.652400 0.000000
-16.635800 0.000000
-16.619200 0.000000
-16.602600 0.000000
-16.586100 0.000000
-16.569500 0.000000
-16.552900 0.000000
-16.536300 0.000000
-16.519800 0.000000
-16.503200 0.000000
-16.486600 0.000000
-16.470000 0.000000
-16.453500 0.000000
-16.436900 0.000000
-16.420300 0.000000
-16.403700 0.000000
-16.387200 0.000000
-16.370600 0.000000
-16.354000 0.000000
-16.337400 0.000000
-16.320900 0.000000
-16.304300 0.000000
-16.287700 0.000000
-16.271100 0.000000
-16.254500 0.000000
-16.238000 0.000000
-16.221400 0.000000
-16.204800 0.000000
-16.188200 0.000000
-16.171700 0.000000
-16.155100 0.000000
-16.138500 0.000000
-16.121900 0.000000
-16.105400 0.000000
-16.088800 0.000000
-16.072200 0.000000
-16.055600 0.000000
-16.039100 0.000000
-16.022500 0.000000
-16.005900 0.000000
-15.989300 0.000000
-15.972800 0.000000
-15.956200 0.000000
-15.939600 0.000000
-15.923000 0.000000
-15.906500 0.000000
-15.889900 0.000000
-15.873300 0.000000
-15.856700 0.000000
-15.840200 0.000000
-15.823600 0.000000
-15.807000 0.000000
-15.790400 0.000000
-15.773900 0.000000
-15.757300 0.000000
-15.740700 0.000000
-15.724100 0.000000
-15.707500 0.000000
-15.691000 0.000000
-15.674400 0.000000
-15.657800 0.000000
-15.641200 0.000000
-15.624700 0.000000
-15.608100 0.000000
-15.591500 0.000000
-15.574900 0.000000
-15.558400 0.000000
-15.541800 0.000000
-15.525200 0.000000
-15.508600 0.000000
-15.492100 0.000000
-15.475500 0.000000
-15.458900 0.000000
-15.442300 0.000000
-15.425800 0.006400
-15.409200 0.927400
-15.392600 3.943100
-15.376000 4.094600
-15.359500 4.094700
-15.342900 9.474000
-15.326300 12.316600
-15.309700 12.316700
-15.293200 12.316800
-15.276600 12.317000
-15.260000 12.289100
-15.243400 11.494500
-15.226800 9.606800
-15.210300 9.606000
-15.193700 9.606200
-15.177100 5.337600
-15.160500 4.163400
-15.144000 4.163400
-15.127400 4.163400
-15.110800 4.163400
-15.094200 4.163400
-15.077700 4.163400
-15.061100 4.163500
-15.044500 4.163500
-15.027900 4.163500
-15.011400 4.163500
-14.994800 4.163500
-14.978200 4.163500
-14.961600 4.163500
-14.945100 4.163500
-14.928500 4.163500
-14.911900 4.163500
-14.895300 4.163500
-14.878800 4.163500
-14.862200 4.163500
-14.845600 4.163500
-14.829000 4.163600
-14.812500 4.163600
-14.795900 4.163600
-14.779300 4.163500
-14.762700 4.026900
-14.746100 3.639000
-14.729600 3.639000
-14.713000 3.639000
-14.696400 2.822400
-14.679800 2.651200
-14.663300 2.651200
-14.646700 2.651200
-14.630100 2.651200
-14.613500 2.651200
-14.597000 2.651200
-14.580400 2.651200
-14.563800 2.651200
-14.547200 2.651200
-14.530700 2.651200
-14.514100 2.651200
-14.497500 2.651200
-14.480900 2.651200
-14.464400 2.651200
-14.447800 2.651200
-14.431200 2.651200
-14.414600 2.651200
-14.398100 2.651200
-14.381500 2.651200
-14.364900 2.651200
-14.348300 2.651200
-14.331800 2.651200
-14.315200 2.651200
-14.298600 2.651200
-14.282000 2.651200
-14.265500 2.651200
-14.248900 2.651200
-14.232300 2.651200
-14.215700 2.651300
-14.199100 2.651300
-14.182600 2.651300
-14.166000 2.651300
-14.149400 2.651300
-14.132800 2.651300
-14.116300 2.651300
-14.099700 2.651300
-14.083100 2.651300
-14.066500 2.651300
-14.050000 2.651300
-14.033400 2.651300
-14.016800 2.651300
-14.000200 2.651300
-13.983700 2.033900
-13.967100 0.877600
-13.950500 0.877600
-13.933900 0.055100
-13.917400 1.848300
-13.900800 1.987000
-13.884200 1.987000
-13.867600 1.987000
-13.851100 1.987000
-13.834500 1.987000
-13.817900 1.987000
-13.801300 1.987000
-13.784800 1.987000
-13.768200 1.987000
-13.751600 1.987000
-13.735000 1.987000
-13.718400 1.987000
-13.701900 1.987000
-13.685300 1.987000
-13.668700 1.987000
-13.652100 1.987000
-13.635600 1.987000
-13.619000 1.987000
-13.602400 1.987000
-13.585800 1.987000
-13.569300 1.987000
-13.552700 1.987000
-13.536100 1.987000
-13.519500 1.987000
-13.503000 1.987000
-13.486400 1.987000
-13.469800 1.987000
-13.453200 1.987000
-13.436700 1.987000
-13.420100 1.987000
-13.403500 1.987000
-13.386900 1.987000
-13.370400 1.987000
-13.353800 1.987000
-13.337200 1.987000
-13.320600 1.987000
-13.304100 1.987000
-13.287500 1.987000
-13.270900 1.987000
-13.254300 1.987000
-13.237700 1.987000
-13.221200 1.987000
-13.204600 1.987000
-13.188000 1.987000
-13.171400 1.987000
-13.154900 1.987000
-13.138300 1.987000
-13.121700 1.987000
-13.105100 1.987000
-13.088600 1.987000
-13.072000 1.987000
-13.055400 1.987000
-13.038800 1.987000
-13.022300 1.987000
-13.005700 1.987000
-12.989100 1.987000
-12.972500 1.987000
-12.956000 1.982800
-12.939400 1.862700
-12.922800 1.862700
-12.906200 1.765100
-12.889700 1.660700
-12.873100 1.660000
-12.856500 1.660000
-12.839900 1.660000
-12.823400 1.660000
-12.806800 1.660000
-12.790200 1.660000
-12.773600 1.660000
-12.757100 1.660000
-12.740500 1.660000
-12.723900 1.660000
-12.707300 1.660000
-12.690700 1.660000
-12.674200 1.660000
-12.657600 1.660000
-12.641000 1.660000
-12.624400 1.660000
-12.607900 1.660000
-12.591300 1.660000
-12.574700 1.660000
-12.558100 1.660000
-12.541600 1.660000
-12.525000 1.660000
-12.508400 1.660000
-12.491800 1.660000
-12.475300 1.660000
-12.458700 1.660000
-12.442100 1.660000
-12.425500 1.660000
-12.409000 1.660000
-12.392400 1.660000
-12.375800 1.660000
-12.359200 1.660000
-12.342700 1.660000
-12.326100 1.660000
-12.309500 1.660000
-12.292900 1.660000
-12.276400 1.660000
-12.259800 1.660000
-12.243200 1.660000
-12.226600 1.660000
-12.210000 1.660000
-12.193500 1.660000
-12.176900 1.660000
-12.160300 1.660000
-12.143700 1.660000
-12.127200 1.660000
-12.110600 1.660000
-12.094000 1.660000
-12.077400 1.660000
-12.060900 1.660000
-12.044300 1.660000
-12.027700 1.660000
-12.011100 1.660000
-11.994600 1.660000
-11.978000 1.660000
-11.961400 1.660000
-11.944800 1.660000
-11.928300 1.660000
-11.911700 1.660000
-11.895100 1.660000
-11.878500 1.660000
-11.862000 1.660000
-11.845400 1.660000
-11.828800 1.660000
-11.812200 1.660000
-11.795700 1.660000
-11.779100 1.660000
-11.762500 1.660000
-11.745900 1.652500
-11.729300 1.650900
-11.712800 1.650900
-11.696200 1.654600
-11.679600 1.633800
-11.663000 1.633800
-11.646500 1.633800
-11.629900 1.633800
-11.613300 1.633800
-11.596700 1.633700
-11.580200 1.633700
-11.563600 1.633700
-11.547000 1.633700
-11.530400 1.633700
-11.513900 1.633700
-11.497300 1.633700
-11.480700 1.633700
-11.464100 1.633700
-11.447600 1.633700
-11.431000 1.633700
-11.414400 1.633700
-11.397800 1.633700
-11.381300 1.633700
-11.364700 1.633700
-11.348100 1.633700
-11.331500 1.633700
-11.315000 1.633700
-11.298400 1.633700
-11.281800 1.633700
-11.265200 1.633700
-11.248600 1.633700
-11.232100 1.633700
-11.215500 1.633700
-11.198900 1.633700
-11.182300 1.633700
-11.165800 1.633700
-11.149200 1.633600
-11.132600 1.633600
-11.116000 1.633600
-11.099500 1.633600
-11.082900 1.633600
-11.066300 1.633600
-11.049700 1.633600
-11.033200 1.633600
-11.016600 1.633600
-11.000000 1.633600
-10.983400 1.633600
-10.966900 1.633600
-10.950300 1.633600
-10.933700 1.633600
-10.917100 1.633600
-10.900600 1.633600
-10.884000 1.633600
-10.867400 1.633600
-10.850800 1.633600
-10.834300 1.633600
-10.817700 1.633600
-10.801100 1.633600
-10.784500 1.633600
-10.768000 1.633600
-10.751400 1.633600
-10.734800 1.633600
-10.718200 1.633600
-10.701600 1.633600
-10.685100 1.633600
-10.668500 1.633600
-10.651900 1.633600
-10.635300 1.633600
-10.618800 1.633600
-10.602200 1.633600
-10.585600 1.633600
-10.569000 1.633600
-10.552500 1.633600
-10.535900 1.633600
-10.519300 1.176800
-10.502700 0.530800
-10.486200 0.530800
-10.469600 0.530800
-10.453000 0.499700
-10.436400 0.339400
-10.419900 0.108400
-10.403300 0.464900
-10.386700 1.146400
-10.370100 1.725200
-10.353600 1.725200
-10.337000 1.725200
-10.320400 1.725200
-10.303800 1.725200
-10.287300 1.725200
-10.270700 1.725200
-10.254100 1.725200
-10.237500 1.725200
-10.220900 1.725100
-10.204400 1.725100
-10.187800 1.725100
-10.171200 1.725100
-10.154600 1.725100
-10.138100 1.725100
-10.121500 1.725100
-10.104900 1.725100
-10.088300 1.725100
-10.071800 1.725100
-10.055200 1.725100
-10.038600 1.725000
-10.022000 1.725000
-10.005500 1.725000
-9.988900 1.725000
-9.972300 1.725000
-9.955700 1.725000
-9.939200 1.725000
-9.922600 1.725000
-9.906000 1.725000
-9.889400 1.725000
-9.872900 1.725000
-9.856300 1.725000
-9.839700 1.725000
-9.823100 1.725000
-9.806600 1.724900
-9.790000 1.724900
-9.773400 1.724900
-9.756800 1.724900
-9.740200 1.724900
-9.723700 1.724900
-9.707100 1.724900
-9.690500 1.724900
-9.673900 1.724900
-9.657400 1.724900
-9.640800 1.724900
-9.624200 1.724900
-9.607600 1.724900
-9.591100 1.724900
-9.574500 1.724900
-9.557900 1.724900
-9.541300 1.724900
-9.524800 1.724900
-9.508200 1.724900
-9.491600 1.724900
-9.475000 1.724900
-9.458500 1.724900
-9.441900 1.724900
-9.425300 1.724900
-9.408700 1.724900
-9.392200 1.724900
-9.375600 1.724900
-9.359000 1.724900
-9.342400 1.724900
-9.325900 1.728100
-9.309300 1.741400
-9.292700 1.772700
-9.276100 1.783900
-9.259600 1.783900
-9.243000 1.796900
-9.226400 1.854100
-9.209800 1.870200
-9.193200 1.881300
-9.176700 1.905600
-9.160100 1.938200
-9.143500 1.955800
-9.126900 1.965800
-9.110400 1.968200
-9.093800 1.968200
-9.077200 1.968200
-9.060600 1.968200
-9.044100 1.968200
-9.027500 1.968200
-9.010900 1.968100
-8.994300 1.968100
-8.977800 1.968100
-8.961200 1.968100
-8.944600 1.968100
-8.928000 1.968100
-8.911500 1.968100
-8.894900 1.968100
-8.878300 1.968100
-8.861700 1.968100
-8.845200 1.968100
-8.828600 1.968100
-8.812000 1.968100
-8.795400 1.968100
-8.778900 1.968100
-8.762300 1.968100
-8.745700 1.968100
-8.729100 1.968100
-8.712500 1.968100
-8.696000 1.968100
-8.679400 1.968000
-8.662800 1.968000
-8.646200 1.968000
-8.629700 1.968000
-8.613100 1.968000
-8.596500 1.968000
-8.579900 1.968000
-8.563400 1.968000
-8.546800 1.968000
-8.530200 1.968000
-8.513600 1.968000
-8.497100 1.968000
-8.480500 1.968000
-8.463900 1.968000
-8.447300 1.968000
-8.430800 1.968000
-8.414200 1.968000
-8.397600 1.968000
-8.381000 1.968000
-8.364500 1.968000
-8.347900 1.967900
-8.331300 1.967900
-8.314700 2.017600
-8.298200 2.197100
-8.281600 2.516100
-8.265000 2.598800
-8.248400 2.599800
-8.231800 2.723000
-8.215300 3.086000
-8.198700 3.266400
-8.182100 3.293200
-8.165500 3.389200
-8.149000 3.556500
-8.132400 3.784700
-8.115800 3.915800
-8.099200 4.003200
-8.082700 4.047000
-8.066100 4.052600
-8.049500 4.052900
-8.032900 4.053100
-8.016400 4.053400
-7.999800 4.053700
-7.983200 4.054000
-7.966600 4.054200
-7.950100 4.054500
-7.933500 4.054900
-7.916900 4.055200
-7.900300 4.055500
-7.883800 4.055900
-7.867200 4.056200
-7.850600 4.056600
-7.834000 4.057000
-7.817500 4.057300
-7.800900 4.057700
-7.784300 3.979300
-7.767700 2.764800
-7.751200 2.765100
-7.734600 2.765500
-7.718000 1.927200
-7.701400 1.447600
-7.684800 1.191100
-7.668300 0.289700
-7.651700 0.000000
-7.635100 0.000000
-7.618500 0.000000
-7.602000 0.000000
-7.585400 0.000000
-7.568800 0.000000
-7.552200 0.000000
-7.535700 0.000000
-7.519100 0.000000
-7.502500 0.000000
-7.485900 0.000000
-7.469400 0.000000
-7.452800 0.000000
-7.436200 0.000000
-7.419600 0.000000
-7.403100 0.000000
-7.386500 0.000000
-7.369900 0.000000
-7.353300 0.000000
-7.336800 0.000000
-7.320200 0.000000
-7.303600 0.000000
-7.287000 0.000000
-7.270500 0.000000
-7.253900 0.000000
-7.237300 0.000000
-7.220700 0.000000
-7.204100 0.000000
-7.187600 0.000000
-7.171000 0.000000
-7.154400 0.000000
-7.137800 0.000000
-7.121300 0.000000
-7.104700 0.000000
-7.088100 0.000000
-7.071500 0.000000
-7.055000 0.000000
-7.038400 0.000000
-7.021800 0.000000
-7.005200 0.000000
-6.988700 0.000000
-6.972100 0.000000
-6.955500 0.000000
-6.938900 0.000000
-6.922400 0.000000
-6.905800 0.000000
-6.889200 0.000000
-6.872600 0.000000
-6.856100 0.000000
-6.839500 0.000000
-6.822900 0.000000
-6.806300 0.000000
-6.789800 0.000000
-6.773200 0.000000
-6.756600 0.000000
-6.740000 0.000000
-6.723400 0.000000
-6.706900 0.000000
-6.690300 0.000000
-6.673700 0.000000
-6.657100 0.000000
-6.640600 0.000000
-6.624000 0.000000
-6.607400 0.000000
-6.590800 0.000000
-6.574300 0.000000
-6.557700 0.000000
-6.541100 0.000000
-6.524500 0.000000
-6.508000 0.000000
-6.491400 0.000000
-6.474800 0.000000
-6.458200 0.000000
-6.441700 0.000000
-6.425100 0.000000
-6.408500 0.000000
-6.391900 0.000000
-6.375400 0.000000
-6.358800 0.000000
-6.342200 0.000000
-6.325600 0.000000
-6.309100 0.000000
-6.292500 0.000000
-6.275900 0.000000
-6.259300 0.000000
-6.242800 0.000000
-6.226200 0.000000
-6.209600 0.000000
-6.193000 0.000000
-6.176400 0.000000
-6.159900 0.000000
-6.143300 0.000000
-6.126700 0.000000
-6.110100 0.000000
-6.093600 0.000000
-6.077000 0.000000
-6.060400 0.000000
-6.043800 0.000000
-6.027300 0.000000
-6.010700 0.000000
-5.994100 0.000000
-5.977500 0.000000
-5.961000 0.000000
-5.944400 0.000000
-5.927800 0.000000
-5.911200 0.000000
-5.894700 0.000000
-5.878100 0.000000
-5.861500 0.000000
-5.844900 0.000000
-5.828400 0.000000
-5.811800 0.000000
-5.795200 0.000000
-5.778600 0.000000
-5.762100 0.000000
-5.745500 0.000000
-5.728900 0.000000
-5.712300 0.000000
-5.695700 0.000000
-5.679200 0.000000
-5.662600 0.000000
-5.646000 0.000000
-5.629400 0.000000
-5.612900 0.000000
-5.596300 0.000000
-5.579700 0.000000
-5.563100 0.000000
-5.546600 0.000000
-5.530000 0.000000
-5.513400 0.000000
-5.496800 0.000000
-5.480300 0.000000
-5.463700 0.000000
-5.447100 0.000000
-5.430500 0.000000
-5.414000 0.153900
-5.397400 1.573800
-5.380800 2.326300
-5.364200 2.942500
-5.347700 3.060300
-5.331100 3.189000
-5.314500 3.502600
-5.297900 4.001100
-5.281400 4.306900
-5.264800 4.462800
-5.248200 4.487700
-5.231600 4.487400
-5.215000 4.487100
-5.198500 4.486800
-5.181900 4.486600
-5.165300 4.486300
-5.148700 4.486100
-5.132200 4.485900
-5.115600 4.485700
-5.099000 4.485600
-5.082400 4.485500
-5.065900 4.485400
-5.049300 4.485300
-5.032700 4.485200
-5.016100 4.485200
-4.999600 4.472100
-4.983000 4.249200
-4.966400 3.972900
-4.949800 3.892300
-4.933300 3.741700
-4.916700 3.521100
-4.900100 3.454900
-4.883500 3.439900
-4.867000 3.396800
-4.850400 3.325500
-4.833800 3.226000
-4.817200 3.165700
-4.800700 3.133300
-4.784100 3.112800
-4.767500 3.104200
-4.750900 3.104000
-4.734300 3.104000
-4.717800 3.104100
-4.701200 3.104200
-4.684600 3.104300
-4.668000 3.104300
-4.651500 3.104400
-4.634900 3.104500
-4.618300 3.104600
-4.601700 3.104700
-4.585200 3.104800
-4.568600 3.104900
-4.552000 3.105000
-4.535400 3.105100
-4.518900 3.105200
-4.502300 3.105300
-4.485700 3.105500
-4.469100 3.105600
-4.452600 3.105700
-4.436000 3.105900
-4.419400 3.106000
-4.402800 3.106100
-4.386300 3.106300
-4.369700 3.106500
-4.353100 3.106600
-4.336500 3.608900
-4.320000 5.389300
-4.303400 7.786600
-4.286800 8.701600
-4.270200 14.173800
-4.253700 14.250400
-4.237100 14.393700
-4.220500 13.412600
-4.203900 13.070900
-4.187300 13.282600
-4.170800 10.209300
-4.154200 10.772400
-4.137600 14.034800
-4.121000 16.581600
-4.104500 18.797400
-4.087900 19.246600
-4.071300 16.905500
-4.054700 15.296000
-4.038200 14.428400
-4.021600 13.688700
-4.005000 12.996800
-3.988400 12.364500
-3.971900 11.554800
-3.955300 10.844700
-3.938700 11.034200
-3.922100 11.829500
-3.905600 12.758600
-3.889000 13.639300
-3.872400 12.153400
-3.855800 12.343000
-3.839300 11.932800
-3.822700 10.915900
-3.806100 9.292400
-3.789500 7.964500
-3.773000 6.513600
-3.756400 5.863500
-3.739800 5.800500
-3.723200 5.770100
-3.706600 5.735000
-3.690100 5.639100
-3.673500 5.472200
-3.656900 5.234300
-3.640300 4.911300
-3.623800 4.497300
-3.607200 4.115100
-3.590600 3.559700
-3.574000 2.957600
-3.557500 2.685600
-3.540900 2.770200
-3.524300 2.765300
-3.507700 1.823000
-3.491200 1.019900
-3.474600 0.673400
-3.458000 1.067900
-3.441400 1.169700
-3.424900 1.169600
-3.408300 1.198100
-3.391700 1.305900
-3.375100 1.493800
-3.358600 1.762000
-3.342000 2.110300
-3.325400 2.445300
-3.308800 2.703700
-3.292300 2.961200
-3.275700 3.145500
-3.259100 3.298400
-3.242500 3.419900
-3.225900 3.509900
-3.209400 3.568500
-3.192800 3.595700
-3.176200 3.598000
-3.159600 3.598400
-3.143100 3.598900
-3.126500 3.599400
-3.109900 3.600100
-3.093300 3.600800
-3.076800 3.601700
-3.060200 3.602600
-3.043600 3.603500
-3.027000 3.604600
-3.010500 3.605800
-2.993900 3.607000
-2.977300 3.608300
-2.960700 3.614100
-2.944200 3.630300
-2.927600 3.657000
-2.911000 3.694000
-2.894400 3.729200
-2.877900 3.754800
-2.861300 3.770700
-2.844700 3.776700
-2.828100 3.777600
-2.811600 3.757600
-2.795000 3.655100
-2.778400 3.630100
-2.761800 3.618700
-2.745300 3.594800
-2.728700 3.530600
-2.712100 3.509700
-2.695500 3.508200
-2.678900 3.506700
-2.662400 3.505200
-2.645800 3.503800
-2.629200 3.502500
-2.612600 3.501100
-2.596100 3.499900
-2.579500 3.498600
-2.562900 3.497500
-2.546300 3.514500
-2.529800 3.601400
-2.513200 3.761500
-2.496600 3.990000
-2.480000 4.216300
-2.463500 4.417100
-2.446900 4.592200
-2.430300 4.741800
-2.413700 4.868300
-2.397200 5.259700
-2.380600 5.692000
-2.364000 5.992800
-2.347400 6.162100
-2.330900 6.199900
-2.314300 6.106200
-2.297700 5.330700
-2.281100 4.670100
-2.264600 4.153400
-2.248000 3.741200
-2.231400 3.596200
-2.214800 3.829000
-2.198200 4.204700
-2.181700 4.640100
-2.165100 5.134900
-2.148500 5.653000
-2.131900 6.130900
-2.115400 6.425100
-2.098800 6.499800
-2.082200 6.602700
-2.065600 6.605900
-2.049100 6.367600
-2.032500 5.887900
-2.015900 5.166700
-1.999300 4.204600
-1.982800 3.205400
-1.966200 2.530000
-1.949600 1.760300
-1.933000 1.369400
-1.916500 1.089800
-1.899900 0.842200
-1.883300 0.626400
-1.866700 0.442500
-1.850200 0.290400
-1.833600 0.170300
-1.817000 0.082000
-1.800400 0.025600
-1.783900 0.001100
-1.767300 0.000000
-1.750700 0.000000
-1.734100 0.000000
-1.717500 5.946100
-1.701000 5.910400
-1.684400 5.962000
-1.667800 6.121700
-1.651200 6.530900
-1.634700 7.831600
-1.618100 10.186100
-1.601500 11.659000
-1.584900 12.364100
-1.568400 11.557500
-1.551800 10.133200
-1.535200 6.759300
-1.518600 5.047600
-1.502100 5.096500
-1.485500 5.135800
-1.468900 5.082600
-1.452300 5.190600
-1.435800 5.144300
-1.419200 4.898100
-1.402600 4.452000
-1.386000 4.296000
-1.369500 5.281500
-1.352900 5.708800
-1.336300 6.774600
-1.319700 6.701500
-1.303200 6.651000
-1.286600 6.622900
-1.270000 6.616600
-1.253400 6.616800
-1.236900 6.617000
-1.220300 6.617300
-1.203700 6.617600
-1.187100 6.618000
-1.170500 6.618400
-1.154000 6.618900
-1.137400 6.619400
-1.120800 6.620000
-1.104200 6.620100
-1.087700 6.614600
-1.071100 6.602100
-1.054500 6.582700
-1.037900 6.556400
-1.021400 6.523100
-1.004800 6.377400
-0.988200 6.138800
-0.971600 5.817500
-0.955100 5.656400
-0.938500 5.560100
-0.921900 5.528700
-0.905300 5.528800
-0.888800 5.524200
-0.872200 5.476700
-0.855600 5.378100
-0.839000 5.251100
-0.822500 5.215000
-0.805900 5.188700
-0.789300 5.172200
-0.772700 5.165600
-0.756200 5.165500
-0.739600 5.165700
-0.723000 5.165800
-0.706400 5.165900
-0.689800 5.166100
-0.673300 5.189100
-0.656700 5.392200
-0.640100 5.571900
-0.623500 5.666900
-0.607000 5.994600
-0.590400 5.994200
-0.573800 5.993700
-0.557200 5.993400
-0.540700 6.022300
-0.524100 6.105200
-0.507500 6.240500
-0.490900 6.324600
-0.474400 6.370800
-0.457800 6.404800
-0.441200 6.426700
-0.424600 6.436500
-0.408100 6.437000
-0.391500 6.436900
-0.374900 6.621800
-0.358300 6.790200
-0.341800 6.789300
-0.325200 6.788400
-0.308600 6.787600
-0.292000 7.224900
-0.275500 7.256300
-0.258900 7.255300
-0.242300 7.254300
-0.225700 7.253400
-0.209100 7.252600
-0.192600 7.286000
-0.176000 7.450700
-0.159400 7.752600
-0.142800 7.903400
-0.126300 7.977100
-0.109700 8.033900
-0.093100 7.804100
-0.076500 7.498800
-0.060000 7.263400
-0.043400 7.031200
-0.026800 6.813400
-0.010200 6.467600
0.006300 5.987100
0.022900 5.958500
0.039500 5.865100
0.056100 5.567400
0.072600 5.125300
0.089200 5.036600
0.105800 5.006900
0.122400 4.765100
0.138900 4.710100
0.155500 3.923200
0.172100 3.946500
0.188700 4.542300
0.205200 5.974800
0.221800 7.277300
0.238400 9.427300
0.255000 14.603000
0.271600 20.618900
0.288100 25.008900
0.304700 13.249400
0.321300 6.264700
0.337900 9.283300
0.354400 17.513700
0.371000 15.617200
0.387600 10.400900
0.404200 11.307200
0.420700 17.542200
0.437300 23.101000
0.453900 25.122900
0.470500 22.277400
0.487000 14.852300
0.503600 14.618300
0.520200 12.155500
0.536800 11.236100
0.553300 10.420200
0.569900 9.361200
0.586500 7.931300
0.603100 6.129100
0.619600 4.088800
0.636200 2.499400
0.652800 1.429800
0.669400 0.677200
0.685900 0.202600
0.702500 0.006000
0.719100 0.000000
0.735700 0.000000
0.752200 0.000000
0.768800 0.000000
0.785400 0.000000
0.802000 0.000000
0.818600 0.000000
0.835100 0.000000
0.851700 0.000000
0.868300 0.000000
0.884900 0.000000
0.901400 0.000000
0.918000 0.000000
0.934600 0.000000
0.951200 0.000000
0.967700 0.000000
0.984300 0.000000
1.000900 0.000000
1.017500 0.000000
1.034000 0.000000
1.050600 0.000000
1.067200 0.000000
1.083800 0.000000
1.100300 0.000000
1.116900 0.000000
1.133500 0.000000
1.150100 0.000000
1.166600 0.000000
1.183200 0.000000
1.199800 0.000000
1.216400 0.000000
1.232900 0.000000
1.249500 0.000000
1.266100 0.000000
1.282700 0.000000
1.299300 0.000000
1.315800 0.000000
1.332400 0.000000
1.349000 0.000000
1.365600 0.000000
1.382100 0.000000
1.398700 0.000000
1.415300 0.000000
1.431900 0.000000
1.448400 0.000000
1.465000 0.000000
1.481600 0.000000
1.498200 0.000000
1.514700 0.000000
1.531300 0.000000
1.547900 0.000000
1.564500 0.000000
1.581000 0.000000
1.597600 0.000000
1.614200 0.000000
1.630800 0.000000
1.647300 0.000000
1.663900 0.000000
1.680500 0.000000
1.697100 0.000000
1.713600 0.000000
1.730200 0.000000
1.746800 0.000000
1.763400 0.000000
1.780000 0.000000
1.796500 0.000000
1.813100 0.000000
1.829700 0.000000
1.846300 0.000000
1.862800 0.000000
1.879400 0.000000
1.896000 0.000000
1.912600 0.000000
1.929100 0.000000
1.945700 0.000000
1.962300 0.000000
1.978900 0.000000
1.995400 0.000000
2.012000 0.000000
2.028600 0.000000
2.045200 0.000000
2.061700 0.000000
2.078300 0.000000
2.094900 0.000000
2.111500 0.000000
2.128000 0.000000
2.144600 0.000000
2.161200 0.000000
2.177800 0.000000
2.194300 0.000000
2.210900 0.000000
2.227500 0.000000
2.244100 0.000000
2.260600 0.000000
2.277200 0.000000
2.293800 0.000000
2.310400 0.000000
2.327000 0.000000
2.343500 0.000000
2.360100 0.000000
2.376700 0.000000
2.393300 0.000000
2.409800 0.000000
2.426400 0.000000
2.443000 0.000000
2.459600 0.000000
2.476100 0.000000
2.492700 0.000000
2.509300 0.000000
2.525900 0.000000
2.542400 0.000000
2.559000 0.000000
2.575600 0.000000
2.592200 0.000000
2.608700 0.000000
2.625300 0.000000
2.641900 0.000000
2.658500 0.000000
2.675000 0.000000
2.691600 0.000000
2.708200 0.000000
2.724800 0.000000
2.741300 0.000000
2.757900 0.000000
2.774500 0.000000
2.791100 0.000000
2.807700 0.000000
2.824200 0.000000
2.840800 0.000000
2.857400 0.000000
2.874000 0.000000
2.890500 0.000000
2.907100 0.000000
2.923700 0.000000
2.940300 0.000000
2.956800 0.000000
2.973400 0.000000
2.990000 0.000000
3.006600 0.000000
3.023100 0.106200
3.039700 1.303900
3.056300 2.106200
3.072900 2.513000
3.089400 2.624300
3.106000 2.753500
3.122600 3.642300
3.139200 4.751200
3.155700 4.731700
3.172300 5.047600
3.188900 5.859300
3.205500 6.220200
3.222000 6.237600
3.238600 6.153100
3.255200 6.040900
3.271800 5.921000
3.288400 5.809800
3.304900 5.707300
3.321500 5.613400
3.338100 5.530000
3.354700 5.462900
3.371200 5.412600
3.387800 5.354400
3.404400 5.268200
3.421000 5.153800
3.437500 5.001000
3.454100 4.814500
3.470700 4.728700
3.487300 4.743300
3.503800 4.774700
3.520400 4.821900
3.537000 4.885000
3.553600 4.963800
3.570100 5.058600
3.586700 5.169100
3.603300 5.294300
3.619900 5.428500
3.636400 5.570900
3.653000 5.726800
3.669600 5.926000
3.686200 6.841500
3.702700 7.711700
3.719300 8.295000
3.735900 8.557200
3.752500 8.768500
3.769000 8.948800
3.785600 9.098200
3.802200 9.220000
3.818800 9.319900
3.835400 9.404200
3.851900 9.649500
3.868500 10.027500
3.885100 10.303800
3.901700 10.483500
3.918200 10.534000
3.934800 10.514100
3.951400 10.523100
3.968000 10.528000
3.984500 10.481400
4.001100 9.950000
4.017700 9.621600
4.034300 9.349000
4.050800 9.059500
4.067400 8.291600
4.084000 7.328400
4.100600 6.889600
4.117100 6.569400
4.133700 7.023800
4.150300 7.647200
4.166900 8.335300
4.183400 8.928400
4.200000 9.496000
4.216600 9.725700
4.233200 10.057300
4.249700 10.511700
4.266300 11.118700
4.282900 11.360100
4.299500 11.445000
4.316100 11.489700
4.332600 11.522000
4.349200 11.424900
4.365800 11.293200
4.382400 11.250800
4.398900 11.278700
4.415500 11.373800
4.432100 11.401000
4.448700 11.685000
4.465200 11.937300
4.481800 12.175900
4.498400 12.574700
4.515000 13.277800
4.531500 13.968800
4.548100 14.530400
4.564700 13.436900
4.581300 14.380100
4.597800 15.483900
4.614400 17.255200
4.631000 11.035500
4.647600 11.507100
4.664100 13.802700
4.680700 16.734800
4.697300 17.355300
4.713900 15.053400
4.730400 9.803300
4.747000 6.053800
4.763600 6.074000
4.780200 6.112600
4.796800 6.476900
4.813300 7.275600
4.829900 8.524000
4.846500 9.790500
4.863100 11.011800
4.879600 11.992700
4.896200 12.117100
4.912800 11.415200
4.929400 10.135300
4.945900 10.003500
4.962500 9.577400
4.979100 8.970000
4.995700 8.440400
5.012200 7.983900
5.028800 7.588900
5.045400 7.224200
5.062000 6.933900
5.078500 6.583900
5.095100 3.574000
5.111700 3.574800
5.128300 3.575700
5.144800 3.576700
5.161400 3.577800
5.178000 3.579000
5.194600 3.507200
5.211100 0.000000
5.227700 0.000000
5.244300 0.000000
5.260900 0.000000
5.277400 0.000000
5.294000 0.000000
5.310600 0.000000
5.327200 0.000000
5.343800 0.000000
5.360300 0.000000
5.376900 0.000000
5.393500 0.000000
5.410100 0.000000
5.426600 0.000000
5.443200 0.000000
5.459800 0.000000
5.476400 0.000000
5.492900 0.000000
5.509500 0.000000
5.526100 0.000000
5.542700 0.000000
5.559200 0.000000
5.575800 0.000000
5.592400 0.000000
5.609000 0.000000
5.625500 0.000000
5.642100 0.000000
5.658700 0.000000
5.675300 0.000000
5.691800 0.000000
5.708400 0.000000
5.725000 0.000000
5.741600 0.000000
5.758100 0.000000
5.774700 0.000000
5.791300 0.000000
5.807900 0.000000
5.824500 0.000000
5.841000 0.000000
5.857600 0.000000
5.874200 0.000000
5.890800 0.000000
5.907300 0.000000
5.923900 0.000000
5.940500 0.000000
5.957100 0.000000
5.973600 0.000000
5.990200 0.000000
6.006800 0.000000
6.023400 0.000000
6.039900 0.000000
6.056500 0.000000
6.073100 0.000000
6.089700 0.000000
6.106200 0.000000
6.122800 0.000000
6.139400 0.000000
6.156000 0.000000
6.172500 0.000000
6.189100 0.000000
6.205700 0.000000
6.222300 0.000000
6.238800 0.000000
6.255400 0.000000
6.272000 0.000000
6.288600 0.000000
6.305200 0.000000
6.321700 0.000000
6.338300 0.000000
6.354900 0.000000
6.371500 0.000000
6.388000 0.000000
6.404600 0.000000
6.421200 0.000000
6.437800 0.000000
6.454300 0.000000
6.470900 0.000000
6.487500 0.000000
6.504100 0.000000
6.520600 0.000000
6.537200 0.000000
6.553800 0.000000
6.570400 0.000000
6.586900 0.002000
6.603500 0.015500
6.620100 0.041600
6.636700 0.080300
6.653200 0.131700
6.669800 0.195700
6.686400 0.272300
6.703000 0.361600
6.719500 0.457500
6.736100 0.547800
6.752700 0.632700
6.769300 0.712000
6.785900 0.785700
6.802400 0.854000
6.819000 0.916800
6.835600 0.974000
6.852200 1.025800
6.868700 1.072000
6.885300 1.112700
6.901900 1.147900
6.918500 1.177600
6.935000 1.201800
6.951600 1.220500
6.968200 1.233600
6.984800 1.241300
7.001300 1.243400
7.017900 1.243200
7.034500 1.243100
7.051100 1.243100
7.067600 1.243200
7.084200 1.243300
7.100800 1.243500
7.117400 1.243800
7.133900 1.244200
7.150500 1.244600
7.167100 1.245100
7.183700 1.251800
7.200200 1.278600
7.216800 1.318000
7.233400 1.372800
7.250000 1.461700
7.266500 1.584500
7.283100 1.738600
7.299700 1.924100
7.316300 2.140700
7.332900 2.388700
7.349400 2.638200
7.366000 2.836000
7.382600 3.021600
7.399200 3.194800
7.415700 3.356700
7.432300 3.510400
7.448900 3.656300
7.465500 3.794400
7.482000 3.924700
7.498600 4.047300
7.515200 4.162000
7.531800 4.268900
7.548300 4.352600
7.564900 4.387800
7.581500 4.885200
7.598100 4.800800
7.614600 4.906900
7.631200 5.083500
7.647800 4.900500
7.664400 4.791500
7.680900 4.756500
7.697500 4.836500
7.714100 5.003700
7.730700 5.175300
7.747200 5.347700
7.763800 5.511600
7.780400 5.666900
7.797000 5.888200
7.813600 6.172100
7.830100 6.419400
7.846700 6.647900
7.863300 6.861000
7.879900 7.058900
7.896400 7.241500
7.913000 7.412500
7.929600 7.579700
7.946200 8.896500
7.962700 8.931900
7.979300 8.983100
7.995900 9.049900
8.012500 9.395600
8.029000 10.538900
8.045600 11.234800
8.062200 11.476700
8.078800 11.298400
8.095300 11.250700
8.111900 11.658600
8.128500 12.764200
8.145100 14.204500
8.161600 14.585500
8.178200 14.680700
8.194800 14.514700
8.211400 14.400600
8.227900 14.321800
8.244500 14.465100
8.261100 15.304400
8.277700 17.193300
8.294300 18.236600
8.310800 19.252800
8.327400 19.268800
8.344000 19.734600
8.360600 19.146200
8.377100 17.701600
8.393700 15.593900
8.410300 14.068400
8.426900 13.325400
8.443400 12.187200
8.460000 10.496400
8.476600 8.370300
8.493200 6.986800
8.509700 7.241800
8.526300 7.354500
8.542900 7.022600
8.559500 6.239700
8.576000 5.005900
8.592600 3.360200
8.609200 2.168700
8.625800 1.937900
8.642300 2.217400
8.658900 4.617400
8.675500 7.133300
8.692100 8.686300
8.708600 10.784400
8.725200 11.733600
8.741800 10.795900
8.758400 8.054700
8.774900 6.608600
8.791500 5.523000
8.808100 4.788500
8.824700 8.667600
8.841300 12.374200
8.857800 12.000800
8.874400 11.314000
8.891000 10.528500
8.907600 9.709500
8.924100 9.343300
8.940700 10.207700
8.957300 11.515700
8.973900 12.623800
8.990400 13.496400
9.007000 14.489100
9.023600 7.607600
9.040200 6.982300
9.056700 7.197400
9.073300 7.313800
9.089900 7.331500
9.106500 7.295900
9.123000 7.267000
9.139600 7.256300
9.156200 7.455400
9.172800 8.121500
9.189300 9.250800
9.205900 10.617900
9.222500 12.070500
9.239100 13.347200
9.255600 9.341000
9.272200 7.295100
9.288800 6.209400
9.305400 7.967200
9.322000 11.500900
9.338500 13.339200
9.355100 11.335500
9.371700 10.169600
9.388300 9.414000
9.404800 8.858000
9.421400 8.294500
9.438000 7.726300
9.454600 7.163200
9.471100 6.674200
9.487700 6.195100
9.504300 5.726000
9.520900 5.266900
9.537400 4.818800
9.554000 4.629200
9.570600 4.901200
9.587200 5.686900
9.603700 7.048900
9.620300 8.279500
9.636900 10.766400
9.653500 18.389400
9.670000 19.711400
9.686600 20.254600
9.703200 16.980400
9.719800 14.625100
9.736300 12.731600
9.752900 14.642300
9.769500 18.293100
9.786100 16.232200
9.802700 10.683400
9.819200 5.040600
9.835800 2.717000
9.852400 2.381700
9.869000 3.465800
9.885500 4.425600
9.902100 5.243800
9.918700 5.939700
9.935300 6.450200
9.951800 6.554400
9.968400 6.427500
9.985000 6.076200
10.001600 5.507700
10.018100 5.016500
10.034700 4.753900
10.051300 4.690700
10.067900 4.799100
10.084400 5.076400
10.101000 5.379000
10.117600 5.626500
10.134200 5.818600
10.150700 5.955500
10.167300 6.037100
10.183900 6.063400
10.200500 6.034400
10.217000 5.965900
10.233600 5.890400
10.250200 5.808900
10.266800 5.848200
10.283300 6.200500
10.299900 6.813500
10.316500 7.452300
10.333100 7.832800
10.349700 7.970100
10.366200 8.048100
10.382800 8.118300
10.399400 8.180700
10.416000 8.235500
10.432500 8.282400
10.449100 8.364300
10.465700 8.646800
10.482300 8.906600
10.498800 8.888400
10.515400 9.067700
10.532000 9.322300
10.548600 9.306500
10.565100 9.106700
10.581700 8.855700
10.598300 8.746600
10.614900 8.859300
10.631400 9.222700
10.648000 5.689900
10.664600 6.084100
10.681200 6.711100
10.697700 7.536300
10.714300 8.455300
10.730900 8.447900
10.747500 8.199900
10.764000 8.257400
10.780600 8.261700
10.797200 8.213000
10.813800 8.111100
10.830400 7.956200
10.846900 9.524000
10.863500 6.851300
10.880100 5.306600
10.896700 4.509400
10.913200 4.417000
10.929800 4.987500
10.946400 5.480700
10.963000 5.821300
10.979500 6.148100
10.996100 6.680100
11.012700 7.104800
11.029300 7.422000
11.045800 7.631900
11.062400 7.738000
11.079000 7.956400
11.095600 8.519400
11.112100 7.728100
11.128700 5.506500
11.145300 4.964200
11.161900 4.629300
11.178400 4.402700
11.195000 4.284500
11.211600 7.000500
11.228200 6.895600
11.244700 7.566600
11.261300 9.279600
11.277900 14.755300
11.294500 20.108500
11.311100 25.043400
11.327600 23.239800
11.344200 8.319500
11.360800 7.245100
11.377400 6.576100
11.393900 6.370200
11.410500 6.801300
11.427100 7.428900
11.443700 8.039700
11.460200 8.633700
11.476800 9.211000
11.493400 9.785000
11.510000 12.085400
11.526500 9.307700
11.543100 4.329800
11.559700 3.633500
11.576300 3.195800
11.592800 3.047300
11.609400 3.394200
11.626000 4.341100
11.642600 5.899300
11.659100 8.057100
11.675700 13.942200
11.692300 13.500300
11.708900 13.005600
11.725400 12.523300
11.742000 11.405800
11.758600 10.614400
11.775200 10.109300
11.791700 9.890500
11.808300 9.985000
11.824900 10.420100
11.841500 11.184500
11.858100 12.278300
11.874600 15.795300
11.891200 15.830400
11.907800 12.630700
11.924400 9.444000
11.940900 6.295200
11.957500 4.482700
11.974100 3.793200
11.990700 3.393400
12.007200 5.530200
12.023800 5.386000
12.040400 5.265700
12.057000 5.422100
12.073500 5.814100
12.090100 6.178700
12.106700 6.515900
12.123300 6.999800
12.139800 8.870400
12.156400 11.615700
12.173000 12.952400
12.189600 12.257400
12.206100 10.144100
12.222700 8.247700
12.239300 7.053300
12.255900 6.347200
12.272400 5.861300
12.289000 5.556000
12.305600 5.431300
12.322200 5.490400
12.338800 5.898300
12.355300 6.740200
12.371900 7.929500
12.388500 9.657200
12.405100 10.958800
12.421600 10.317900
12.438200 8.610800
12.454800 7.123100
12.471400 5.924800
12.487900 5.015500
12.504500 4.348100
12.521100 3.889600
12.537700 3.722800
12.554200 3.978100
12.570800 4.656700
12.587400 5.713500
12.604000 7.279800
12.620500 9.624400
12.637100 12.887200
12.653700 16.291500
12.670300 17.710900
12.686800 11.658000
12.703400 9.910500
12.720000 8.342400
12.736600 6.963700
12.753100 5.766300
12.769700 4.864700
12.786300 3.585700
12.802900 2.769000
12.819500 3.072200
12.836000 3.392100
12.852600 3.700400
12.869200 3.988800
12.885800 4.257300
12.902300 4.506000
12.918900 4.730500
12.935500 4.909200
12.952100 5.039400
12.968600 5.121100
12.985200 5.154300
13.001800 5.138900
13.018400 5.074900
13.034900 4.915500
13.051500 4.652800
13.068100 4.368200
13.084700 4.067200
13.101200 3.749800
13.117800 3.416100
13.134400 3.089100
13.151000 2.922100
13.167500 2.925500
13.184100 3.089400
13.200700 3.421700
13.217300 3.885300
13.233800 4.466800
13.250400 5.166200
13.267000 5.983300
13.283600 6.918300
13.300200 7.984400
13.316700 12.397300
13.333300 8.684000
13.349900 7.501400
13.366500 6.220700
13.383000 6.277200
13.399600 6.384100
13.416200 6.626500
13.432800 7.010600
13.449300 7.499000
13.465900 8.004300
13.482500 7.911900
13.499100 7.651400
13.515600 7.257300
13.532200 6.730200
13.548800 6.160900
13.565400 6.234600
13.581900 6.593500
13.598500 7.029700
13.615100 7.542400
13.631700 8.088000
13.648200 8.412400
13.664800 8.206300
13.681400 7.572400
13.698000 6.911500
13.714500 6.703400
13.731100 6.844500
13.747700 7.305900
13.764300 8.446600
13.780800 10.264800
13.797400 11.653200
13.814000 11.879200
13.830600 11.527500
13.847200 10.584900
13.863700 9.043700
13.880300 7.221100
13.896900 5.557000
13.913500 4.216900
13.930000 3.911700
13.946600 3.739200
13.963200 3.685700
13.979800 3.906500
13.996300 4.276400
14.012900 4.747200
14.029500 5.451400
14.046100 6.270100
14.062600 7.020700
14.079200 7.695700
14.095800 8.295100
14.112400 8.817000
14.128900 9.225800
14.145500 9.506400
14.162100 9.656100
14.178700 9.560100
14.195200 8.524200
14.211800 6.487300
14.228400 5.027900
14.245000 4.096900
14.261500 3.642300
14.278100 3.409200
14.294700 3.194900
14.311300 2.964000
14.327900 2.716300
14.344400 2.452000
14.361000 2.163900
14.377600 1.757100
14.394200 1.349000
14.410700 0.998500
14.427300 0.711300
14.443900 0.487600
14.460500 0.326700
14.477000 0.228500
14.493600 0.176200
14.510200 0.133400
14.526800 0.098900
14.543300 0.071900
14.559900 0.052300
14.576500 0.039900
14.593100 0.030600
14.609600 0.022600
14.626200 0.015800
14.642800 0.010200
14.659400 0.005800
14.675900 0.002700
14.692500 0.000700
14.709100 0.000000
14.725700 0.000000
14.742200 0.000000
14.758800 0.000000
14.775400 0.000000
14.792000 0.000000
14.808600 0.000000
14.825100 0.000000
14.841700 0.000000
14.858300 0.000000
14.874900 0.000000
14.891400 0.000000
14.908000 0.000000
14.924600 0.000000
14.941200 0.000000
14.957700 0.000000
14.974300 0.000000
14.990900 0.000000
15.007500 0.000000
15.024000 0.000000
15.040600 0.000000
15.057200 0.000000
15.073800 0.000000
15.090300 0.000000
15.106900 0.000000
15.123500 0.000000
15.140100 0.000000
15.156600 0.000000
15.173200 0.000000
15.189800 0.000000
15.206400 0.000000
15.222900 0.000000
15.239500 0.000000
15.256100 0.000000
15.272700 0.000000
15.289200 0.000000
15.305800 0.000000
15.322400 0.000000
15.339000 0.000000
15.355600 0.000000
15.372100 0.000000
15.388700 0.000000
15.405300 0.000000
15.421900 0.000000
15.438400 0.000000
15.455000 0.000000
15.471600 0.000000
15.488200 0.000000
15.504700 0.000000
15.521300 0.000000
15.537900 0.000000
15.554500 0.000000
15.571000 0.000000
15.587600 0.000000
15.604200 0.000000
15.620800 0.000000
15.637300 0.000000
15.653900 0.000000
15.670500 0.000000
15.687100 0.000000
15.703600 0.000000
15.720200 0.000000
15.736800 0.000000
15.753400 0.000000
15.769900 0.000000
15.786500 0.000000
15.803100 0.000000
15.819700 0.000000
15.836300 0.000000
15.852800 0.000000
15.869400 0.000000
15.886000 0.000000
15.902600 0.000000
15.919100 0.000000
15.935700 0.000000
15.952300 0.000000
15.968900 0.000000
15.985400 0.000000
16.002000 0.000000
16.018600 0.000000
16.035200 0.000000
16.051700 0.000000
16.068300 0.000000
16.084900 0.000000
16.101500 0.000000
16.118000 0.000000
16.134600 0.000000
16.151200 0.000000
16.167800 0.000000
16.184300 0.000000
16.200900 0.000000
16.217500 0.000000
e
