set title 'mp-1226722 - Density of States'
set xlabel 'Energy (eV)'
set ylabel 'DOS (states/eV)'
set grid
set xrange [-10:10]
set yrange [0:29.572]
set xzeroaxis lt -1
set terminal png size 800,600
set output 'mp-1226722_dos_gnuplot.png'
plot '-' using 1:2 with lines title 'DOS'
-10.583100 0.000000
-10.554900 0.000000
-10.526700 0.000000
-10.498400 0.000000
-10.470200 0.000000
-10.442000 0.000000
-10.413800 0.000000
-10.385600 0.000000
-10.357400 0.000000
-10.329100 0.000000
-10.300900 0.000000
-10.272700 0.000000
-10.244500 0.000000
-10.216300 0.000000
-10.188100 0.000000
-10.159900 0.000000
-10.131600 0.000000
-10.103400 0.000000
-10.075200 0.000000
-10.047000 0.000000
-10.018800 0.000000
-9.990600 0.000000
-9.962400 0.000000
-9.934100 0.000000
-9.905900 0.000000
-9.877700 0.000000
-9.849500 0.000000
-9.821300 0.000000
-9.793100 0.000000
-9.764900 0.000000
-9.736600 0.000000
-9.708400 0.000000
-9.680200 0.000000
-9.652000 0.000000
-9.623800 0.000000
-9.595600 0.000000
-9.567300 0.000000
-9.539100 0.000000
-9.510900 0.000000
-9.482700 0.000000
-9.454500 0.000000
-9.426300 0.000000
-9.398100 0.000000
-9.369800 0.000000
-9.341600 0.000000
-9.313400 0.000000
-9.285200 0.000000
-9.257000 0.000000
-9.228800 0.000000
-9.200600 0.000000
-9.172300 0.000000
-9.144100 0.000000
-9.115900 0.000000
-9.087700 0.000000
-9.059500 0.000000
-9.031300 0.000000
-9.003000 0.000000
-8.974800 0.000000
-8.946600 0.000000
-8.918400 0.000000
-8.890200 0.000000
-8.862000 0.000000
-8.833800 0.000000
-8.805500 0.000000
-8.777300 0.000000
-8.749100 0.000000
-8.720900 0.000000
-8.692700 0.000000
-8.664500 0.000000
-8.636300 0.000000
-8.608000 0.000000
-8.579800 0.000000
-8.551600 0.000000
-8.523400 0.000000
-8.495200 0.000000
-8.467000 0.000000
-8.438700 0.000000
-8.410500 0.000000
-8.382300 0.000000
-8.354100 0.000000
-8.325900 0.000000
-8.297700 0.000000
-8.269500 0.000000
-8.241200 0.000000
-8.213000 0.000000
-8.184800 0.000000
-8.156600 0.000000
-8.128400 0.000100
-8.100200 0.001500
-8.072000 0.009200
-8.043700 0.031700
-8.015500 0.070200
-7.987300 0.120800
-7.959100 0.187000
-7.930900 0.265900
-7.902700 0.341400
-7.874500 0.399500
-7.846200 0.456900
-7.818000 0.500400
-7.789800 0.471500
-7.761600 0.453000
-7.733400 0.558400
-7.705200 0.682800
-7.676900 0.735900
-7.648700 0.813900
-7.620500 0.984500
-7.592300 1.203300
-7.564100 1.387400
-7.535900 1.528800
-7.507700 1.714300
-7.479400 1.890900
-7.451200 1.878900
-7.423000 1.712300
-7.394800 1.511700
-7.366600 1.199700
-7.338400 0.824500
-7.310200 0.657300
-7.281900 0.764000
-7.253700 1.011700
-7.225500 1.307900
-7.197300 1.528700
-7.169100 1.529300
-7.140900 1.281700
-7.112600 0.869100
-7.084400 0.533200
-7.056200 0.442200
-7.028000 0.462400
-6.999800 0.453800
-6.971600 0.463500
-6.943400 0.561100
-6.915100 0.689200
-6.886900 0.806300
-6.858700 1.029700
-6.830500 1.332500
-6.802300 1.448800
-6.774100 1.207800
-6.745900 0.750300
-6.717600 0.403200
-6.689400 0.307000
-6.661200 0.335300
-6.633000 0.362800
-6.604800 0.397400
-6.576600 0.446300
-6.548400 0.462200
-6.520100 0.492500
-6.491900 0.591100
-6.463700 0.684600
-6.435500 0.806300
-6.407300 1.095200
-6.379100 1.509400
-6.350800 1.739700
-6.322600 1.430600
-6.294400 0.750200
-6.266200 0.238600
-6.238000 0.064900
-6.209800 0.092500
-6.181600 0.220400
-6.153300 0.378100
-6.125100 0.504200
-6.096900 0.594500
-6.068700 0.701500
-6.040500 0.881300
-6.012300 1.239600
-5.984100 1.826900
-5.955800 2.222800
-5.927600 1.886000
-5.899400 1.158400
-5.871200 0.864700
-5.843000 1.104700
-5.814800 1.359100
-5.786500 1.252000
-5.758300 0.842600
-5.730100 0.406200
-5.701900 0.133000
-5.673700 0.027700
-5.645500 0.003500
-5.617300 0.000300
-5.589000 0.000000
-5.560800 0.000000
-5.532600 0.000000
-5.504400 0.000000
-5.476200 0.000000
-5.448000 0.000000
-5.419800 0.000000
-5.391500 0.000000
-5.363300 0.000000
-5.335100 0.000000
-5.306900 0.000000
-5.278700 0.000000
-5.250500 0.000000
-5.222200 0.000000
-5.194000 0.000000
-5.165800 0.000000
-5.137600 0.000000
-5.109400 0.000000
-5.081200 0.000000
-5.053000 0.000000
-5.024700 0.000000
-4.996500 0.000000
-4.968300 0.000000
-4.940100 0.000000
-4.911900 0.000000
-4.883700 0.000000
-4.855500 0.000000
-4.827200 0.000000
-4.799000 0.000000
-4.770800 0.000000
-4.742600 0.000000
-4.714400 0.000000
-4.686200 0.000000
-4.658000 0.000200
-4.629700 0.003200
-4.601500 0.036400
-4.573300 0.235900
-4.545100 0.900900
-4.516900 2.172500
-4.488700 3.631100
-4.460400 4.399000
-4.432200 3.686700
-4.404000 2.111700
-4.375800 1.487100
-4.347600 2.759700
-4.319400 5.304100
-4.291200 7.777100
-4.262900 9.293300
-4.234700 10.562400
-4.206500 13.457900
-4.178300 17.368900
-4.150100 19.564300
-4.121900 19.972200
-4.093700 20.603300
-4.065400 21.382700
-4.037200 22.156400
-4.009000 24.676700
-3.980800 26.883300
-3.952600 24.514000
-3.924400 19.882200
-3.896100 16.886100
-3.867900 13.881900
-3.839700 9.379100
-3.811500 5.459000
-3.783300 3.736400
-3.755100 3.507300
-3.726900 3.551200
-3.698600 3.370200
-3.670400 2.970200
-3.642200 2.395800
-3.614000 1.733800
-3.585800 1.180700
-3.557600 0.795600
-3.529400 0.473400
-3.501100 0.207300
-3.472900 0.059500
-3.444700 0.010500
-3.416500 0.001100
-3.388300 0.000100
-3.360100 0.000000
-3.331900 0.000000
-3.303600 0.000000
-3.275400 0.000000
-3.247200 0.000000
-3.219000 0.000000
-3.190800 0.000000
-3.162600 0.000000
-3.134300 0.000000
-3.106100 0.000000
-3.077900 0.000000
-3.049700 0.000000
-3.021500 0.000000
-2.993300 0.000000
-2.965100 0.000000
-2.936800 0.000000
-2.908600 0.000000
-2.880400 0.000000
-2.852200 0.000000
-2.824000 0.000000
-2.795800 0.000000
-2.767600 0.000000
-2.739300 0.000000
-2.711100 0.000000
-2.682900 0.000000
-2.654700 0.000000
-2.626500 0.000000
-2.598300 0.000000
-2.570000 0.000000
-2.541800 0.000000
-2.513600 0.000000
-2.485400 0.000000
-2.457200 0.000000
-2.429000 0.000000
-2.400800 0.000000
-2.372500 0.000000
-2.344300 0.000000
-2.316100 0.000000
-2.287900 0.000000
-2.259700 0.000000
-2.231500 0.000000
-2.203300 0.000000
-2.175000 0.000000
-2.146800 0.000000
-2.118600 0.000000
-2.090400 0.000000
-2.062200 0.000000
-2.034000 0.000000
-2.005700 0.000000
-1.977500 0.000000
-1.949300 0.000000
-1.921100 0.000000
-1.892900 0.000000
-1.864700 0.000000
-1.836500 0.000000
-1.808200 0.000000
-1.780000 0.000100
-1.751800 0.000900
-1.723600 0.007100
-1.695400 0.032300
-1.667200 0.082100
-1.639000 0.124900
-1.610700 0.138000
-1.582500 0.161300
-1.554300 0.213400
-1.526100 0.227700
-1.497900 0.187700
-1.469700 0.180500
-1.441500 0.249900
-1.413200 0.360100
-1.385000 0.407200
-1.356800 0.337800
-1.328600 0.264100
-1.300400 0.303900
-1.272200 0.439600
-1.243900 0.501200
-1.215700 0.369900
-1.187500 0.213800
-1.159300 0.214500
-1.131100 0.310600
-1.102900 0.384200
-1.074700 0.425500
-1.046400 0.481000
-1.018200 0.585700
-0.990000 0.659100
-0.961800 0.600200
-0.933600 0.544200
-0.905400 0.632900
-0.877200 0.672100
-0.848900 0.502300
-0.820700 0.329000
-0.792500 0.305000
-0.764300 0.323800
-0.736100 0.348100
-0.707900 0.458000
-0.679600 0.663800
-0.651400 0.846100
-0.623200 0.915600
-0.595000 0.904600
-0.566800 0.810000
-0.538600 0.678000
-0.510400 0.661600
-0.482100 0.838000
-0.453900 1.204500
-0.425700 1.639100
-0.397500 1.902300
-0.369300 1.825000
-0.341100 1.478400
-0.312900 1.190800
-0.284600 1.110500
-0.256400 1.028400
-0.228200 0.856800
-0.200000 0.770800
-0.171800 0.841900
-0.143600 0.996800
-0.115400 1.246600
-0.087100 1.536000
-0.058900 1.648900
-0.030700 1.542600
-0.002500 1.383900
0.025700 1.384300
0.053900 1.579500
0.082200 1.717900
0.110400 1.628300
0.138600 1.508700
0.166800 1.514100
0.195000 1.466400
0.223200 1.370600
0.251400 1.374100
0.279700 1.317000
0.307900 1.066500
0.336100 0.751100
0.364300 0.535700
0.392500 0.456700
0.420700 0.415500
0.448900 0.400400
0.477200 0.558200
0.505400 0.873700
0.533600 1.128900
0.561800 1.215800
0.590000 1.150500
0.618200 0.954700
0.646500 0.738900
0.674700 0.609800
0.702900 0.514400
0.731100 0.407700
0.759300 0.368500
0.787500 0.476700
0.815700 0.635300
0.844000 0.709800
0.872200 0.817100
0.900400 1.025100
0.928600 1.177600
0.956800 1.226100
0.985000 1.248400
1.013200 1.243300
1.041500 1.163800
1.069700 0.939400
1.097900 0.686800
1.126100 0.752200
1.154300 1.093800
1.182500 1.292400
1.210800 1.258600
1.239000 1.239300
1.267200 1.291100
1.295400 1.234700
1.323600 1.066300
1.351800 0.908800
1.380000 0.816900
1.408300 0.879600
1.436500 1.055000
1.464700 1.126900
1.492900 1.085500
1.521100 1.119900
1.549300 1.167100
1.577500 1.086400
1.605800 0.996800
1.634000 1.026600
1.662200 1.033800
1.690400 0.888100
1.718600 0.760900
1.746800 0.854100
1.775000 1.059800
1.803300 1.157400
1.831500 1.249800
1.859700 1.464300
1.887900 1.606200
1.916100 1.537400
1.944300 1.336400
1.972600 1.090600
2.000800 0.928900
2.029000 1.059900
2.057200 1.369000
2.085400 1.492600
2.113600 1.411800
2.141800 1.202700
2.170100 0.927300
2.198300 0.753700
2.226500 0.721900
2.254700 0.857100
2.282900 1.144200
2.311100 1.432400
2.339300 1.559900
2.367600 1.507600
2.395800 1.506500
2.424000 1.670100
2.452200 1.841400
2.480400 1.907300
2.508600 1.746400
2.536900 1.384400
2.565100 1.115500
2.593300 1.107100
2.621500 1.355400
2.649700 1.744300
2.677900 1.942700
2.706100 1.828500
2.734400 1.770800
2.762600 1.918700
2.790800 1.987700
2.819000 1.867900
2.847200 1.646100
2.875400 1.569700
2.903600 1.881500
2.931900 2.438200
2.960100 2.866300
2.988300 2.877000
3.016500 2.481500
3.044700 2.019700
3.072900 1.753200
3.101100 1.693600
3.129400 1.698200
3.157600 1.632800
3.185800 1.525900
3.214000 1.369600
3.242200 1.101500
3.270400 0.813100
3.298700 0.626600
3.326900 0.514200
3.355100 0.455800
3.383300 0.509400
3.411500 0.675800
3.439700 0.801700
3.467900 0.723900
3.496200 0.513600
3.524400 0.303600
3.552600 0.136600
3.580800 0.053700
3.609000 0.096200
3.637200 0.313900
3.665400 0.639700
3.693700 0.782000
3.721900 0.619700
3.750100 0.403700
3.778300 0.295400
3.806500 0.234100
3.834700 0.185700
3.863000 0.146100
3.891200 0.127300
3.919400 0.142900
3.947600 0.158300
3.975800 0.143400
4.004000 0.106700
4.032200 0.107000
4.060500 0.178900
4.088700 0.253900
4.116900 0.297200
4.145100 0.354400
4.173300 0.395600
4.201500 0.400500
4.229700 0.459300
4.258000 0.670600
4.286200 0.960800
4.314400 1.069100
4.342600 0.893000
4.370800 0.673900
4.399000 0.678600
4.427300 0.853300
4.455500 1.022500
4.483700 1.167700
4.511900 1.315100
4.540100 1.381000
4.568300 1.269900
4.596500 1.037800
4.624800 0.851300
4.653000 0.711400
4.681200 0.606800
4.709400 0.625400
4.737600 0.705300
4.765800 0.703600
4.794000 0.616500
4.822300 0.558600
4.850500 0.553900
4.878700 0.601200
4.906900 0.822900
4.935100 1.259000
4.963300 1.640400
4.991500 1.686400
5.019800 1.446800
5.048000 1.100600
5.076200 0.795700
5.104400 0.634500
5.132600 0.586800
5.160800 0.652300
5.189100 0.817800
5.217300 0.923400
5.245500 0.866000
5.273700 0.716100
5.301900 0.669500
5.330100 0.857600
5.358300 1.207900
5.386600 1.431500
5.414800 1.341800
5.443000 1.170400
5.471200 1.181300
5.499400 1.375900
5.527600 1.562100
5.555800 1.553300
5.584100 1.307800
5.612300 0.989200
5.640500 0.853600
5.668700 0.888100
5.696900 0.932400
5.725100 0.885000
5.753400 0.682800
5.781600 0.411000
5.809800 0.251400
5.838000 0.289600
5.866200 0.437100
5.894400 0.626600
5.922600 0.884500
5.950900 1.089200
5.979100 1.152300
6.007300 1.139100
6.035500 0.996100
6.063700 0.778700
6.091900 0.718600
6.120100 0.779800
6.148400 0.750900
6.176600 0.658500
6.204800 0.645800
6.233000 0.850200
6.261200 1.293800
6.289400 1.642800
6.317600 1.588900
6.345900 1.284800
6.374100 1.029200
6.402300 0.878900
6.430500 0.768000
6.458700 0.747700
6.486900 0.881100
6.515200 1.049100
6.543400 1.050000
6.571600 0.940000
6.599800 0.866100
6.628000 0.769200
6.656200 0.658900
6.684400 0.628600
6.712700 0.669900
6.740900 0.704100
6.769100 0.662500
6.797300 0.532500
6.825500 0.355300
6.853700 0.214300
6.881900 0.142400
6.910200 0.130700
6.938400 0.198700
6.966600 0.426700
6.994800 0.864400
7.023000 1.270900
7.051200 1.438600
7.079500 1.555000
7.107700 1.703300
7.135900 1.696800
7.164100 1.449400
7.192300 1.148300
7.220500 1.003900
7.248700 1.007700
7.277000 1.054500
7.305200 1.152800
7.333400 1.294500
7.361600 1.248500
7.389800 0.976400
7.418000 0.743800
7.446200 0.630900
7.474500 0.562800
7.502700 0.503800
7.530900 0.495000
7.559100 0.615800
7.587300 0.826800
7.615500 1.107700
7.643800 1.478100
7.672000 1.743700
7.700200 1.669300
7.728400 1.269000
7.756600 0.840500
7.784800 0.668200
7.813000 0.699000
7.841300 0.751700
7.869500 0.730300
7.897700 0.679800
7.925900 0.724800
7.954100 0.796700
7.982300 0.809800
8.010500 0.937300
8.038800 1.282200
8.067000 1.586800
8.095200 1.561100
8.123400 1.234300
8.151600 0.898200
8.179800 0.810700
8.208000 0.967800
8.236300 1.071900
8.264500 0.936400
8.292700 0.735300
8.320900 0.686900
8.349100 0.859400
8.377300 1.086400
8.405600 1.284700
8.433800 1.467200
8.462000 1.395400
8.490200 1.108400
8.518400 1.071900
8.546600 1.329100
8.574800 1.431400
8.603100 1.331800
8.631300 1.308600
8.659500 1.358400
8.687700 1.337600
8.715900 1.197200
8.744100 1.171600
8.772300 1.532300
8.800600 2.042500
8.828800 2.245000
8.857000 2.031600
8.885200 1.662300
8.913400 1.530500
8.941600 1.689100
8.969900 1.797600
8.998100 1.695000
9.026300 1.440700
9.054500 1.173000
9.082700 1.115300
9.110900 1.224000
9.139100 1.317400
9.167400 1.385100
9.195600 1.405000
9.223800 1.303600
9.252000 1.104700
9.280200 1.021300
9.308400 1.217200
9.336600 1.457700
9.364900 1.523100
9.393100 1.542700
9.421300 1.514900
9.449500 1.322700
9.477700 1.074500
9.505900 1.011700
9.534200 1.235700
9.562400 1.592600
9.590600 1.816600
9.618800 1.692100
9.647000 1.273800
9.675200 0.998300
9.703400 1.058800
9.731700 1.197300
9.759900 1.234700
9.788100 1.286300
9.816300 1.527500
9.844500 1.831700
9.872700 1.947100
9.900900 1.912000
9.929200 1.802400
9.957400 1.640900
9.985600 1.622100
10.013800 1.818700
10.042000 1.957300
10.070200 1.742000
10.098400 1.283700
10.126700 1.096300
10.154900 1.422300
10.183100 1.875000
10.211300 2.070000
10.239500 1.971400
10.267700 1.666700
10.296000 1.300100
10.324200 1.056700
10.352400 1.011400
10.380600 1.079300
10.408800 1.175200
10.437000 1.217400
10.465200 1.169100
10.493500 1.134900
10.521700 1.091200
10.549900 0.883300
10.578100 0.628400
10.606300 0.515000
10.634500 0.583200
10.662700 0.778600
10.691000 0.839300
10.719200 0.723500
10.747400 0.720600
10.775600 0.829500
10.803800 0.849300
10.832000 0.816800
10.860300 0.919000
10.888500 1.163900
10.916700 1.317100
10.944900 1.245300
10.973100 1.034100
11.001300 0.826300
11.029500 0.813400
11.057800 1.071100
11.086000 1.401800
11.114200 1.549300
11.142400 1.424800
11.170600 1.170000
11.198800 0.941100
11.227000 0.763900
11.255300 0.667200
11.283500 0.611000
11.311700 0.531100
11.339900 0.505800
11.368100 0.561700
11.396300 0.648400
11.424500 0.858800
11.452800 1.186000
11.481000 1.344400
11.509200 1.293500
11.537400 1.291800
11.565600 1.411900
11.593800 1.591300
11.622100 1.673900
11.650300 1.462800
11.678500 1.136200
11.706700 1.007300
11.734900 1.035300
11.763100 1.034000
11.791300 0.952300
11.819600 0.928700
11.847800 1.090400
11.876000 1.316200
11.904200 1.435600
11.932400 1.414100
11.960600 1.271600
11.988800 1.072100
12.017100 1.028000
12.045300 1.324200
12.073500 1.691100
12.101700 1.628500
12.129900 1.225900
12.158100 0.981800
12.186400 0.969900
12.214600 0.990600
12.242800 1.045500
12.271000 1.277800
12.299200 1.605300
12.327400 1.648700
12.355600 1.453200
12.383900 1.562400
12.412100 1.938400
12.440300 1.945100
12.468500 1.676200
12.496700 1.740300
12.524900 1.914400
12.553100 1.757000
12.581400 1.617800
12.609600 1.880700
12.637800 2.141400
12.666000 1.845000
12.694200 1.183300
12.722400 0.700300
12.750700 0.632600
12.778900 0.919700
12.807100 1.297700
12.835300 1.533300
12.863500 1.694100
12.891700 1.811900
12.919900 1.752200
12.948200 1.507200
12.976400 1.151700
13.004600 0.728100
13.032800 0.499000
13.061000 0.735800
13.089200 1.221900
13.117400 1.487800
13.145700 1.477300
13.173900 1.473900
13.202100 1.558400
13.230300 1.628500
13.258500 1.661900
13.286700 1.623100
13.314900 1.481300
13.343200 1.484400
13.371400 1.766500
13.399600 1.882300
13.427800 1.576700
13.456000 1.219700
13.484200 1.111400
13.512500 1.198500
13.540700 1.271400
13.568900 1.197100
13.597100 1.104700
13.625300 1.158900
13.653500 1.274900
13.681700 1.373500
13.710000 1.578100
13.738200 1.952300
13.766400 2.292600
13.794600 2.248000
13.822800 1.830000
13.851000 1.476100
13.879200 1.358800
13.907500 1.217200
13.935700 0.923700
13.963900 0.760600
13.992100 0.926000
14.020300 1.162100
14.048500 1.186600
14.076800 1.169600
14.105000 1.404300
14.133200 1.891900
14.161400 2.357300
14.189600 2.441100
14.217800 2.087100
14.246000 1.659500
14.274300 1.495200
14.302500 1.572000
14.330700 1.681400
14.358900 1.760000
14.387100 1.755900
14.415300 1.554000
14.443500 1.348600
14.471800 1.440800
14.500000 1.687000
14.528200 1.677300
14.556400 1.444700
14.584600 1.364100
14.612800 1.552800
14.641000 1.681700
14.669300 1.447400
14.697500 1.243400
14.725700 1.581200
14.753900 2.204400
14.782100 2.447900
14.810300 2.213300
14.838600 1.981400
14.866800 2.041500
14.895000 2.239500
14.923200 2.163100
14.951400 1.711000
14.979600 1.351200
15.007800 1.540400
15.036100 2.054300
15.064300 2.206100
15.092500 1.802200
15.120700 1.311800
15.148900 1.160300
15.177100 1.403500
15.205300 1.854100
15.233600 2.117900
15.261800 2.022700
15.290000 1.861500
15.318200 1.886500
15.346400 1.981100
15.374600 1.883600
15.402900 1.665900
15.431100 1.747100
15.459300 2.127200
15.487500 2.224100
15.515700 1.866400
15.543900 1.579400
15.572100 1.700800
15.600400 1.878700
15.628600 1.764400
15.656800 1.572700
15.685000 1.548000
15.713200 1.644300
15.741400 1.715800
15.769600 1.680900
15.797900 1.619600
15.826100 1.582800
15.854300 1.562400
15.882500 1.574600
15.910700 1.600200
15.938900 1.660500
15.967200 1.812400
15.995400 2.000600
16.023600 2.047600
16.051800 1.953300
16.080000 1.858800
16.108200 1.756200
16.136400 1.557500
16.164700 1.385100
16.192900 1.515400
16.221100 1.946200
16.249300 2.315900
16.277500 2.352900
16.305700 2.237100
16.333900 2.252300
16.362200 2.361500
16.390400 2.349100
16.418600 2.093800
16.446800 1.695000
16.475000 1.422000
16.503200 1.402100
16.531400 1.486000
16.559700 1.469400
16.587900 1.412700
16.616100 1.599100
16.644300 2.067000
16.672500 2.325800
16.700700 2.090200
16.729000 1.739600
16.757200 1.551300
16.785400 1.472100
16.813600 1.530100
16.841800 1.754200
16.870000 1.987000
16.898200 2.033100
16.926500 1.848000
16.954700 1.488500
16.982900 1.045800
17.011100 0.755700
17.039300 0.813600
17.067500 1.093400
17.095700 1.388800
17.124000 1.592000
17.152200 1.510300
17.180400 1.234500
17.208600 1.225400
17.236800 1.624500
17.265000 2.139700
17.293300 2.490200
17.321500 2.569200
17.349700 2.400400
17.377900 2.088200
17.406100 1.900800
17.434300 2.086200
17.462500 2.451800
17.490800 2.635500
17.519000 2.561400
17.547200 2.433600
17.575400 2.413900
17.603600 2.336200
17.631800 2.041200
17.660000 1.780500
17.688300 1.798000
17.716500 1.875800
17.744700 1.728900
17.772900 1.463000
17.801100 1.263400
17.829300 1.068600
17.857500 0.955900
17.885800 1.367700
17.914000 2.401700
17.942200 3.176800
17.970400 2.886900
17.998600 2.081100
18.026800 1.717400
18.055100 1.818800
18.083300 1.871000
18.111500 1.684300
18.139700 1.485300
18.167900 1.439400
18.196100 1.526100
18.224300 1.666400
18.252600 1.758600
18.280800 1.708600
18.309000 1.580000
18.337200 1.640500
18.365400 1.890400
18.393600 2.040500
18.421800 1.956300
18.450100 1.724700
18.478300 1.532300
18.506500 1.464100
18.534700 1.415800
18.562900 1.381400
18.591100 1.370500
18.619400 1.303600
18.647600 1.365000
18.675800 1.714300
18.704000 2.038000
18.732200 2.125800
18.760400 2.230400
18.788600 2.347800
18.816900 2.295300
18.845100 2.195100
18.873300 2.055400
18.901500 1.781100
18.929700 1.670200
18.957900 1.982600
18.986100 2.422100
19.014400 2.502400
19.042600 2.171900
19.070800 1.801900
19.099000 1.726900
19.127200 1.853700
19.155400 1.828800
19.183700 1.720800
19.211900 1.858300
19.240100 2.170400
19.268300 2.332600
19.296500 2.249300
19.324700 1.924700
19.352900 1.438800
19.381200 1.127800
19.409400 1.186600
19.437600 1.355300
19.465800 1.324700
19.494000 1.157500
19.522200 1.092900
19.550400 1.235800
19.578700 1.569800
19.606900 1.966400
19.635100 2.168200
19.663300 2.065600
19.691500 1.892400
19.719700 1.962600
19.747900 2.243900
19.776200 2.427100
19.804400 2.389100
19.832600 2.314500
19.860800 2.353100
19.889000 2.237700
19.917200 1.769600
19.945500 1.317300
19.973700 1.283100
20.001900 1.625600
20.030100 1.992800
20.058300 2.034800
20.086500 1.721200
20.114700 1.397100
20.143000 1.327900
20.171200 1.421300
20.199400 1.575200
20.227600 1.780700
20.255800 1.968800
20.284000 2.125300
20.312200 2.240300
20.340500 2.229100
20.368700 2.264700
20.396900 2.470700
20.425100 2.429600
20.453300 2.024800
20.481500 1.704700
20.509800 1.648300
20.538000 1.891800
20.566200 2.537200
20.594400 3.248400
20.622600 3.426600
20.650800 3.014400
20.679000 2.396000
20.707300 1.913800
20.735500 1.869200
20.763700 2.101200
20.791900 2.130300
20.820100 1.996900
20.848300 1.877400
20.876500 1.704600
20.904800 1.541900
20.933000 1.536000
20.961200 1.715800
20.989400 1.835500
21.017600 1.679000
21.045800 1.556100
21.074000 1.893000
21.102300 2.704000
21.130500 3.524000
21.158700 3.701700
21.186900 3.169800
21.215100 2.485100
21.243300 2.126600
21.271600 2.159300
21.299800 2.315000
21.328000 2.421600
21.356200 2.465200
21.384400 2.521400
21.412600 2.686900
21.440800 2.775600
21.469100 2.541700
21.497300 2.193200
21.525500 1.992200
21.553700 1.718500
21.581900 1.310000
21.610100 1.161700
21.638300 1.527300
21.666600 2.174900
21.694800 2.670200
21.723000 2.806000
21.751200 2.589300
21.779400 2.315200
21.807600 2.305200
21.835900 2.537800
21.864100 2.852700
21.892300 2.931200
21.920500 2.659900
21.948700 2.363500
21.976900 2.163000
22.005100 2.029100
22.033400 2.118400
22.061600 2.378600
22.089800 2.527200
22.118000 2.546400
22.146200 2.551200
22.174400 2.446400
22.202600 2.272500
22.230900 2.305100
22.259100 2.502200
22.287300 2.683200
22.315500 2.751900
22.343700 2.461200
22.371900 1.902900
22.400200 1.512800
22.428400 1.387100
22.456600 1.434200
22.484800 1.602300
22.513000 1.742400
22.541200 1.785700
22.569400 1.758800
22.597700 1.641000
22.625900 1.546100
22.654100 1.627400
22.682300 1.851200
22.710500 2.116900
22.738700 2.262800
22.766900 2.055700
22.795200 1.563200
22.823400 1.206600
22.851600 1.235100
22.879800 1.515100
22.908000 1.727300
22.936200 1.856200
22.964400 2.136900
22.992700 2.451000
23.020900 2.461400
23.049100 2.234300
23.077300 2.094800
23.105500 2.205400
23.133700 2.522200
23.162000 2.747900
23.190200 2.670800
23.218400 2.365900
23.246600 2.038100
23.274800 1.884500
23.303000 1.898300
23.331200 1.919500
23.359500 2.003000
23.387700 2.402300
23.415900 2.936100
23.444100 3.125500
23.472300 2.909500
23.500500 2.554500
23.528700 2.331100
23.557000 2.287400
23.585200 2.268200
23.613400 2.310600
23.641600 2.508900
23.669800 2.625300
23.698000 2.351900
23.726300 1.773700
23.754500 1.407600
23.782700 1.647700
23.810900 2.110700
23.839100 2.091400
23.867300 1.659500
23.895500 1.336900
23.923800 1.325200
23.952000 1.775600
23.980200 2.751900
24.008400 3.753200
24.036600 3.994500
24.064800 3.243400
24.093000 2.248300
24.121300 1.927900
24.149500 2.166500
24.177700 2.229100
24.205900 2.097100
24.234100 2.275500
24.262300 2.621200
24.290500 2.509400
24.318800 1.989900
24.347000 1.560000
24.375200 1.368600
24.403400 1.358200
24.431600 1.549800
24.459800 1.951900
24.488100 2.328500
24.516300 2.372200
24.544500 2.052700
24.572700 1.789200
24.600900 1.951200
24.629100 2.322700
24.657300 2.532600
24.685600 2.447300
24.713800 2.251800
24.742000 2.350400
24.770200 2.762500
24.798400 2.995100
24.826600 2.832300
24.854800 2.575100
24.883100 2.514700
24.911300 2.599100
24.939500 2.669200
24.967700 2.740700
24.995900 2.839000
25.024100 2.911500
25.052400 2.928700
25.080600 2.910300
25.108800 2.749600
25.137000 2.309000
25.165200 1.733400
25.193400 1.385100
25.221600 1.367800
25.249900 1.581800
25.278100 1.863900
25.306300 1.863500
25.334500 1.668600
25.362700 1.723400
25.390900 1.936500
25.419100 2.017000
25.447400 2.000200
25.475600 2.047100
25.503800 2.186900
25.532000 2.213200
25.560200 2.084700
25.588400 2.185100
25.616700 2.619900
25.644900 3.101200
25.673100 3.296900
25.701300 2.976600
25.729500 2.452400
25.757700 2.324600
25.785900 2.550800
25.814200 2.645700
25.842400 2.563000
25.870600 2.395000
25.898800 2.218300
25.927000 2.428300
25.955200 3.098200
25.983400 3.654400
26.011700 3.575100
26.039900 3.003400
26.068100 2.563200
26.096300 2.368500
26.124500 2.163800
26.152700 2.193900
26.180900 2.383600
26.209200 2.169200
26.237400 1.818200
26.265600 2.016900
26.293800 2.584300
26.322000 2.873900
26.350200 2.717900
26.378500 2.413400
26.406700 2.245900
26.434900 2.255100
26.463100 2.318000
26.491300 2.423700
26.519500 2.544300
26.547700 2.391800
26.576000 2.041600
26.604200 1.850100
26.632400 1.796700
26.660600 1.885400
26.688800 2.183300
26.717000 2.418300
26.745200 2.403000
26.773500 2.411800
26.801700 2.674300
26.829900 3.008200
26.858100 3.146000
26.886300 2.990400
26.914500 2.839900
26.942800 3.118500
26.971000 3.596200
26.999200 3.672100
27.027400 3.286300
27.055600 2.850300
27.083800 2.459700
27.112000 1.999400
27.140300 1.691200
27.168500 1.739800
27.196700 2.035500
27.224900 2.437500
27.253100 2.700700
27.281300 2.544300
27.309500 2.097100
27.337800 1.763700
27.366000 1.813600
27.394200 2.187600
27.422400 2.484500
27.450600 2.448100
27.478800 2.256700
27.507000 2.033600
27.535300 1.851300
27.563500 1.825300
27.591700 1.819600
27.619900 1.649500
27.648100 1.432400
27.676300 1.495400
27.704600 1.869100
27.732800 2.238900
27.761000 2.494700
27.789200 2.667300
27.817400 2.709200
27.845600 2.727900
27.873800 2.679100
27.902100 2.369200
27.930300 2.118500
27.958500 2.397600
27.986700 2.967700
28.014900 3.156800
28.043100 2.909000
28.071300 2.725200
28.099600 2.668700
28.127800 2.509400
28.156000 2.356500
28.184200 2.323600
28.212400 2.519400
28.240600 3.026700
28.268900 3.407100
28.297100 3.177200
28.325300 2.584900
28.353500 2.176300
28.381700 1.967500
28.409900 1.855900
28.438100 1.986600
28.466400 2.270200
28.494600 2.384200
28.522800 2.298100
28.551000 2.159400
28.579200 1.950300
28.607400 1.876700
28.635600 2.136500
28.663900 2.454000
28.692100 2.607100
28.720300 2.651800
28.748500 2.724000
28.776700 2.926900
28.804900 3.254100
28.833200 3.364000
28.861400 2.879400
28.889600 2.300100
28.917800 2.268400
28.946000 2.523800
28.974200 2.704200
29.002400 2.910300
29.030700 3.083000
29.058900 3.101400
29.087100 2.983700
29.115300 2.673600
29.143500 2.209400
29.171700 1.721800
29.199900 1.413100
29.228200 1.521200
29.256400 1.930200
29.284600 2.228300
29.312800 2.453900
29.341000 3.030300
29.369200 3.586300
29.397400 3.459300
29.425700 3.051100
29.453900 2.894400
29.482100 2.793600
29.510300 2.679900
29.538500 2.799900
29.566700 3.021200
29.595000 3.122700
29.623200 3.219000
29.651400 3.140200
29.679600 2.610300
29.707800 1.949400
29.736000 1.741700
29.764200 2.288500
29.792500 3.173900
29.820700 3.583400
29.848900 3.451400
29.877100 3.141800
29.905300 2.676300
29.933500 2.129700
29.961700 1.758100
29.990000 1.607300
30.018200 1.630600
30.046400 1.841300
30.074600 2.174400
30.102800 2.405500
30.131000 2.376500
30.159300 2.283100
30.187500 2.304000
30.215700 2.369100
30.243900 2.517900
30.272100 2.811800
30.300300 3.243100
30.328500 3.879100
30.356800 4.482500
30.385000 4.476200
30.413200 3.689800
30.441400 2.772900
30.469600 2.295000
30.497800 2.156800
30.526000 2.190700
30.554300 2.331000
30.582500 2.396300
30.610700 2.364500
30.638900 2.427400
30.667100 2.618700
30.695300 2.795800
30.723600 2.775900
30.751800 2.452500
30.780000 2.081500
30.808200 1.976400
30.836400 2.157400
30.864600 2.525000
30.892800 2.797400
30.921100 2.812900
30.949300 2.741800
30.977500 2.565900
31.005700 2.275700
31.033900 2.136400
31.062100 2.229700
31.090300 2.208200
31.118600 1.847700
31.146800 1.510700
31.175000 1.629900
31.203200 2.145100
31.231400 2.723300
31.259600 3.007600
31.287800 2.816500
31.316100 2.429300
31.344300 2.205000
31.372500 2.215400
31.400700 2.322100
31.428900 2.244900
31.457100 1.958800
31.485400 1.712600
31.513600 1.648600
31.541800 1.808100
31.570000 2.157400
31.598200 2.671000
31.626400 3.300300
31.654600 3.901900
31.682900 4.068600
31.711100 3.581900
31.739300 2.981500
31.767500 2.734600
31.795700 2.696200
31.823900 2.708300
31.852100 2.833600
31.880400 2.941900
31.908600 2.772100
31.936800 2.440000
31.965000 2.223400
31.993200 2.094500
32.021400 2.001500
32.049700 2.067300
32.077900 2.178700
32.106100 2.101100
32.134300 2.106900
32.162500 2.665500
32.190700 3.582900
32.218900 4.066000
32.247200 3.806900
32.275400 3.268900
32.303600 2.992900
32.331800 3.032000
32.360000 2.997200
32.388200 2.617400
32.416400 2.126200
32.444700 1.906400
32.472900 1.972100
32.501100 2.166800
32.529300 2.416100
32.557500 2.639100
32.585700 2.721400
32.613900 2.567700
32.642200 2.305600
32.670400 2.218200
32.698600 2.456800
32.726800 2.903000
32.755000 3.236200
32.783200 3.245200
32.811500 3.087300
32.839700 3.122200
32.867900 3.337700
32.896100 3.433000
32.924300 3.247400
32.952500 2.847800
32.980700 2.522400
33.009000 2.408200
33.037200 2.339000
33.065400 2.339300
33.093600 2.546300
33.121800 2.763300
33.150000 2.765700
33.178200 2.637300
33.206500 2.574800
33.234700 2.614600
33.262900 2.652100
33.291100 2.534500
33.319300 2.258900
33.347500 1.970200
33.375800 1.896400
33.404000 2.246000
33.432200 2.732200
33.460400 2.835200
33.488600 2.601300
33.516800 2.478500
33.545000 2.566800
33.573300 2.614000
33.601500 2.611600
33.629700 2.753200
33.657900 2.877500
33.686100 2.594000
33.714300 2.178300
33.742500 2.326900
33.770800 2.851600
33.799000 2.868500
33.827200 2.316800
33.855400 2.008900
33.883600 2.244800
33.911800 2.564300
33.940100 2.648800
33.968300 2.739000
33.996500 3.063600
34.024700 3.289100
34.052900 2.989100
34.081100 2.449700
34.109300 2.182300
34.137600 2.208000
34.165800 2.437800
34.194000 2.809100
34.222200 3.104500
34.250400 3.117200
34.278600 2.983800
34.306800 2.968200
34.335100 2.981500
34.363300 2.894400
34.391500 2.903100
34.419700 3.075600
34.447900 3.111700
34.476100 2.824200
34.504300 2.445900
34.532600 2.230600
34.560800 2.146200
34.589000 2.118400
34.617200 2.226200
34.645400 2.532700
34.673600 2.910500
34.701900 3.159800
34.730100 3.161700
34.758300 3.169400
34.786500 3.481000
34.814700 3.776400
34.842900 3.854800
34.871100 3.820300
34.899400 3.527200
34.927600 3.112800
34.955800 2.982700
34.984000 3.205200
35.012200 3.473000
35.040400 3.402600
35.068600 2.959200
35.096900 2.528300
35.125100 2.450900
35.153300 2.540500
35.181500 2.462500
35.209700 2.341500
35.237900 2.476900
35.266200 2.850400
35.294400 3.122300
35.322600 3.071400
35.350800 2.855900
35.379000 2.577600
35.407200 2.231000
35.435400 1.996200
35.463700 2.131800
35.491900 2.701800
35.520100 3.316900
35.548300 3.508300
35.576500 3.219100
35.604700 2.722300
35.632900 2.411700
35.661200 2.394300
35.689400 2.506800
35.717600 2.576300
35.745800 2.550200
35.774000 2.722400
35.802200 3.232800
35.830400 3.746600
35.858700 3.981100
35.886900 3.839900
35.915100 3.403900
35.943300 2.897800
35.971500 2.446900
35.999700 2.198000
36.028000 2.174600
36.056200 2.332900
36.084400 2.626200
36.112600 2.831800
36.140800 2.873600
36.169000 3.008700
36.197200 3.406600
36.225500 3.747800
36.253700 3.636200
36.281900 3.153700
36.310100 2.530100
36.338300 1.979200
36.366500 1.715100
36.394700 1.725700
36.423000 2.031900
36.451200 2.509300
36.479400 2.653000
36.507600 2.399200
36.535800 2.252300
36.564000 2.395600
36.592300 2.702100
36.620500 3.043100
36.648700 3.194000
36.676900 3.236000
36.705100 3.260900
36.733300 3.039500
36.761500 2.740400
36.789800 2.771100
36.818000 3.079000
36.846200 3.386000
36.874400 3.630300
36.902600 3.694200
36.930800 3.417900
36.959000 3.018100
36.987300 2.740600
37.015500 2.644500
37.043700 2.750800
37.071900 2.879100
37.100100 2.769600
37.128300 2.563800
37.156600 2.519900
37.184800 2.537900
37.213000 2.413400
37.241200 2.222700
37.269400 2.242300
37.297600 2.380800
37.325800 2.455900
37.354100 2.770400
37.382300 3.275500
37.410500 3.363400
37.438700 2.827200
37.466900 2.133800
37.495100 1.835100
37.523300 2.097900
37.551600 2.679900
37.579800 3.062300
37.608000 2.974800
37.636200 2.741600
37.664400 2.449300
37.692600 1.938800
37.720800 1.651500
37.749100 1.837800
37.777300 1.988500
37.805500 1.890100
37.833700 1.897300
37.861900 2.091500
37.890100 2.280100
37.918400 2.429300
37.946600 2.604400
37.974800 2.693300
38.003000 2.501000
38.031200 2.247300
38.059400 2.356800
38.087600 2.719100
38.115900 3.030700
38.144100 3.380900
38.172300 3.701100
38.200500 3.576800
38.228700 3.134800
38.256900 2.823200
38.285100 2.627600
38.313400 2.456400
38.341600 2.370600
38.369800 2.511200
38.398000 3.027600
38.426200 3.566400
38.454400 3.506300
38.482700 3.076500
38.510900 2.924700
38.539100 2.954400
38.567300 2.931900
38.595500 3.055000
38.623700 3.217600
38.651900 3.004600
38.680200 2.365000
38.708400 1.743600
38.736600 1.746800
38.764800 2.421900
38.793000 3.212700
38.821200 3.576400
38.849400 3.291800
38.877700 2.602300
38.905900 2.064500
38.934100 2.066900
38.962300 2.371700
38.990500 2.454200
39.018700 2.278600
39.046900 2.147000
39.075200 2.224600
39.103400 2.600100
39.131600 3.295800
39.159800 3.952300
39.188000 3.969100
39.216200 3.362000
39.244500 2.838100
39.272700 2.832200
39.300900 3.027300
39.329100 2.953200
39.357300 2.660800
39.385500 2.520300
39.413700 2.528900
39.442000 2.458800
39.470200 2.463000
39.498400 2.718500
39.526600 2.961200
39.554800 2.948800
39.583000 2.905000
39.611200 3.027100
39.639500 3.086000
39.667700 2.931300
39.695900 2.691300
39.724100 2.612200
39.752300 2.861800
39.780500 3.208100
39.808800 3.376400
39.837000 3.431200
39.865200 3.338400
39.893400 3.080000
39.921600 2.913900
39.949800 3.048800
39.978000 3.549300
40.006300 3.986300
40.034500 3.700000
40.062700 2.916900
40.090900 2.550000
40.119100 2.778700
40.147300 3.004500
40.175500 3.040900
40.203800 3.059100
40.232000 3.052700
40.260200 2.933400
40.288400 2.618900
40.316600 2.340800
40.344800 2.392100
40.373100 2.624400
40.401300 2.711400
40.429500 2.724300
40.457700 2.892800
40.485900 3.012600
40.514100 2.964100
40.542300 2.966100
40.570600 2.981200
40.598800 2.839000
40.627000 2.617500
40.655200 2.334500
40.683400 2.012400
40.711600 1.981400
40.739800 2.371000
40.768100 2.915800
40.796300 3.350400
40.824500 3.448700
40.852700 3.155300
40.880900 2.778700
40.909100 2.563700
40.937300 2.480700
40.965600 2.484800
40.993800 2.569400
41.022000 2.684700
41.050200 2.802900
41.078400 2.870900
41.106600 2.845000
41.134900 2.790200
41.163100 2.686600
41.191300 2.595500
41.219500 2.665700
41.247700 2.755100
41.275900 2.594600
41.304100 2.236900
41.332400 2.074500
41.360600 2.423100
41.388800 3.102300
41.417000 3.443100
41.445200 3.106000
41.473400 2.486300
41.501600 2.030500
41.529900 1.918700
41.558100 2.005700
41.586300 2.007800
41.614500 1.964800
41.642700 2.031600
41.670900 2.223900
41.699200 2.422000
41.727400 2.459800
41.755600 2.594900
41.783800 3.020000
41.812000 3.247400
41.840200 2.847300
41.868400 2.100600
41.896700 1.619000
41.924900 1.589900
41.953100 1.684500
41.981300 1.664600
42.009500 1.597300
42.037700 1.613900
42.065900 1.757800
42.094200 1.927100
42.122400 1.858300
42.150600 1.512100
42.178800 1.166600
42.207000 0.997300
42.235200 1.063900
42.263400 1.241600
42.291700 1.243300
42.319900 1.025500
42.348100 0.816700
42.376300 0.681300
42.404500 0.557300
42.432700 0.554800
42.461000 0.643500
42.489200 0.563400
42.517400 0.337500
42.545600 0.241700
42.573800 0.331700
42.602000 0.400300
42.630200 0.317900
42.658500 0.230800
42.686700 0.274300
42.714900 0.325900
42.743100 0.241200
42.771300 0.102100
42.799500 0.029600
42.827700 0.028800
42.856000 0.065000
42.884200 0.094700
42.912400 0.081100
42.940600 0.041000
42.968800 0.013900
42.997000 0.015500
43.025300 0.056600
43.053500 0.138100
43.081700 0.205400
43.109900 0.208300
43.138100 0.177700
43.166300 0.144600
43.194500 0.115500
43.222800 0.107100
43.251000 0.107700
43.279200 0.094300
43.307400 0.064800
43.335600 0.030800
43.363800 0.009000
43.392000 0.001500
43.420300 0.000100
43.448500 0.000000
43.476700 0.000000
43.504900 0.000000
43.533100 0.000000
43.561300 0.000000
43.589600 0.000000
43.617800 0.000000
43.646000 0.000000
43.674200 0.000000
43.702400 0.000000
43.730600 0.000000
43.758800 0.000000
43.787100 0.000000
43.815300 0.000000
43.843500 0.000000
43.871700 0.000000
43.899900 0.000000
43.928100 0.000000
43.956300 0.000000
43.984600 0.000000
44.012800 0.000000
44.041000 0.000000
44.069200 0.000000
44.097400 0.000000
44.125600 0.000000
44.153800 0.000000
44.182100 0.000000
44.210300 0.000000
44.238500 0.000000
44.266700 0.000000
44.294900 0.000000
44.323100 0.000000
44.351400 0.000000
44.379600 0.000000
44.407800 0.000000
44.436000 0.000000
44.464200 0.000000
44.492400 0.000000
44.520600 0.000000
44.548900 0.000000
44.577100 0.000000
44.605300 0.000000
44.633500 0.000000
44.661700 0.000000
44.689900 0.000000
44.718100 0.000000
44.746400 0.000000
44.774600 0.000000
44.802800 0.000000
44.831000 0.000000
44.859200 0.000000
44.887400 0.000000
44.915700 0.000000
44.943900 0.000000
44.972100 0.000000
45.000300 0.000000
45.028500 0.000000
45.056700 0.000000
45.084900 0.000000
45.113200 0.000000
45.141400 0.000000
45.169600 0.000000
45.197800 0.000000
45.226000 0.000000
45.254200 0.000000
45.282400 0.000000
45.310700 0.000000
45.338900 0.000000
45.367100 0.000000
45.395300 0.000000
45.423500 0.000000
45.451700 0.000000
45.479900 0.000000
45.508200 0.000000
45.536400 0.000000
45.564600 0.000000
45.592800 0.000000
45.621000 0.000000
45.649200 0.000000
45.677500 0.000000
45.705700 0.000000
45.733900 0.000000
45.762100 0.000000
45.790300 0.000000
45.818500 0.000000
45.846700 0.000000
e
