set title 'mp-1184425 - Density of States'
set xlabel 'Energy (eV)'
set ylabel 'DOS (states/eV)'
set grid
set xrange [-10:10]
set yrange [0:2.976]
set xzeroaxis lt -1
set terminal png size 800,600
set output 'mp-1184425_dos_gnuplot.png'
plot '-' using 1:2 with lines title 'DOS'
-14.357000 0.000000
-14.336700 0.000000
-14.316400 0.000000
-14.296100 0.000000
-14.275800 0.000000
-14.255600 0.000000
-14.235300 0.000000
-14.215000 0.000000
-14.194700 0.000000
-14.174400 0.000000
-14.154100 0.000000
-14.133900 0.000000
-14.113600 0.000000
-14.093300 0.000000
-14.073000 0.000000
-14.052700 0.000000
-14.032400 0.000000
-14.012200 0.000000
-13.991900 0.000000
-13.971600 0.000000
-13.951300 0.000000
-13.931000 0.000000
-13.910700 0.000000
-13.890500 0.000000
-13.870200 0.000000
-13.849900 0.000000
-13.829600 0.000000
-13.809300 0.000000
-13.789000 0.000000
-13.768800 0.000000
-13.748500 0.000000
-13.728200 0.000000
-13.707900 0.000000
-13.687600 0.000000
-13.667300 0.000000
-13.647100 0.000000
-13.626800 0.000000
-13.606500 0.000000
-13.586200 0.000000
-13.565900 0.000000
-13.545600 0.000000
-13.525400 0.000000
-13.505100 0.000000
-13.484800 0.000000
-13.464500 0.000000
-13.444200 0.000000
-13.423900 0.000000
-13.403700 0.000000
-13.383400 0.000000
-13.363100 0.000000
-13.342800 0.000000
-13.322500 0.000000
-13.302200 0.000000
-13.282000 0.000000
-13.261700 0.000000
-13.241400 0.000000
-13.221100 0.000000
-13.200800 0.000000
-13.180500 0.000000
-13.160300 0.000000
-13.140000 0.000000
-13.119700 0.000000
-13.099400 0.000000
-13.079100 0.000000
-13.058800 0.000000
-13.038600 0.000000
-13.018300 0.000000
-12.998000 0.000000
-12.977700 0.000000
-12.957400 0.000000
-12.937100 0.000000
-12.916900 0.000000
-12.896600 0.000000
-12.876300 0.000000
-12.856000 0.000000
-12.835700 0.000000
-12.815400 0.000000
-12.795200 0.000000
-12.774900 0.000000
-12.754600 0.000000
-12.734300 0.000000
-12.714000 0.000000
-12.693700 0.000000
-12.673500 0.000000
-12.653200 0.000000
-12.632900 0.000000
-12.612600 0.000000
-12.592300 0.000000
-12.572000 0.000000
-12.551800 0.000000
-12.531500 0.000000
-12.511200 25.061700
-12.490900 241.682700
-12.470600 55.828700
-12.450300 17.126700
-12.430100 0.000000
-12.409800 0.000000
-12.389500 0.000000
-12.369200 0.000000
-12.348900 0.000000
-12.328600 0.000000
-12.308400 0.000000
-12.288100 0.000000
-12.267800 0.000000
-12.247500 0.000000
-12.227200 0.000000
-12.206900 0.000000
-12.186700 0.000000
-12.166400 0.000000
-12.146100 0.000000
-12.125800 0.000000
-12.105500 0.000000
-12.085200 0.000000
-12.065000 0.000000
-12.044700 0.000000
-12.024400 0.000000
-12.004100 0.000000
-11.983800 0.000000
-11.963500 0.000000
-11.943300 0.000000
-11.923000 0.000000
-11.902700 0.000000
-11.882400 0.000000
-11.862100 0.000000
-11.841800 0.000000
-11.821600 0.000000
-11.801300 0.000000
-11.781000 0.000000
-11.760700 0.000000
-11.740400 0.000000
-11.720100 0.000000
-11.699900 0.000000
-11.679600 0.000000
-11.659300 0.000000
-11.639000 0.000000
-11.618700 0.000000
-11.598400 0.000000
-11.578200 0.000000
-11.557900 0.000000
-11.537600 0.000000
-11.517300 0.000000
-11.497000 0.000000
-11.476700 0.000000
-11.456500 0.000000
-11.436200 0.000000
-11.415900 0.000000
-11.395600 0.000000
-11.375300 0.000000
-11.355000 0.000000
-11.334800 0.000000
-11.314500 0.000000
-11.294200 0.000000
-11.273900 0.000000
-11.253600 0.000000
-11.233300 0.000000
-11.213100 0.000000
-11.192800 0.000000
-11.172500 0.000000
-11.152200 0.000000
-11.131900 0.000000
-11.111600 0.000000
-11.091400 0.000000
-11.071100 0.000000
-11.050800 0.000000
-11.030500 0.000000
-11.010200 0.000000
-10.989900 0.000000
-10.969700 0.000000
-10.949400 0.000000
-10.929100 0.000000
-10.908800 0.000000
-10.888500 0.000000
-10.868200 0.000000
-10.848000 0.000000
-10.827700 0.000000
-10.807400 0.000000
-10.787100 0.000000
-10.766800 0.000000
-10.746500 0.000000
-10.726300 0.000000
-10.706000 0.000000
-10.685700 0.000000
-10.665400 0.000000
-10.645100 0.000000
-10.624800 0.000000
-10.604600 0.000000
-10.584300 0.000000
-10.564000 0.000000
-10.543700 0.000000
-10.523400 45.130200
-10.503100 218.761600
-10.482900 164.174600
-10.462600 98.207900
-10.442300 193.797500
-10.422000 93.384200
-10.401700 44.437100
-10.381400 236.634200
-10.361200 200.735500
-10.340900 174.912300
-10.320600 0.000000
-10.300300 0.000000
-10.280000 0.000000
-10.259700 0.000000
-10.239500 0.000000
-10.219200 0.000000
-10.198900 0.000000
-10.178600 0.000000
-10.158300 0.000000
-10.138000 0.000000
-10.117800 0.000000
-10.097500 0.000000
-10.077200 0.000000
-10.056900 0.000000
-10.036600 0.000000
-10.016300 0.000000
-9.996100 0.000000
-9.975800 0.000000
-9.955500 0.000000
-9.935200 0.000000
-9.914900 0.000000
-9.894600 0.000000
-9.874400 0.000000
-9.854100 0.000000
-9.833800 0.000000
-9.813500 0.000000
-9.793200 0.000000
-9.772900 0.000000
-9.752700 0.000000
-9.732400 0.000000
-9.712100 0.000000
-9.691800 0.000000
-9.671500 0.000000
-9.651200 0.000000
-9.631000 0.000000
-9.610700 0.000000
-9.590400 0.000000
-9.570100 0.000000
-9.549800 0.000000
-9.529500 0.000000
-9.509300 0.000000
-9.489000 0.000000
-9.468700 0.000000
-9.448400 0.000000
-9.428100 0.000000
-9.407800 0.000000
-9.387600 0.000000
-9.367300 0.000000
-9.347000 0.000000
-9.326700 0.000000
-9.306400 0.000000
-9.286100 0.000000
-9.265900 0.000000
-9.245600 0.000000
-9.225300 0.000000
-9.205000 0.000000
-9.184700 0.000000
-9.164400 0.000000
-9.144200 0.000000
-9.123900 0.000000
-9.103600 0.000000
-9.083300 0.000000
-9.063000 0.000000
-9.042700 0.000000
-9.022500 0.000000
-9.002200 0.000000
-8.981900 0.000000
-8.961600 0.000000
-8.941300 0.000000
-8.921000 0.000000
-8.900800 0.000000
-8.880500 0.000000
-8.860200 0.000000
-8.839900 0.000000
-8.819600 0.000000
-8.799300 0.000000
-8.779100 0.000000
-8.758800 0.000000
-8.738500 0.000000
-8.718200 0.000000
-8.697900 0.000000
-8.677600 0.000000
-8.657400 0.000000
-8.637100 0.000000
-8.616800 0.000000
-8.596500 0.000000
-8.576200 0.000000
-8.555900 0.000000
-8.535700 0.000000
-8.515400 0.000000
-8.495100 0.000000
-8.474800 0.000000
-8.454500 0.000000
-8.434200 0.000000
-8.414000 0.000000
-8.393700 0.000000
-8.373400 0.000000
-8.353100 0.000000
-8.332800 0.000000
-8.312500 0.000000
-8.292300 0.000000
-8.272000 0.000000
-8.251700 0.000000
-8.231400 0.000000
-8.211100 0.000000
-8.190800 0.000000
-8.170600 0.000000
-8.150300 0.000000
-8.130000 0.000000
-8.109700 0.000000
-8.089400 0.000000
-8.069100 0.000000
-8.048900 0.000000
-8.028600 0.000000
-8.008300 0.000000
-7.988000 0.000000
-7.967700 0.000000
-7.947400 0.000000
-7.927200 0.000000
-7.906900 0.000000
-7.886600 0.000000
-7.866300 0.000000
-7.846000 0.000000
-7.825700 0.000000
-7.805500 0.000000
-7.785200 0.000000
-7.764900 0.000000
-7.744600 0.000000
-7.724300 0.000000
-7.704000 0.000000
-7.683800 0.000000
-7.663500 0.000000
-7.643200 0.000000
-7.622900 0.000000
-7.602600 0.000000
-7.582300 0.000000
-7.562100 0.000000
-7.541800 0.000000
-7.521500 0.000000
-7.501200 0.000000
-7.480900 0.000000
-7.460600 0.000000
-7.440400 0.000000
-7.420100 0.000000
-7.399800 0.000000
-7.379500 0.000000
-7.359200 0.000000
-7.338900 0.000000
-7.318700 0.000000
-7.298400 0.000000
-7.278100 0.000000
-7.257800 0.000000
-7.237500 0.000000
-7.217200 0.000000
-7.197000 0.000000
-7.176700 0.000000
-7.156400 0.000000
-7.136100 0.000000
-7.115800 0.000000
-7.095500 0.000000
-7.075300 0.000000
-7.055000 0.000000
-7.034700 0.000000
-7.014400 0.000000
-6.994100 0.000000
-6.973800 0.000000
-6.953600 0.000000
-6.933300 0.000000
-6.913000 0.000000
-6.892700 0.000000
-6.872400 0.000000
-6.852100 0.000000
-6.831900 0.000000
-6.811600 0.000000
-6.791300 0.000000
-6.771000 0.000000
-6.750700 0.000000
-6.730400 0.000000
-6.710200 0.000000
-6.689900 0.000000
-6.669600 0.000000
-6.649300 0.000000
-6.629000 0.000000
-6.608700 0.000600
-6.588500 0.017900
-6.568200 0.059200
-6.547900 0.124500
-6.527600 0.162100
-6.507300 0.168600
-6.487000 0.187600
-6.466800 0.210200
-6.446500 0.236400
-6.426200 0.265700
-6.405900 0.291200
-6.385600 0.304800
-6.365300 0.305600
-6.345100 0.315900
-6.324800 0.324300
-6.304500 0.337300
-6.284200 0.350800
-6.263900 0.364800
-6.243600 0.379300
-6.223400 0.395000
-6.203100 0.411800
-6.182800 0.429800
-6.162500 0.438600
-6.142200 0.446100
-6.121900 0.455400
-6.101700 0.463900
-6.081400 0.471600
-6.061100 0.478600
-6.040800 0.485600
-6.020500 0.493600
-6.000200 0.506300
-5.980000 0.517800
-5.959700 0.529700
-5.939400 0.541800
-5.919100 0.554200
-5.898800 0.567000
-5.878500 0.579200
-5.858300 0.590000
-5.838000 0.599400
-5.817700 0.606500
-5.797400 0.613200
-5.777100 0.620900
-5.756800 0.629600
-5.736600 0.639200
-5.716300 0.649600
-5.696000 0.660100
-5.675700 0.670400
-5.655400 0.680600
-5.635100 0.690600
-5.614900 0.701300
-5.594600 0.712400
-5.574300 0.723800
-5.554000 0.735500
-5.533700 0.747600
-5.513400 0.759900
-5.493200 0.772400
-5.472900 0.785800
-5.452600 0.798600
-5.432300 0.811600
-5.412000 0.824000
-5.391700 0.837200
-5.371500 0.850600
-5.351200 0.864700
-5.330900 0.879800
-5.310600 0.896200
-5.290300 0.913800
-5.270000 0.932100
-5.249800 0.951200
-5.229500 0.971200
-5.209200 0.992300
-5.188900 1.014900
-5.168600 1.039000
-5.148300 1.066500
-5.128100 1.100200
-5.107800 1.139400
-5.087500 1.184600
-5.067200 1.236600
-5.046900 1.290300
-5.026600 1.336300
-5.006400 1.376800
-4.986100 1.412000
-4.965800 1.449200
-4.945500 1.506000
-4.925200 1.566000
-4.904900 1.577700
-4.884700 1.544900
-4.864400 1.506000
-4.844100 1.455900
-4.823800 1.424800
-4.803500 1.413900
-4.783200 1.418200
-4.763000 1.422100
-4.742700 1.425400
-4.722400 1.430000
-4.702100 1.426500
-4.681800 1.413900
-4.661500 1.394100
-4.641300 1.455400
-4.621000 1.442400
-4.600700 1.479300
-4.580400 1.528300
-4.560100 1.602700
-4.539800 1.660700
-4.519600 1.659800
-4.499300 1.639300
-4.479000 1.594000
-4.458700 1.536700
-4.438400 1.457400
-4.418100 1.260700
-4.397900 0.958700
-4.377600 0.802800
-4.357300 0.699800
-4.337000 0.601300
-4.316700 0.565700
-4.296400 0.617100
-4.276200 0.558300
-4.255900 0.301000
-4.235600 0.174400
-4.215300 0.072300
-4.195000 0.001000
-4.174700 0.000000
-4.154500 0.000000
-4.134200 0.000000
-4.113900 0.000000
-4.093600 0.000000
-4.073300 0.000000
-4.053000 0.000000
-4.032700 0.000000
-4.012500 0.000000
-3.992200 0.000000
-3.971900 0.000000
-3.951600 0.000000
-3.931300 0.000000
-3.911000 0.000000
-3.890800 0.000000
-3.870500 0.000000
-3.850200 0.000000
-3.829900 0.000000
-3.809600 0.000000
-3.789300 0.000000
-3.769100 0.000000
-3.748800 0.000000
-3.728500 0.000000
-3.708200 0.000000
-3.687900 0.000000
-3.667600 0.000000
-3.647400 0.000000
-3.627100 0.000000
-3.606800 0.000000
-3.586500 0.000000
-3.566200 0.000000
-3.545900 0.000000
-3.525700 0.000000
-3.505400 0.000000
-3.485100 0.000000
-3.464800 0.000000
-3.444500 0.000000
-3.424200 0.000000
-3.404000 0.164600
-3.383700 0.266600
-3.363400 0.201900
-3.343100 0.228700
-3.322800 0.258200
-3.302500 0.290500
-3.282300 0.325500
-3.262000 0.363200
-3.241700 0.403700
-3.221400 0.446900
-3.201100 0.508100
-3.180800 0.581500
-3.160600 0.578700
-3.140300 0.580400
-3.120000 0.596100
-3.099700 0.620600
-3.079400 0.645600
-3.059100 0.666600
-3.038900 0.683600
-3.018600 0.696700
-2.998300 0.715300
-2.978000 0.742700
-2.957700 0.772000
-2.937400 0.802800
-2.917200 0.884300
-2.896900 0.941700
-2.876600 1.002700
-2.856300 1.067400
-2.836000 1.139900
-2.815700 1.198600
-2.795500 1.275000
-2.775200 1.360300
-2.754900 1.452700
-2.734600 1.608300
-2.714300 1.733700
-2.694000 1.889600
-2.673800 2.073200
-2.653500 2.326000
-2.633200 2.271900
-2.612900 2.156300
-2.592600 2.098600
-2.572300 2.049500
-2.552100 2.019000
-2.531800 2.007700
-2.511500 1.908500
-2.491200 1.821000
-2.470900 1.768700
-2.450600 1.752300
-2.430400 1.827300
-2.410100 1.840700
-2.389800 1.716700
-2.369500 1.593500
-2.349200 1.469000
-2.328900 1.377400
-2.308700 1.331200
-2.288400 1.071600
-2.268100 0.959400
-2.247800 0.912000
-2.227500 0.903400
-2.207200 0.889500
-2.187000 0.879600
-2.166700 0.873800
-2.146400 0.874400
-2.126100 0.895500
-2.105800 0.926400
-2.085500 0.956200
-2.065300 0.978100
-2.045000 0.989000
-2.024700 0.994500
-2.004400 1.004300
-1.984100 1.015300
-1.963800 1.026900
-1.943600 1.039100
-1.923300 1.051900
-1.903000 1.081600
-1.882700 1.128300
-1.862400 1.175700
-1.842100 1.221900
-1.821900 1.265100
-1.801600 1.305300
-1.781300 1.342500
-1.761000 1.345500
-1.740700 1.319500
-1.720400 1.267100
-1.700200 1.270700
-1.679900 1.273000
-1.659600 1.271800
-1.639300 1.267500
-1.619000 1.260800
-1.598700 1.251900
-1.578500 1.246900
-1.558200 1.308800
-1.537900 1.410900
-1.517600 1.305300
-1.497300 1.312200
-1.477000 1.316100
-1.456800 1.317800
-1.436500 1.319200
-1.416200 1.322700
-1.395900 1.334000
-1.375600 1.352400
-1.355300 1.354000
-1.335100 1.352800
-1.314800 1.353800
-1.294500 1.359900
-1.274200 1.365400
-1.253900 1.370300
-1.233600 1.374400
-1.213400 1.378800
-1.193100 1.382900
-1.172800 1.386400
-1.152500 1.390700
-1.132200 1.416500
-1.111900 1.467200
-1.091700 1.441900
-1.071400 1.447800
-1.051100 1.450000
-1.030800 1.455000
-1.010500 1.459900
-0.990200 1.464300
-0.970000 1.468000
-0.949700 1.495300
-0.929400 1.496000
-0.909100 1.497200
-0.888800 1.500200
-0.868500 1.504600
-0.848300 1.509500
-0.828000 1.513700
-0.807700 1.520000
-0.787400 1.531400
-0.767100 1.546500
-0.746800 1.562300
-0.726600 1.578400
-0.706300 1.594100
-0.686000 1.606500
-0.665700 1.613500
-0.645400 1.619100
-0.625100 1.650300
-0.604900 1.655200
-0.584600 1.661500
-0.564300 1.671100
-0.544000 1.678700
-0.523700 1.685500
-0.503400 1.695800
-0.483200 1.706300
-0.462900 1.716100
-0.442600 1.725600
-0.422300 1.736900
-0.402000 1.749200
-0.381700 1.761300
-0.361500 1.741700
-0.341200 1.746500
-0.320900 1.750900
-0.300600 1.755400
-0.280300 1.757200
-0.260000 1.760300
-0.239800 1.764200
-0.219500 1.768800
-0.199200 1.739600
-0.178900 1.715300
-0.158600 1.700200
-0.138300 1.712100
-0.118100 1.711800
-0.097800 1.704900
-0.077500 1.695700
-0.057200 1.676900
-0.036900 1.650000
-0.016600 1.622500
0.003600 1.596500
0.023900 1.570300
0.044200 1.544700
0.064500 1.516100
0.084800 1.487500
0.105100 1.459500
0.125300 1.460400
0.145600 1.407200
0.165900 1.365600
0.186200 1.326700
0.206500 1.285400
0.226800 1.239800
0.247000 1.195500
0.267300 1.165100
0.287600 1.148100
0.307900 1.137200
0.328200 1.122600
0.348500 1.097600
0.368700 1.066900
0.389000 1.039000
0.409300 1.011800
0.429600 0.996900
0.449900 0.985900
0.470200 0.975100
0.490400 0.957000
0.510700 0.940400
0.531000 0.925900
0.551300 0.912000
0.571600 0.898500
0.591900 0.885100
0.612100 0.871900
0.632400 0.859000
0.652700 0.846300
0.673000 0.834800
0.693300 0.824200
0.713600 0.866100
0.733800 0.843400
0.754100 0.844400
0.774400 0.841800
0.794700 0.835600
0.815000 0.829500
0.835300 0.823600
0.855500 0.819600
0.875800 0.840400
0.896100 0.845100
0.916400 0.839500
0.936700 0.855000
0.957000 0.881500
0.977200 0.916100
0.997500 0.884900
1.017800 0.883500
1.038100 0.881500
1.058400 0.879700
1.078700 0.878000
1.098900 0.916900
1.119200 0.967300
1.139500 0.844400
1.159800 0.830500
1.180100 0.825700
1.200400 0.824800
1.220600 0.825700
1.240900 0.828400
1.261200 0.834800
1.281500 0.848900
1.301800 0.863700
1.322100 0.878900
1.342300 0.893500
1.362600 0.907600
1.382900 0.916800
1.403200 0.923300
1.423500 0.946400
1.443800 0.955000
1.464000 0.963100
1.484300 0.971300
1.504600 0.980500
1.524900 0.990700
1.545200 1.001500
1.565500 1.018300
1.585700 1.039700
1.606000 1.059000
1.626300 1.078300
1.646600 1.097500
1.666900 1.138700
1.687200 1.161000
1.707400 1.164500
1.727700 1.167900
1.748000 1.156000
1.768300 1.155600
1.788600 1.164800
1.808900 1.175200
1.829100 1.186900
1.849400 1.199900
1.869700 1.214900
1.890000 1.235400
1.910300 1.259500
1.930600 1.278700
1.950800 1.298400
1.971100 1.322300
1.991400 1.340900
2.011700 1.359600
2.032000 1.366400
2.052300 1.385900
2.072500 1.409300
2.092800 1.438400
2.113100 1.473400
2.133400 1.502300
2.153700 1.525000
2.174000 1.549000
2.194200 1.574100
2.214500 1.600400
2.234800 1.628200
2.255100 1.656300
2.275400 1.683400
2.295700 1.709400
2.315900 1.735500
2.336200 1.761100
2.356500 1.786300
2.376800 1.811200
2.397100 1.852400
2.417400 1.924600
2.437600 2.006900
2.457900 2.011800
2.478200 2.011400
2.498500 2.010600
2.518800 2.010300
2.539100 2.013900
2.559300 2.022700
2.579600 2.034000
2.599900 2.040800
2.620200 2.043300
2.640500 2.041900
2.660800 2.042500
2.681000 2.048400
2.701300 2.077200
2.721600 2.079600
2.741900 2.090300
2.762200 2.083300
2.782500 2.066200
2.802700 2.036300
2.823000 2.013000
2.843300 1.964000
2.863600 1.892000
2.883900 1.846900
2.904200 1.809300
2.924400 1.779000
2.944700 1.755300
2.965000 1.732800
2.985300 1.705800
3.005600 1.695100
3.025900 1.744900
3.046100 1.788200
3.066400 1.869500
3.086700 1.971300
3.107000 2.135100
3.127300 2.236300
3.147600 2.348100
3.167800 2.514700
3.188100 2.519000
3.208400 2.370100
3.228700 2.330100
3.249000 2.280100
3.269300 2.201500
3.289500 2.109900
3.309800 2.050000
3.330100 2.006900
3.350400 1.967300
3.370700 1.930600
3.391000 1.895800
3.411200 1.865600
3.431500 1.833200
3.451800 1.804800
3.472100 1.782100
3.492400 1.770900
3.512700 1.760600
3.532900 1.733800
3.553200 1.669700
3.573500 1.595900
3.593800 1.544000
3.614100 1.486200
3.634400 1.224600
3.654600 1.195400
3.674900 1.167700
3.695200 1.152100
3.715500 1.164100
3.735800 1.168300
3.756100 1.174000
3.776300 1.186600
3.796600 1.207500
3.816900 1.232100
3.837200 1.260300
3.857500 1.292000
3.877800 1.331200
3.898000 1.384000
3.918300 1.442300
3.938600 1.505300
3.958900 1.575300
3.979200 1.650800
3.999500 1.728500
4.019700 1.808700
4.040000 1.840300
4.060300 1.855500
4.080600 1.866300
4.100900 1.872500
4.121200 1.879300
4.141400 1.947500
4.161700 2.016900
4.182000 2.117900
4.202300 2.063600
4.222600 1.963800
4.242900 1.880400
4.263100 1.815600
4.283400 1.771000
4.303700 1.859300
4.324000 1.876800
4.344300 1.853400
4.364600 1.855000
4.384800 1.825700
4.405100 1.802900
4.425400 1.781100
4.445700 1.771100
4.466000 1.743800
4.486300 1.732300
4.506500 1.728100
4.526800 1.726100
4.547100 1.725900
4.567400 1.733800
4.587700 1.749100
4.608000 1.759900
4.628200 1.780600
4.648500 1.805300
4.668800 1.836400
4.689100 1.869000
4.709400 1.900500
4.729700 1.930100
4.749900 1.949900
4.770200 1.949500
4.790500 1.969800
4.810800 1.955800
4.831100 1.960300
4.851400 1.929800
4.871600 1.907300
4.891900 1.890200
4.912200 1.879800
4.932500 1.893800
4.952800 1.946700
4.973100 2.002100
4.993300 1.996200
5.013600 1.972500
5.033900 1.947800
5.054200 1.903400
5.074500 1.882100
5.094800 1.884800
5.115000 1.900700
5.135300 1.925000
5.155600 1.953100
5.175900 1.997300
5.196200 2.091500
5.216500 2.074000
5.236700 2.041300
5.257000 2.042600
5.277300 2.044100
5.297600 2.043400
5.317900 2.048300
5.338200 2.045000
5.358400 2.068700
5.378700 2.084800
5.399000 2.175900
5.419300 2.116300
5.439600 2.112900
5.459900 2.118300
5.480100 2.118000
5.500400 2.109000
5.520700 2.117900
5.541000 2.131600
5.561300 2.150900
5.581600 2.167800
5.601800 2.159400
5.622100 2.115300
5.642400 2.078500
5.662700 2.076100
5.683000 2.098400
5.703300 2.106500
5.723500 2.104600
5.743800 2.140500
5.764100 2.178600
5.784400 2.184100
5.804700 2.168500
5.825000 2.156100
5.845200 2.152500
5.865500 2.152500
5.885800 2.148200
5.906100 2.147600
5.926400 2.238600
5.946700 2.157300
5.966900 2.160600
5.987200 2.156100
6.007500 2.167800
6.027800 2.171700
6.048100 2.168600
6.068400 2.155200
6.088600 2.141200
6.108900 2.126400
6.129200 2.113100
6.149500 2.128500
6.169800 2.156400
6.190100 2.182700
6.210300 2.176700
6.230600 2.122800
6.250900 2.112900
6.271200 2.106600
6.291500 2.095900
6.311800 2.076600
6.332000 2.054000
6.352300 2.031100
6.372600 2.007600
6.392900 1.982500
6.413200 1.965100
6.433500 1.934000
6.453700 1.906900
6.474000 1.863700
6.494300 1.844900
6.514600 1.824300
6.534900 1.870100
6.555200 1.837000
6.575400 1.805600
6.595700 1.754400
6.616000 1.748600
6.636300 1.758700
6.656600 1.776500
6.676900 1.800000
6.697100 1.827800
6.717400 1.856900
6.737700 1.883900
6.758000 1.935100
6.778300 1.946000
6.798600 1.981100
6.818800 2.019300
6.839100 2.057000
6.859400 2.094000
6.879700 2.130000
6.900000 2.165300
6.920300 2.198100
6.940500 2.228900
6.960800 2.263900
6.981100 2.329400
7.001400 2.301600
7.021700 2.322300
7.042000 2.348200
7.062200 2.380500
7.082500 2.420300
7.102800 2.470100
7.123100 2.496800
7.143400 2.545400
7.163700 2.528700
7.183900 2.471200
7.204200 2.465500
7.224500 2.443700
7.244800 2.341800
7.265100 2.312700
7.285400 2.311000
7.305600 2.309200
7.325900 2.303800
7.346200 2.271200
7.366500 2.248700
7.386800 2.228700
7.407100 2.211200
7.427300 2.196100
7.447600 2.182100
7.467900 2.174200
7.488200 2.158500
7.508500 2.196900
7.528800 2.149100
7.549000 2.136500
7.569300 2.129800
7.589600 2.126000
7.609900 2.116700
7.630200 2.101200
7.650500 2.083900
7.670700 2.066400
7.691000 2.048400
7.711300 2.031000
7.731600 2.021100
7.751900 2.016300
7.772200 2.014500
7.792400 2.014500
7.812700 2.016500
7.833000 2.021500
7.853300 2.020200
7.873600 2.024400
7.893900 2.037200
7.914100 2.056300
7.934400 2.313500
7.954700 2.412000
7.975000 2.492000
7.995300 2.504500
8.015600 2.504900
8.035800 2.502800
8.056100 2.499400
8.076400 2.492800
8.096700 2.474400
8.117000 2.458600
8.137300 2.470000
8.157500 2.449100
8.177800 2.433200
8.198100 2.418200
8.218400 2.377300
8.238700 2.320400
8.259000 2.296000
8.279200 2.285500
8.299500 2.298000
8.319800 2.315300
8.340100 2.323100
8.360400 2.337600
8.380700 2.362100
8.400900 2.396900
8.421200 2.567300
8.441500 2.471500
8.461800 2.504100
8.482100 2.503700
8.502400 2.494500
8.522600 2.454300
8.542900 2.416200
8.563200 2.367300
8.583500 2.310800
8.603800 2.238800
8.624100 2.203000
8.644300 2.128500
8.664600 2.060200
8.684900 2.038500
8.705200 2.010600
8.725500 2.004600
8.745800 2.010600
8.766000 2.021500
8.786300 2.016300
8.806600 2.005700
8.826900 1.995000
8.847200 1.980900
8.867500 1.990800
8.887700 1.962500
8.908000 1.935700
8.928300 1.920800
8.948600 1.907100
8.968900 1.906700
8.989200 1.927100
9.009400 1.930900
9.029700 1.878000
9.050000 1.882400
9.070300 1.907700
9.090600 1.945100
9.110900 1.998700
9.131100 2.155400
9.151400 2.237800
9.171700 2.307500
9.192000 2.404600
9.212300 2.551700
9.232600 2.650200
9.252800 2.705900
9.273100 2.660800
9.293400 2.600900
9.313700 2.497700
9.334000 2.428000
9.354300 2.314900
9.374500 2.225400
9.394800 2.115700
9.415100 2.036700
9.435400 1.975500
9.455700 1.939800
9.476000 1.904100
9.496200 1.871400
9.516500 1.853600
9.536800 1.862200
9.557100 1.876100
9.577400 1.908800
9.597700 1.934200
9.617900 1.956500
9.638200 1.976000
9.658500 2.000100
9.678800 2.039500
9.699100 2.077800
9.719400 2.113800
9.739600 2.144100
9.759900 2.156600
9.780200 2.178800
9.800500 2.320200
9.820800 2.369600
9.841100 2.426500
9.861300 2.415300
9.881600 2.402700
9.901900 2.362400
9.922200 2.389300
9.942500 2.395300
9.962800 2.400300
9.983000 2.395500
10.003300 2.383100
10.023600 2.377000
10.043900 2.371400
10.064200 2.368400
10.084500 2.366400
10.104700 2.365600
10.125000 2.366500
10.145300 2.371700
10.165600 2.382700
10.185900 2.392700
10.206200 2.408100
10.226400 2.457500
10.246700 2.616300
10.267000 2.823800
10.287300 2.891300
10.307600 2.893400
10.327900 2.903000
10.348100 2.916400
10.368400 2.944500
10.388700 2.994100
10.409000 3.085400
10.429300 3.205200
10.449600 3.278500
10.469800 3.163100
10.490100 3.049400
10.510400 2.982900
10.530700 2.969800
10.551000 3.044600
10.571300 2.983600
10.591500 2.941000
10.611800 2.833400
10.632100 2.710500
10.652400 2.618500
10.672700 2.547100
10.693000 2.520300
10.713200 2.493700
10.733500 2.466700
10.753800 2.443300
10.774100 2.426800
10.794400 2.459200
10.814700 2.467400
10.834900 2.460500
10.855200 2.453200
10.875500 2.415100
10.895800 2.402400
10.916100 2.448300
10.936400 2.504800
10.956600 2.578000
10.976900 2.571500
10.997200 2.568300
11.017500 2.546900
11.037800 2.563600
11.058100 2.584800
11.078300 2.575700
11.098600 2.806800
11.118900 2.956600
11.139200 3.070800
11.159500 2.887700
11.179800 2.867600
11.200000 2.890000
11.220300 2.930200
11.240600 2.987300
11.260900 3.023100
11.281200 3.122600
11.301500 3.123000
11.321700 3.091900
11.342000 3.121500
11.362300 3.209600
11.382600 3.265300
11.402900 3.290400
11.423200 3.342400
11.443400 3.385500
11.463700 3.455600
11.484000 3.533700
11.504300 3.606800
11.524600 3.625400
11.544900 3.601800
11.565100 3.508400
11.585400 3.396600
11.605700 3.333700
11.626000 3.244700
11.646300 3.175900
11.666600 3.129200
11.686800 3.117800
11.707100 3.102900
11.727400 3.055400
11.747700 2.966100
11.768000 2.524400
11.788300 2.411300
11.808500 2.292400
11.828800 2.215400
11.849100 2.153500
11.869400 2.124300
11.889700 2.094900
11.910000 2.071700
11.930200 2.067300
11.950500 2.074300
11.970800 2.097900
11.991100 2.138300
12.011400 2.184600
12.031700 2.224500
12.051900 2.254000
12.072200 2.286900
12.092500 2.334400
12.112800 2.391300
12.133100 2.463700
12.153400 2.631300
12.173600 2.534000
12.193900 2.459400
12.214200 2.363300
12.234500 2.324600
12.254800 2.370700
12.275100 2.344200
12.295300 2.346100
12.315600 2.362700
12.335900 2.388500
12.356200 2.419100
12.376500 2.452400
12.396800 2.487700
12.417000 2.509200
12.437300 2.484300
12.457600 2.453000
12.477900 2.436800
12.498200 2.412800
12.518500 2.385900
12.538700 2.366500
12.559000 2.307900
12.579300 2.250400
12.599600 2.190000
12.619900 2.117500
12.640200 2.034500
12.660500 1.965900
12.680700 1.855600
12.701000 1.750300
12.721300 1.676700
12.741600 1.612400
12.761900 1.548800
12.782200 1.498700
12.802400 1.458100
12.822700 1.427900
12.843000 1.410700
12.863300 1.405300
12.883600 1.409600
12.903900 1.408600
12.924100 1.404600
12.944400 1.361400
12.964700 1.350900
12.985000 1.341100
13.005300 1.333300
13.025600 1.328000
13.045800 1.333300
13.066100 1.336700
13.086400 1.334700
13.106700 1.333200
13.127000 1.339300
13.147300 1.324700
13.167500 1.298300
13.187800 1.259100
13.208100 1.214300
13.228400 1.175600
13.248700 1.146600
13.269000 1.121800
13.289200 1.099000
13.309500 1.077200
13.329800 1.056700
13.350100 1.038700
13.370400 1.037000
13.390700 1.028200
13.410900 1.022800
13.431200 1.021100
13.451500 1.001300
13.471800 1.001300
13.492100 1.004000
13.512400 1.008700
13.532600 1.015000
13.552900 1.022600
13.573200 1.029100
13.593500 1.043000
13.613800 1.091700
13.634100 1.045500
13.654300 1.052300
13.674600 1.061400
13.694900 1.072900
13.715200 1.087200
13.735500 1.103800
13.755800 1.121700
13.776000 1.179000
13.796300 1.235400
13.816600 1.222400
13.836900 1.201300
13.857200 1.212900
13.877500 1.227800
13.897700 1.271000
13.918000 1.305700
13.938300 1.374400
13.958600 1.359200
13.978900 1.360100
13.999200 1.370900
14.019400 1.383300
14.039700 1.395200
14.060000 1.395900
14.080300 1.383500
14.100600 1.392900
14.120900 1.415800
14.141100 1.421900
14.161400 1.429900
14.181700 1.440200
14.202000 1.452900
14.222300 1.468100
14.242600 1.487600
14.262800 1.487700
14.283100 1.504500
14.303400 1.522500
14.323700 1.540000
14.344000 1.557200
14.364300 1.580300
14.384500 1.622000
14.404800 1.701100
14.425100 1.779500
14.445400 1.805800
14.465700 1.823700
14.486000 1.792100
14.506200 1.854500
14.526500 1.866300
14.546800 1.885200
14.567100 1.900700
14.587400 1.924800
14.607700 1.948300
14.627900 1.968300
14.648200 1.985300
14.668500 2.003600
14.688800 2.029600
14.709100 2.071200
14.729400 2.116300
14.749600 2.195500
14.769900 2.319700
14.790200 2.286800
14.810500 2.357200
14.830800 2.415100
14.851100 2.434600
14.871300 2.443100
14.891600 2.453200
14.911900 2.473400
14.932200 2.495000
14.952500 2.469300
14.972800 2.475300
14.993000 2.541100
15.013300 2.623600
15.033600 2.687200
15.053900 2.649500
15.074200 2.633100
15.094500 2.677100
15.114700 2.710300
15.135000 2.748500
15.155300 2.798800
15.175600 2.853200
15.195900 2.932600
15.216200 2.738800
15.236400 2.391200
15.256700 2.245700
15.277000 2.114900
15.297300 2.092600
15.317600 2.092300
15.337900 2.095100
15.358100 2.104400
15.378400 2.122800
15.398700 2.149600
15.419000 2.207700
15.439300 2.388700
15.459600 2.520400
15.479800 2.656700
15.500100 2.638000
15.520400 2.585400
15.540700 2.549000
15.561000 2.524700
15.581300 2.492300
15.601500 2.340400
15.621800 2.343900
15.642100 2.350000
15.662400 2.387800
15.682700 2.466300
15.703000 2.691200
15.723200 2.705000
15.743500 2.749900
15.763800 2.751600
15.784100 2.779900
15.804400 2.746300
15.824700 2.756200
15.844900 2.772700
15.865200 2.780500
15.885500 2.775000
15.905800 2.841400
15.926100 3.022600
15.946400 3.212200
15.966600 3.363600
15.986900 3.140900
16.007200 3.028100
16.027500 2.983400
16.047800 2.977600
16.068100 2.979200
16.088300 2.970900
16.108600 2.965800
16.128900 2.960500
16.149200 2.828600
16.169500 2.770400
16.189800 2.716700
16.210000 2.691600
16.230300 2.630900
16.250600 2.613500
16.270900 2.636700
16.291200 2.672000
16.311500 2.695200
16.331700 2.672200
16.352000 2.633500
16.372300 2.685400
16.392600 2.710200
16.412900 2.730200
16.433200 2.760800
16.453400 2.823300
16.473700 2.912700
16.494000 2.983100
16.514300 3.061300
16.534600 3.184500
16.554900 3.294700
16.575100 3.281600
16.595400 3.266000
16.615700 3.199900
16.636000 3.143300
16.656300 3.114300
16.676600 3.086600
16.696800 3.075800
16.717100 3.091100
16.737400 3.194400
16.757700 3.225900
16.778000 3.254600
16.798300 3.283500
16.818500 3.304200
16.838800 3.324200
16.859100 3.356300
16.879400 3.380200
16.899700 3.400000
16.920000 3.407400
16.940200 3.352200
16.960500 3.324800
16.980800 3.276100
17.001100 3.289300
17.021400 3.321600
17.041700 3.325800
17.061900 3.334300
17.082200 3.368500
17.102500 3.363300
17.122800 3.351400
17.143100 3.307900
17.163400 3.229100
17.183600 3.161400
17.203900 3.106900
17.224200 3.064000
17.244500 3.030800
17.264800 3.004700
17.285100 2.984700
17.305300 2.968900
17.325600 2.944100
17.345900 2.922400
17.366200 2.924100
17.386500 2.938100
17.406800 2.947000
17.427000 2.941600
17.447300 2.969900
17.467600 2.999100
17.487900 3.035700
17.508200 3.075300
17.528500 3.148200
17.548700 3.197700
17.569000 3.271900
17.589300 3.348000
17.609600 3.410700
17.629900 3.461800
17.650200 3.479700
17.670400 3.460700
17.690700 3.444800
17.711000 3.437000
17.731300 3.438400
17.751600 3.435100
17.771900 3.437700
17.792100 3.418800
17.812400 3.397400
17.832700 3.374100
17.853000 3.346500
17.873300 3.308700
17.893600 3.270000
17.913800 3.259600
17.934100 3.327300
17.954400 3.247400
17.974700 3.149200
17.995000 3.153000
18.015300 3.105400
18.035500 3.078300
18.055800 3.052500
18.076100 3.028800
18.096400 3.013500
18.116700 3.005100
18.137000 3.007200
18.157200 3.039300
18.177500 3.067600
18.197800 3.056300
18.218100 3.045200
18.238400 3.044800
18.258700 3.066500
18.278900 3.117200
18.299200 3.271700
18.319500 3.342400
18.339800 3.262700
18.360100 3.257200
18.380400 3.208600
18.400600 3.138300
18.420900 3.113700
18.441200 3.141900
18.461500 3.200800
18.481800 3.306300
18.502100 3.340000
18.522300 3.330200
18.542600 3.271200
18.562900 3.231300
18.583200 3.195100
18.603500 3.161700
18.623800 3.162000
18.644000 3.239200
18.664300 2.996700
18.684600 2.960400
18.704900 2.923200
18.725200 2.894000
18.745500 2.871400
18.765700 2.862200
18.786000 2.862000
18.806300 2.868800
18.826600 2.876600
18.846900 2.879000
18.867200 2.873700
18.887400 2.872800
18.907700 2.878300
18.928000 2.891900
18.948300 2.915600
18.968600 2.945700
18.988900 2.972400
19.009100 3.006400
19.029400 3.097600
19.049700 3.234700
19.070000 3.332200
19.090300 3.371600
19.110600 3.384000
19.130800 3.404800
19.151100 3.427900
19.171400 3.450400
19.191700 3.475200
19.212000 3.535400
19.232300 3.585900
19.252500 3.629300
19.272800 3.666300
19.293100 3.690500
19.313400 3.591100
19.333700 3.552900
19.354000 3.525400
19.374200 3.470800
19.394500 3.451900
19.414800 3.416900
19.435100 3.366600
19.455400 3.319700
19.475700 3.304600
19.495900 3.293500
19.516200 3.284700
19.536500 3.280600
19.556800 3.270900
19.577100 3.257500
19.597400 3.254000
19.617600 3.250700
19.637900 3.244600
19.658200 3.237500
19.678500 3.234000
19.698800 3.229700
19.719100 3.221100
19.739300 3.221600
19.759600 3.210600
19.779900 3.189100
19.800200 3.175200
19.820500 3.151500
19.840800 3.142100
19.861000 3.174500
19.881300 3.192600
19.901600 3.199600
19.921900 3.172200
19.942200 3.147700
19.962500 3.126300
19.982700 3.103900
20.003000 3.095400
20.023300 3.073900
20.043600 3.043800
20.063900 3.046900
20.084200 3.043100
20.104400 3.041500
20.124700 3.044800
20.145000 3.055300
20.165300 3.084600
20.185600 3.113500
20.205900 3.129700
20.226100 3.137100
20.246400 3.133400
20.266700 3.127400
20.287000 3.120800
20.307300 3.114200
20.327600 3.107100
20.347800 3.108000
20.368100 3.107300
20.388400 3.119000
20.408700 3.101200
20.429000 3.072800
20.449300 3.055100
20.469500 3.078200
20.489800 3.140700
20.510100 3.135400
20.530400 2.954000
20.550700 2.910400
20.571000 2.917300
20.591200 2.967000
20.611500 2.987700
20.631800 2.953000
20.652100 2.929600
20.672400 2.943500
20.692700 2.948800
20.712900 2.931600
20.733200 2.927300
20.753500 2.841900
20.773800 2.774300
20.794100 2.726000
20.814400 2.682100
20.834600 2.640500
20.854900 2.592800
20.875200 2.547400
20.895500 2.503200
20.915800 2.453400
20.936100 2.421200
20.956300 2.391800
20.976600 2.380500
20.996900 2.351900
21.017200 2.353200
21.037500 2.344200
21.057800 2.370300
21.078000 2.609900
21.098300 2.629700
21.118600 2.293300
21.138900 2.272100
21.159200 2.253200
21.179500 2.240500
21.199700 2.195200
21.220000 2.162800
21.240300 2.128100
21.260600 2.095200
21.280900 2.063800
21.301200 2.029100
21.321400 1.996600
21.341700 1.946200
21.362000 1.916300
21.382300 1.880500
21.402600 1.838800
21.422900 1.797200
21.443100 1.737500
21.463400 1.706000
21.483700 1.674800
21.504000 1.659200
21.524300 1.625100
21.544600 1.594600
21.564800 1.568900
21.585100 1.559200
21.605400 1.537400
21.625700 1.518300
21.646000 1.492500
21.666300 1.452900
21.686500 1.427800
21.706800 1.408300
21.727100 1.401000
21.747400 1.339500
21.767700 1.307800
21.788000 1.281100
21.808200 1.268100
21.828500 1.257300
21.848800 1.248300
21.869100 1.238600
21.889400 1.226000
21.909700 1.210900
21.929900 1.194100
21.950200 1.177900
21.970500 1.162100
21.990800 1.143000
22.011100 1.121200
22.031400 1.097100
22.051600 1.071400
22.071900 1.047800
22.092200 1.029600
22.112500 1.013200
22.132800 1.060900
22.153100 1.014000
22.173300 1.006600
22.193600 0.986500
22.213900 0.982700
22.234200 0.990300
22.254500 0.996800
22.274800 1.001900
22.295000 1.003100
22.315300 1.001100
22.335600 0.999600
22.355900 0.998800
22.376200 0.998600
22.396500 0.994800
22.416700 1.057500
22.437000 0.972400
22.457300 0.928500
22.477600 0.823500
22.497900 0.752000
22.518200 0.694000
22.538400 0.634700
22.558700 0.572900
22.579000 0.513900
22.599300 0.468300
22.619600 0.426300
22.639900 0.392000
22.660100 0.362900
22.680400 0.329200
22.700700 0.309000
22.721000 0.292500
22.741300 0.277100
22.761600 0.268800
22.781800 0.261300
22.802100 0.253000
22.822400 0.244000
22.842700 0.234200
22.863000 0.223700
22.883300 0.187100
22.903500 0.178900
22.923800 0.170900
22.944100 0.163300
22.964400 0.156000
22.984700 0.149000
23.005000 0.142300
23.025200 0.140600
23.045500 0.170800
23.065800 0.124900
23.086100 0.119300
23.106400 0.114000
23.126700 0.109000
23.146900 0.104300
23.167200 0.099900
23.187500 0.095800
23.207800 0.092000
23.228100 0.088500
23.248400 0.085200
23.268600 0.082300
23.288900 0.072300
23.309200 0.065000
23.329500 0.047900
23.349800 0.033900
23.370100 0.023000
23.390300 0.015200
23.410600 0.010500
23.430900 0.008800
23.451200 0.008400
23.471500 0.008100
23.491800 0.007700
23.512000 0.007400
23.532300 0.007000
23.552600 0.006700
23.572900 0.006300
23.593200 0.006000
23.613500 0.005700
23.633700 0.005400
23.654000 0.005100
23.674300 0.004800
23.694600 0.004500
23.714900 0.004300
23.735200 0.004000
23.755400 0.003800
23.775700 0.003500
23.796000 0.003300
23.816300 0.003000
23.836600 0.002800
23.856900 0.002600
23.877100 0.002400
23.897400 0.002200
23.917700 0.002000
23.938000 0.001800
23.958300 0.001700
23.978600 0.001500
23.998800 0.001400
24.019100 0.001200
24.039400 0.001100
24.059700 0.000900
24.080000 0.000800
24.100300 0.000700
24.120500 0.000600
24.140800 0.000500
24.161100 0.000400
24.181400 0.000300
24.201700 0.000300
24.222000 0.000200
24.242200 0.000200
24.262500 0.000100
24.282800 0.000100
24.303100 0.000000
24.323400 0.000000
24.343700 0.000000
24.363900 0.000000
24.384200 0.000000
24.404500 0.000000
24.424800 0.000000
24.445100 0.000000
24.465400 0.000000
24.485600 0.000000
24.505900 0.000000
24.526200 0.000000
24.546500 0.000000
24.566800 0.000000
24.587100 0.000000
24.607300 0.000000
24.627600 0.000000
24.647900 0.000000
24.668200 0.000000
24.688500 0.000000
24.708800 0.000000
24.729000 0.000000
24.749300 0.000000
24.769600 0.000000
24.789900 0.000000
24.810200 0.000000
24.830500 0.000000
24.850700 0.000000
24.871000 0.000000
24.891300 0.000000
24.911600 0.000000
24.931900 0.000000
24.952200 0.000000
24.972400 0.000000
24.992700 0.000000
25.013000 0.000000
25.033300 0.000000
25.053600 0.000000
25.073900 0.000000
25.094100 0.000000
25.114400 0.000000
25.134700 0.000000
25.155000 0.000000
25.175300 0.000000
25.195600 0.000000
25.215800 0.000000
25.236100 0.000000
25.256400 0.000000
25.276700 0.000000
25.297000 0.000000
25.317300 0.000000
25.337500 0.000000
25.357800 0.000000
25.378100 0.000000
25.398400 0.000000
25.418700 0.000000
25.439000 0.000000
25.459200 0.000000
25.479500 0.000000
25.499800 0.000000
25.520100 0.000000
25.540400 0.000000
25.560700 0.000000
25.580900 0.000000
25.601200 0.000000
25.621500 0.000000
25.641800 0.000000
25.662100 0.000000
25.682400 0.000000
25.702600 0.000000
25.722900 0.000000
25.743200 0.000000
25.763500 0.000000
25.783800 0.000000
25.804100 0.000000
25.824300 0.000000
25.844600 0.000000
25.864900 0.000000
25.885200 0.000000
25.905500 0.000000
25.925800 0.000000
25.946000 0.000000
25.966300 0.000000
25.986600 0.000000
26.006900 0.000000
26.027200 0.000000
26.047500 0.000000
26.067700 0.000000
26.088000 0.000000
26.108300 0.000000
26.128600 0.000000
26.148900 0.000000
26.169200 0.000000
26.189400 0.000000
26.209700 0.000000
e
