set title 'mp-1224311 - Density of States'
set xlabel 'Energy (eV)'
set ylabel 'DOS (states/eV)'
set grid
set xrange [-10:10]
set yrange [0:1.558]
set xzeroaxis lt -1
set terminal png size 800,600
set output 'mp-1224311_dos_gnuplot.png'
plot '-' using 1:2 with lines title 'DOS'
-22.323900 0.000000
-22.288700 0.000000
-22.253400 0.000000
-22.218100 0.000000
-22.182800 0.000000
-22.147500 0.000000
-22.112200 0.000000
-22.076900 0.000000
-22.041600 0.000000
-22.006300 0.000000
-21.971000 0.000000
-21.935700 0.000000
-21.900400 0.000000
-21.865100 0.000000
-21.829800 0.000000
-21.794500 0.000000
-21.759200 0.000000
-21.723900 0.000000
-21.688600 0.000000
-21.653300 0.000000
-21.618000 0.000000
-21.582700 0.000000
-21.547500 0.000000
-21.512200 0.000000
-21.476900 0.000000
-21.441600 0.000000
-21.406300 0.000000
-21.371000 0.000000
-21.335700 0.000000
-21.300400 0.000000
-21.265100 0.000000
-21.229800 0.000000
-21.194500 0.000000
-21.159200 0.000000
-21.123900 0.000000
-21.088600 0.000000
-21.053300 0.000000
-21.018000 0.000000
-20.982700 0.000000
-20.947400 0.000000
-20.912100 0.000000
-20.876800 0.000000
-20.841500 0.000000
-20.806300 0.000000
-20.771000 0.000000
-20.735700 0.000000
-20.700400 0.000000
-20.665100 0.000000
-20.629800 0.000000
-20.594500 0.000000
-20.559200 0.000000
-20.523900 0.000000
-20.488600 0.000000
-20.453300 0.000000
-20.418000 0.000000
-20.382700 0.000000
-20.347400 0.000000
-20.312100 0.000000
-20.276800 0.000000
-20.241500 0.000000
-20.206200 0.000000
-20.170900 0.000000
-20.135600 0.000000
-20.100300 0.000000
-20.065100 0.000000
-20.029800 0.000000
-19.994500 0.000000
-19.959200 0.000000
-19.923900 0.000000
-19.888600 0.000000
-19.853300 0.000000
-19.818000 0.000000
-19.782700 0.000000
-19.747400 0.000000
-19.712100 0.000000
-19.676800 0.000000
-19.641500 0.000000
-19.606200 0.000000
-19.570900 0.000000
-19.535600 0.000000
-19.500300 0.000000
-19.465000 0.000000
-19.429700 0.000000
-19.394400 0.000000
-19.359100 0.000000
-19.323900 0.000000
-19.288600 0.000000
-19.253300 0.000000
-19.218000 0.000000
-19.182700 0.000000
-19.147400 0.000000
-19.112100 11.992500
-19.076800 163.568300
-19.041500 213.753600
-19.006200 45.741500
-18.970900 9.363500
-18.935600 0.000000
-18.900300 0.000000
-18.865000 0.000000
-18.829700 0.000000
-18.794400 0.000000
-18.759100 0.000000
-18.723800 0.000000
-18.688500 0.000000
-18.653200 0.000000
-18.617900 0.000000
-18.582700 0.000000
-18.547400 0.000000
-18.512100 0.000000
-18.476800 0.000000
-18.441500 0.000000
-18.406200 0.000000
-18.370900 0.000000
-18.335600 0.000000
-18.300300 0.000000
-18.265000 0.000000
-18.229700 0.000000
-18.194400 0.000000
-18.159100 0.000000
-18.123800 0.000000
-18.088500 0.000000
-18.053200 0.000000
-18.017900 0.000000
-17.982600 0.000000
-17.947300 0.000000
-17.912000 0.000000
-17.876800 0.000000
-17.841500 0.000000
-17.806200 0.000000
-17.770900 0.000000
-17.735600 0.000000
-17.700300 0.000000
-17.665000 0.000000
-17.629700 0.000000
-17.594400 0.000000
-17.559100 0.000000
-17.523800 0.000000
-17.488500 0.000000
-17.453200 0.000000
-17.417900 0.000000
-17.382600 0.000000
-17.347300 0.000000
-17.312000 0.000000
-17.276700 0.000000
-17.241400 0.000000
-17.206100 0.000000
-17.170800 0.000000
-17.135600 0.000000
-17.100300 0.000000
-17.065000 0.000000
-17.029700 0.000000
-16.994400 0.000000
-16.959100 0.000000
-16.923800 0.000000
-16.888500 0.000000
-16.853200 0.000000
-16.817900 0.000000
-16.782600 0.000000
-16.747300 0.000000
-16.712000 0.000000
-16.676700 0.000000
-16.641400 0.000000
-16.606100 0.000000
-16.570800 0.000000
-16.535500 0.000000
-16.500200 0.000000
-16.464900 0.000000
-16.429600 0.000000
-16.394400 0.000000
-16.359100 0.000000
-16.323800 0.000000
-16.288500 0.000000
-16.253200 0.000000
-16.217900 0.000000
-16.182600 0.000000
-16.147300 0.000000
-16.112000 0.000000
-16.076700 0.000000
-16.041400 0.000000
-16.006100 0.000000
-15.970800 0.000000
-15.935500 0.000000
-15.900200 0.000000
-15.864900 0.000000
-15.829600 0.000000
-15.794300 0.000000
-15.759000 0.000000
-15.723700 0.000000
-15.688400 0.000000
-15.653200 0.000000
-15.617900 0.000000
-15.582600 0.000000
-15.547300 0.000000
-15.512000 0.000000
-15.476700 0.000000
-15.441400 0.000000
-15.406100 0.000000
-15.370800 0.000000
-15.335500 0.000000
-15.300200 0.000000
-15.264900 0.000000
-15.229600 0.000000
-15.194300 0.000000
-15.159000 0.000000
-15.123700 0.000000
-15.088400 0.000000
-15.053100 0.000000
-15.017800 0.000000
-14.982500 0.000000
-14.947200 0.000000
-14.912000 0.000000
-14.876700 0.000000
-14.841400 0.000000
-14.806100 0.000000
-14.770800 0.000000
-14.735500 0.000000
-14.700200 0.000000
-14.664900 0.000000
-14.629600 0.000000
-14.594300 0.000000
-14.559000 0.000000
-14.523700 0.000000
-14.488400 0.000000
-14.453100 0.000000
-14.417800 0.000000
-14.382500 0.000000
-14.347200 0.000000
-14.311900 0.000000
-14.276600 0.000000
-14.241300 0.000000
-14.206100 0.000000
-14.170800 0.000000
-14.135500 0.000000
-14.100200 0.000000
-14.064900 0.000000
-14.029600 0.000000
-13.994300 0.000000
-13.959000 0.000000
-13.923700 0.000000
-13.888400 0.000000
-13.853100 0.000000
-13.817800 0.000000
-13.782500 0.000000
-13.747200 0.000000
-13.711900 0.000000
-13.676600 0.000000
-13.641300 0.000000
-13.606000 0.000000
-13.570700 0.000000
-13.535400 0.000000
-13.500100 0.000000
-13.464900 0.000000
-13.429600 0.000000
-13.394300 0.000000
-13.359000 0.000000
-13.323700 0.000000
-13.288400 0.000000
-13.253100 0.000000
-13.217800 0.000000
-13.182500 0.000000
-13.147200 0.000000
-13.111900 0.000000
-13.076600 0.000000
-13.041300 0.000000
-13.006000 0.000000
-12.970700 0.000000
-12.935400 0.000000
-12.900100 0.000000
-12.864800 0.000000
-12.829500 0.000000
-12.794200 0.000000
-12.758900 0.000000
-12.723700 0.000000
-12.688400 0.000000
-12.653100 0.000000
-12.617800 0.000000
-12.582500 0.000000
-12.547200 0.000000
-12.511900 0.000000
-12.476600 0.000000
-12.441300 0.000000
-12.406000 0.000000
-12.370700 0.000000
-12.335400 0.000000
-12.300100 0.000000
-12.264800 0.000000
-12.229500 0.000000
-12.194200 0.000000
-12.158900 0.000000
-12.123600 0.000000
-12.088300 0.000000
-12.053000 0.000000
-12.017700 0.000000
-11.982500 0.000000
-11.947200 0.000000
-11.911900 0.000000
-11.876600 0.000000
-11.841300 0.000000
-11.806000 0.000000
-11.770700 0.000000
-11.735400 0.000000
-11.700100 0.000000
-11.664800 0.000000
-11.629500 0.000000
-11.594200 0.000000
-11.558900 0.000000
-11.523600 0.000000
-11.488300 0.000000
-11.453000 0.000000
-11.417700 0.000000
-11.382400 0.000000
-11.347100 0.000000
-11.311800 0.000000
-11.276500 0.000000
-11.241300 0.000000
-11.206000 0.000000
-11.170700 0.000000
-11.135400 0.000000
-11.100100 0.000000
-11.064800 0.000000
-11.029500 0.000000
-10.994200 0.000000
-10.958900 0.000000
-10.923600 0.000000
-10.888300 0.000000
-10.853000 0.000000
-10.817700 0.000000
-10.782400 0.000000
-10.747100 0.000000
-10.711800 0.000000
-10.676500 0.000000
-10.641200 0.000000
-10.605900 0.000000
-10.570600 0.000000
-10.535400 0.000000
-10.500100 0.000000
-10.464800 0.000000
-10.429500 0.000000
-10.394200 0.000000
-10.358900 0.000000
-10.323600 0.000000
-10.288300 0.000000
-10.253000 0.000000
-10.217700 0.000000
-10.182400 0.000000
-10.147100 0.000000
-10.111800 0.000000
-10.076500 0.000000
-10.041200 0.000000
-10.005900 0.000000
-9.970600 0.000000
-9.935300 0.000000
-9.900000 0.000000
-9.864700 0.000000
-9.829400 0.000000
-9.794200 0.000000
-9.758900 0.000000
-9.723600 0.000000
-9.688300 0.000000
-9.653000 0.000000
-9.617700 0.000000
-9.582400 0.000000
-9.547100 0.000000
-9.511800 0.000000
-9.476500 0.000000
-9.441200 0.000000
-9.405900 0.000000
-9.370600 0.000000
-9.335300 0.000000
-9.300000 0.000000
-9.264700 0.000000
-9.229400 0.000000
-9.194100 0.000000
-9.158800 0.000000
-9.123500 0.000000
-9.088200 0.000000
-9.053000 0.000000
-9.017700 0.000000
-8.982400 0.000000
-8.947100 0.000000
-8.911800 0.000000
-8.876500 0.000000
-8.841200 0.000000
-8.805900 0.000000
-8.770600 0.000000
-8.735300 0.000000
-8.700000 0.000000
-8.664700 0.000000
-8.629400 0.000000
-8.594100 0.000000
-8.558800 0.000000
-8.523500 0.000000
-8.488200 0.000000
-8.452900 0.000000
-8.417600 0.000000
-8.382300 0.000000
-8.347000 0.000000
-8.311800 0.000000
-8.276500 0.000000
-8.241200 0.000000
-8.205900 0.000000
-8.170600 0.000000
-8.135300 0.000000
-8.100000 0.000000
-8.064700 0.000000
-8.029400 0.000000
-7.994100 0.000000
-7.958800 0.000000
-7.923500 0.000000
-7.888200 0.000000
-7.852900 0.000000
-7.817600 0.000000
-7.782300 0.000000
-7.747000 0.000000
-7.711700 0.000000
-7.676400 0.000000
-7.641100 0.000000
-7.605800 0.000000
-7.570600 0.000000
-7.535300 0.000000
-7.500000 0.000000
-7.464700 0.000000
-7.429400 0.000000
-7.394100 0.000000
-7.358800 0.000000
-7.323500 0.000000
-7.288200 0.000000
-7.252900 0.000000
-7.217600 0.000000
-7.182300 0.000000
-7.147000 0.000000
-7.111700 0.000000
-7.076400 0.000000
-7.041100 0.000000
-7.005800 0.059200
-6.970500 0.095200
-6.935200 0.137500
-6.899900 0.170100
-6.864700 0.185700
-6.829400 0.205400
-6.794100 0.222600
-6.758800 0.244400
-6.723500 0.268800
-6.688200 0.295300
-6.652900 0.323800
-6.617600 0.360400
-6.582300 0.372700
-6.547000 0.379900
-6.511700 0.383200
-6.476400 0.369300
-6.441100 0.370600
-6.405800 0.372800
-6.370500 0.375600
-6.335200 0.379700
-6.299900 0.383600
-6.264600 0.386800
-6.229300 0.381200
-6.194000 0.380100
-6.158700 0.378900
-6.123500 0.378000
-6.088200 0.378400
-6.052900 0.380100
-6.017600 0.381800
-5.982300 0.383400
-5.947000 0.384700
-5.911700 0.385800
-5.876400 0.386700
-5.841100 0.387400
-5.805800 0.386200
-5.770500 0.387800
-5.735200 0.388200
-5.699900 0.388900
-5.664600 0.389700
-5.629300 0.390300
-5.594000 0.391200
-5.558700 0.392200
-5.523400 0.393300
-5.488100 0.394400
-5.452800 0.395400
-5.417500 0.396600
-5.382300 0.397700
-5.347000 0.398700
-5.311700 0.398500
-5.276400 0.399600
-5.241100 0.401000
-5.205800 0.402600
-5.170500 0.404600
-5.135200 0.406300
-5.099900 0.408200
-5.064600 0.410000
-5.029300 0.411900
-4.994000 0.413900
-4.958700 0.415900
-4.923400 0.418100
-4.888100 0.420400
-4.852800 0.422600
-4.817500 0.466400
-4.782200 0.485900
-4.746900 0.507400
-4.711600 0.530500
-4.676300 0.529700
-4.641100 0.542100
-4.605800 0.554500
-4.570500 0.567800
-4.535200 0.587300
-4.499900 0.606900
-4.464600 0.624700
-4.429300 0.634400
-4.394000 0.647800
-4.358700 0.660600
-4.323400 0.674800
-4.288100 0.690100
-4.252800 0.705800
-4.217500 0.721800
-4.182200 0.738200
-4.146900 0.754600
-4.111600 0.771000
-4.076300 0.852000
-4.041000 0.871700
-4.005700 0.888000
-3.970400 0.863300
-3.935100 0.863700
-3.899900 0.864100
-3.864600 0.865800
-3.829300 0.869500
-3.794000 0.872200
-3.758700 0.874200
-3.723400 0.875500
-3.688100 0.869100
-3.652800 0.865800
-3.617500 0.860400
-3.582200 0.847200
-3.546900 0.864400
-3.511600 0.855000
-3.476300 0.834100
-3.441000 0.813000
-3.405700 0.803400
-3.370400 0.794300
-3.335100 0.785500
-3.299800 0.775100
-3.264500 0.767500
-3.229200 0.760000
-3.194000 0.744700
-3.158700 0.738600
-3.123400 0.732800
-3.088100 0.727400
-3.052800 0.723300
-3.017500 0.719700
-2.982200 0.716100
-2.946900 0.712500
-2.911600 0.709000
-2.876300 0.705600
-2.841000 0.702200
-2.805700 0.692400
-2.770400 0.688900
-2.735100 0.685600
-2.699800 0.683100
-2.664500 0.681100
-2.629200 0.679300
-2.593900 0.681100
-2.558600 0.682000
-2.523300 0.683400
-2.488000 0.685200
-2.452800 0.686800
-2.417500 0.688500
-2.382200 0.690400
-2.346900 0.691000
-2.311600 0.692900
-2.276300 0.694200
-2.241000 0.697200
-2.205700 0.728300
-2.170400 0.727200
-2.135100 0.725200
-2.099800 0.706500
-2.064500 0.703600
-2.029200 0.700300
-1.993900 0.696700
-1.958600 0.692900
-1.923300 0.688600
-1.888000 0.683900
-1.852700 0.673500
-1.817400 0.665200
-1.782100 0.658100
-1.746800 0.651200
-1.711600 0.644300
-1.676300 0.637800
-1.641000 0.631400
-1.605700 0.625600
-1.570400 0.621200
-1.535100 0.615900
-1.499800 0.607900
-1.464500 0.602300
-1.429200 0.596400
-1.393900 0.590300
-1.358600 0.584100
-1.323300 0.577700
-1.288000 0.571200
-1.252700 0.564500
-1.217400 0.560900
-1.182100 0.554600
-1.146800 0.547800
-1.111500 0.540400
-1.076200 0.532100
-1.040900 0.528000
-1.005600 0.515600
-0.970400 0.504200
-0.935100 0.483900
-0.899800 0.473200
-0.864500 0.462400
-0.829200 0.451300
-0.793900 0.440200
-0.758600 0.439200
-0.723300 0.420500
-0.688000 0.401100
-0.652700 0.384300
-0.617400 0.357100
-0.582100 0.345800
-0.546800 0.334900
-0.511500 0.324200
-0.476200 0.313700
-0.440900 0.303500
-0.405600 0.280200
-0.370300 0.269000
-0.335000 0.263200
-0.299700 0.257600
-0.264400 0.252000
-0.229200 0.246500
-0.193900 0.241100
-0.158600 0.235800
-0.123300 0.230600
-0.088000 0.225400
-0.052700 0.333400
-0.017400 0.365000
0.017900 0.373900
0.053200 0.383600
0.088500 0.394100
0.123800 0.404900
0.159100 0.428000
0.194400 0.448800
0.229700 0.514500
0.265000 0.545100
0.300300 0.555200
0.335600 0.547800
0.370900 0.547300
0.406200 0.539000
0.441500 0.546900
0.476700 0.548800
0.512000 0.558200
0.547300 0.567500
0.582600 0.570800
0.617900 0.577100
0.653200 0.577800
0.688500 0.581400
0.723800 0.585600
0.759100 0.590000
0.794400 0.594300
0.829700 0.598600
0.865000 0.603000
0.900300 0.607300
0.935600 0.607000
0.970900 0.607900
1.006200 0.606200
1.041500 0.605400
1.076800 0.607200
1.112100 0.608600
1.147400 0.611100
1.182700 0.614800
1.217900 0.618800
1.253200 0.622900
1.288500 0.627100
1.323800 0.631600
1.359100 0.636000
1.394400 0.641200
1.429700 0.646400
1.465000 0.653000
1.500300 0.660000
1.535600 0.667300
1.570900 0.675300
1.606200 0.683700
1.641500 0.692500
1.676800 0.705900
1.712100 0.714200
1.747400 0.723000
1.782700 0.732100
1.818000 0.725100
1.853300 0.725800
1.888600 0.739500
1.923900 0.749100
1.959100 0.762300
1.994400 0.776700
2.029700 0.814300
2.065000 0.846200
2.100300 0.844800
2.135600 0.904900
2.170900 0.928000
2.206200 0.952900
2.241500 0.964300
2.276800 0.990600
2.312100 1.003600
2.347400 1.040100
2.382700 1.045500
2.418000 1.049600
2.453300 1.052400
2.488600 1.098100
2.523900 1.108400
2.559200 1.097600
2.594500 1.125500
2.629800 1.150700
2.665100 1.185800
2.700300 1.188500
2.735600 1.136000
2.770900 1.120800
2.806200 1.104400
2.841500 1.094600
2.876800 1.092800
2.912100 1.092200
2.947400 1.091000
2.982700 1.141000
3.018000 1.127400
3.053300 1.127600
3.088600 1.131600
3.123900 1.117200
3.159200 1.131500
3.194500 1.162900
3.229800 1.159200
3.265100 1.142500
3.300400 1.146700
3.335700 1.149300
3.371000 1.151100
3.406300 1.166200
3.441500 1.209300
3.476800 1.232800
3.512100 1.277200
3.547400 1.307400
3.582700 1.294700
3.618000 1.294900
3.653300 1.300700
3.688600 1.254600
3.723900 1.243500
3.759200 1.230900
3.794500 1.216700
3.829800 1.192900
3.865100 1.178800
3.900400 1.165800
3.935700 1.154900
3.971000 1.146600
4.006300 1.159500
4.041600 1.157700
4.076900 1.158700
4.112200 1.184400
4.147400 1.163600
4.182700 1.124700
4.218000 1.096500
4.253300 1.096800
4.288600 1.141500
4.323900 1.148200
4.359200 1.120800
4.394500 1.163500
4.429800 1.254300
4.465100 1.269700
4.500400 1.277300
4.535700 1.284600
4.571000 1.318300
4.606300 1.266000
4.641600 1.221100
4.676900 1.146700
4.712200 1.105800
4.747500 1.065400
4.782800 1.027100
4.818100 0.988100
4.853400 0.956400
4.888600 0.938700
4.923900 0.955800
4.959200 1.001100
4.994500 1.038800
5.029800 1.069300
5.065100 1.128200
5.100400 1.159700
5.135700 1.148600
5.171000 1.201900
5.206300 1.310400
5.241600 1.201900
5.276900 1.158600
5.312200 1.155500
5.347500 1.136200
5.382800 1.114000
5.418100 1.111700
5.453400 1.117600
5.488700 1.138200
5.524000 1.166900
5.559300 1.160200
5.594600 1.159000
5.629800 1.178100
5.665100 1.160900
5.700400 1.130800
5.735700 1.100100
5.771000 1.076400
5.806300 1.063300
5.841600 1.062400
5.876900 0.953800
5.912200 0.950600
5.947500 0.946900
5.982800 0.949700
6.018100 0.922100
6.053400 0.884800
6.088700 0.870600
6.124000 0.879200
6.159300 0.862100
6.194600 0.834600
6.229900 0.793000
6.265200 0.752500
6.300500 0.740800
6.335800 0.728000
6.371000 0.715700
6.406300 0.713700
6.441600 0.746900
6.476900 0.770600
6.512200 0.789600
6.547500 0.820400
6.582800 0.862800
6.618100 0.865500
6.653400 0.880000
6.688700 0.891400
6.724000 0.905100
6.759300 0.930700
6.794600 0.949200
6.829900 0.955700
6.865200 0.962700
6.900500 0.944000
6.935800 0.931400
6.971100 0.944400
7.006400 0.913600
7.041700 0.892900
7.077000 0.886000
7.112200 0.885200
7.147500 0.896100
7.182800 0.911300
7.218100 0.932500
7.253400 0.969000
7.288700 0.972700
7.324000 0.982700
7.359300 0.993600
7.394600 0.977000
7.429900 0.948000
7.465200 0.907500
7.500500 0.909200
7.535800 0.915200
7.571100 0.923100
7.606400 0.937800
7.641700 0.953600
7.677000 0.967100
7.712300 1.019900
7.747600 1.033200
7.782900 1.041400
7.818100 0.995200
7.853400 0.988400
7.888700 0.963900
7.924000 0.947600
7.959300 0.897700
7.994600 0.870200
8.029900 0.872900
8.065200 0.838400
8.100500 0.849100
8.135800 0.853100
8.171100 0.853700
8.206400 0.883600
8.241700 0.889600
8.277000 0.890700
8.312300 0.894800
8.347600 0.987400
8.382900 1.017800
8.418200 1.006300
8.453500 0.995400
8.488800 1.002600
8.524100 1.012600
8.559300 1.012100
8.594600 1.036800
8.629900 1.090200
8.665200 1.164000
8.700500 1.198500
8.735800 1.210300
8.771100 1.191300
8.806400 1.192200
8.841700 1.205500
8.877000 1.210600
8.912300 1.203200
8.947600 1.229600
8.982900 1.247800
9.018200 1.282800
9.053500 1.322600
9.088800 1.358900
9.124100 1.369800
9.159400 1.416700
9.194700 1.394000
9.230000 1.389200
9.265300 1.379600
9.300500 1.358700
9.335800 1.318400
9.371100 1.285900
9.406400 1.255000
9.441700 1.238200
9.477000 1.147300
9.512300 1.161400
9.547600 1.151400
9.582900 1.151200
9.618200 1.163000
9.653500 1.134900
9.688800 1.131600
9.724100 1.128800
9.759400 1.136200
9.794700 1.155700
9.830000 1.257100
9.865300 1.271200
9.900600 1.319400
9.935900 1.315200
9.971200 1.410800
10.006500 1.511300
10.041700 1.571300
10.077000 1.578700
10.112300 1.552300
10.147600 1.841800
10.182900 1.471100
10.218200 1.409500
10.253500 1.402600
10.288800 1.430500
10.324100 1.441100
10.359400 1.444100
10.394700 1.472200
10.430000 1.544400
10.465300 1.634400
10.500600 1.542800
10.535900 1.512500
10.571200 1.487600
10.606500 1.477500
10.641800 1.475200
10.677100 1.492800
10.712400 1.506200
10.747700 1.520500
10.782900 1.551100
10.818200 1.581500
10.853500 1.599000
10.888800 1.625900
10.924100 1.626200
10.959400 1.610100
10.994700 1.543000
11.030000 1.497900
11.065300 1.498900
11.100600 1.480500
11.135900 1.463800
11.171200 1.408900
11.206500 1.398300
11.241800 1.401800
11.277100 1.466700
11.312400 1.520200
11.347700 1.527200
11.383000 1.524800
11.418300 1.529200
11.453600 1.527400
11.488800 1.539400
11.524100 1.535500
11.559400 1.526200
11.594700 1.625000
11.630000 1.499800
11.665300 1.504800
11.700600 1.506400
11.735900 1.405800
11.771200 1.390100
11.806500 1.372800
11.841800 1.370600
11.877100 1.353900
11.912400 1.357900
11.947700 1.369800
11.983000 1.382900
12.018300 1.439100
12.053600 1.465200
12.088900 1.476700
12.124200 1.450800
12.159500 1.459900
12.194800 1.481700
12.230000 1.534100
12.265300 1.554500
12.300600 1.601200
12.335900 1.573400
12.371200 1.521500
12.406500 1.294400
12.441800 1.262400
12.477100 1.251300
12.512400 1.262100
12.547700 1.713100
12.583000 1.029000
12.618300 0.963200
12.653600 0.919700
12.688900 0.973800
12.724200 0.913900
12.759500 0.984400
12.794800 1.008000
12.830100 1.018100
12.865400 0.999400
12.900700 1.045100
12.936000 1.083300
12.971200 1.306200
13.006500 1.236800
13.041800 1.257400
13.077100 1.222500
13.112400 1.218900
13.147700 1.248300
13.183000 1.295900
13.218300 1.234000
13.253600 1.222100
13.288900 1.176100
13.324200 1.134100
13.359500 1.119800
13.394800 1.104700
13.430100 1.087400
13.465400 1.077500
13.500700 1.065000
13.536000 1.049500
13.571300 1.040100
13.606600 1.030000
13.641900 1.021900
13.677200 1.025900
13.712400 1.025800
13.747700 1.027200
13.783000 1.009700
13.818300 1.038200
13.853600 1.050300
13.888900 1.076700
13.924200 1.089500
13.959500 1.142800
13.994800 1.152000
14.030100 1.328000
14.065400 1.200900
14.100700 1.198800
14.136000 1.175600
14.171300 1.166100
14.206600 1.172000
14.241900 1.164400
14.277200 1.173700
14.312500 1.171000
14.347800 1.091100
14.383100 1.064700
14.418400 1.066100
14.453600 1.070300
14.488900 1.041400
14.524200 1.051300
14.559500 1.337500
14.594800 1.081700
14.630100 1.085500
14.665400 1.090400
14.700700 1.095300
14.736000 1.086200
14.771300 1.091300
14.806600 1.139800
14.841900 1.182100
14.877200 1.167600
14.912500 1.185200
14.947800 1.205600
14.983100 1.215400
15.018400 1.280800
15.053700 1.283200
15.089000 1.223400
15.124300 1.233100
15.159500 1.244900
15.194800 1.265400
15.230100 1.306700
15.265400 1.311100
15.300700 1.323700
15.336000 1.345900
15.371300 1.370900
15.406600 1.392600
15.441900 1.419400
15.477200 1.429500
15.512500 1.445200
15.547800 1.439400
15.583100 1.528300
15.618400 1.539800
15.653700 1.588500
15.689000 1.580100
15.724300 1.535900
15.759600 1.529000
15.794900 1.538500
15.830200 1.547300
15.865500 1.534400
15.900700 1.551700
15.936000 1.510200
15.971300 1.478300
16.006600 1.444700
16.041900 1.436700
16.077200 1.427100
16.112500 1.421400
16.147800 1.418800
16.183100 1.417000
16.218400 1.496900
16.253700 1.494800
16.289000 1.499000
16.324300 1.533800
16.359600 1.591300
16.394900 1.621800
16.430200 1.672300
16.465500 1.733200
16.500800 1.945900
16.536100 2.093300
16.571400 2.236900
16.606700 2.140200
16.641900 2.093400
16.677200 2.088400
16.712500 2.139600
16.747800 1.949400
16.783100 1.919000
16.818400 1.908400
16.853700 1.912400
16.889000 1.990100
16.924300 1.902300
16.959600 1.836600
16.994900 2.678200
17.030200 1.571600
17.065500 1.555100
17.100800 1.542700
17.136100 1.545200
17.171400 1.558800
17.206700 1.611900
17.242000 1.652500
17.277300 1.741800
17.312600 1.571800
17.347900 1.583800
17.383100 1.531500
17.418400 1.562100
17.453700 1.568700
17.489000 1.592700
17.524300 1.618700
17.559600 1.628900
17.594900 1.639100
17.630200 1.655000
17.665500 1.688500
17.700800 1.749000
17.736100 1.782700
17.771400 1.810700
17.806700 1.955500
17.842000 2.037200
17.877300 1.919000
17.912600 1.845800
17.947900 1.806900
17.983200 1.837800
18.018500 1.720000
18.053800 1.478700
18.089100 1.377600
18.124300 1.308000
18.159600 1.244300
18.194900 1.227700
18.230200 1.237000
18.265500 1.280600
18.300800 1.303500
18.336100 1.289800
18.371400 1.294900
18.406700 1.325200
18.442000 1.367000
18.477300 1.404900
18.512600 1.472000
18.547900 1.656700
18.583200 1.689200
18.618500 1.742100
18.653800 1.832400
18.689100 1.886300
18.724400 1.928700
18.759700 1.961200
18.795000 2.022600
18.830200 2.045400
18.865500 2.032800
18.900800 2.007600
18.936100 2.002800
18.971400 2.137500
19.006700 2.102400
19.042000 1.721600
19.077300 1.607400
19.112600 1.526900
19.147900 1.470200
19.183200 1.462900
19.218500 1.544000
19.253800 1.619300
19.289100 1.709200
19.324400 1.882600
19.359700 2.108800
19.395000 2.106100
19.430300 2.179800
19.465600 2.120000
19.500900 1.990800
19.536200 1.913400
19.571400 1.852000
19.606700 1.876900
19.642000 1.923900
19.677300 1.902700
19.712600 2.010000
19.747900 1.969700
19.783200 2.008900
19.818500 2.110400
19.853800 1.908700
19.889100 1.905100
19.924400 1.902800
19.959700 1.920600
19.995000 1.949300
20.030300 1.948600
20.065600 1.867300
20.100900 2.007800
20.136200 1.808900
20.171500 1.809600
20.206800 1.723300
20.242100 1.786800
20.277400 1.785600
20.312600 1.687700
20.347900 1.691800
20.383200 1.932200
20.418500 1.681500
20.453800 1.691000
20.489100 1.929500
20.524400 1.713400
20.559700 1.803900
20.595000 1.797000
20.630300 1.791100
20.665600 1.753900
20.700900 1.749200
20.736200 1.772000
20.771500 1.810500
20.806800 1.856200
20.842100 1.907200
20.877400 2.006600
20.912700 2.080100
20.948000 2.139800
20.983300 2.210700
21.018600 2.242500
21.053800 2.287300
21.089100 2.342000
21.124400 2.401800
21.159700 2.387900
21.195000 2.291400
21.230300 2.300100
21.265600 2.269100
21.300900 2.257900
21.336200 2.272200
21.371500 2.285200
21.406800 2.259600
21.442100 2.356300
21.477400 2.316000
21.512700 2.206500
21.548000 2.187700
21.583300 2.219400
21.618600 2.108500
21.653900 2.014300
21.689200 1.964400
21.724500 1.968000
21.759800 1.981800
21.795000 2.039100
21.830300 2.102700
21.865600 2.061000
21.900900 2.030600
21.936200 2.128900
21.971500 2.016700
22.006800 1.971600
22.042100 1.968400
22.077400 1.990000
22.112700 1.949900
22.148000 1.952800
22.183300 2.111300
22.218600 1.933000
22.253900 1.898500
22.289200 2.046800
22.324500 1.618600
22.359800 1.743500
22.395100 1.842900
22.430400 1.850600
22.465700 1.905400
22.500900 1.841200
22.536200 1.795500
22.571500 1.801400
22.606800 2.062700
22.642100 2.247100
22.677400 2.253100
22.712700 2.258700
22.748000 2.196200
22.783300 2.162000
22.818600 2.128300
22.853900 2.076000
22.889200 2.076500
22.924500 2.103000
22.959800 2.057500
22.995100 2.091900
23.030400 2.220600
23.065700 2.284000
23.101000 2.281300
23.136300 2.332300
23.171600 2.230200
23.206900 2.215300
23.242100 2.203200
23.277400 2.332500
23.312700 2.434900
23.348000 2.470300
23.383300 2.474500
23.418600 2.369800
23.453900 2.302800
23.489200 2.156800
23.524500 2.046600
23.559800 1.992800
23.595100 1.972100
23.630400 2.021000
23.665700 2.199000
23.701000 2.166300
23.736300 2.216900
23.771600 2.233700
23.806900 2.176000
23.842200 2.175200
23.877500 2.226500
23.912800 2.107600
23.948100 2.142400
23.983300 2.188000
24.018600 2.218700
24.053900 2.178800
24.089200 2.165100
24.124500 2.219500
24.159800 2.220700
24.195100 2.238100
24.230400 2.289200
24.265700 2.333600
24.301000 2.378900
24.336300 2.498200
24.371600 2.539000
24.406900 2.557400
24.442200 2.575400
24.477500 2.553100
24.512800 2.365100
24.548100 2.351200
24.583400 2.315900
24.618700 2.288700
24.654000 2.261200
24.689300 2.194100
24.724500 2.228800
24.759800 2.373100
24.795100 2.475900
24.830400 2.396000
24.865700 2.422300
24.901000 2.434100
24.936300 2.503000
24.971600 2.559200
25.006900 2.584500
25.042200 2.497600
25.077500 2.494800
25.112800 2.447400
25.148100 2.162800
25.183400 2.025200
25.218700 1.938500
25.254000 1.853800
25.289300 1.750700
25.324600 1.678600
25.359900 1.663800
25.395200 1.688500
25.430500 1.738300
25.465700 1.799800
25.501000 1.845200
25.536300 1.922800
25.571600 2.011900
25.606900 2.111400
25.642200 2.329300
25.677500 2.507800
25.712800 2.647600
25.748100 2.746400
25.783400 2.706000
25.818700 2.746200
25.854000 2.731200
25.889300 2.654500
25.924600 2.636600
25.959900 2.575300
25.995200 2.526900
26.030500 2.470700
26.065800 2.601900
26.101100 2.448500
26.136400 2.436800
26.171600 2.533200
26.206900 2.536100
26.242200 2.672500
26.277500 2.640100
26.312800 2.620800
26.348100 2.620300
26.383400 2.569100
26.418700 2.830300
26.454000 2.665500
26.489300 2.614800
26.524600 2.580700
26.559900 2.604200
26.595200 2.572600
26.630500 2.521900
26.665800 2.633900
26.701100 2.554600
26.736400 2.407800
26.771700 2.324800
26.807000 2.292700
26.842300 2.265400
26.877600 2.231700
26.912800 2.249600
26.948100 2.220100
26.983400 2.257900
27.018700 2.375000
27.054000 2.320800
27.089300 2.307400
27.124600 2.281400
27.159900 2.295800
27.195200 2.330300
27.230500 2.348600
27.265800 2.619200
27.301100 2.244300
27.336400 2.156100
27.371700 2.200300
27.407000 2.126000
27.442300 2.017900
27.477600 2.025000
27.512900 2.017700
27.548200 2.027300
27.583500 1.967500
27.618800 2.085400
27.654000 2.111100
27.689300 2.152400
27.724600 2.781700
27.759900 1.975100
27.795200 2.059100
27.830500 2.052600
27.865800 2.069800
27.901100 2.078700
27.936400 2.111400
27.971700 2.194900
28.007000 2.230100
28.042300 2.270400
28.077600 2.279300
28.112900 2.372900
28.148200 2.420600
28.183500 2.392300
28.218800 2.395700
28.254100 2.382600
28.289400 2.394700
28.324700 2.395000
28.360000 2.421000
28.395200 2.382400
28.430500 2.168500
28.465800 2.087200
28.501100 2.049700
28.536400 2.000000
28.571700 2.016700
28.607000 2.136400
28.642300 2.180300
28.677600 2.207700
28.712900 2.080800
28.748200 2.179500
28.783500 2.279600
28.818800 2.211800
28.854100 2.257900
28.889400 2.303700
28.924700 2.398100
28.960000 2.484400
28.995300 2.598900
29.030600 2.581400
29.065900 2.612100
29.101200 2.627100
29.136400 2.555800
29.171700 2.557600
29.207000 2.485500
29.242300 2.654600
29.277600 2.445200
29.312900 2.335900
29.348200 2.327200
29.383500 2.290600
29.418800 2.303800
29.454100 2.322000
29.489400 2.305600
29.524700 2.429200
29.560000 2.423400
29.595300 2.593000
29.630600 2.784600
29.665900 2.859500
29.701200 2.662400
29.736500 2.648200
29.771800 2.546200
29.807100 2.481700
29.842300 2.468800
29.877600 2.486100
29.912900 2.543000
29.948200 2.622800
29.983500 2.660700
30.018800 2.722400
30.054100 2.816600
30.089400 2.847000
30.124700 2.874500
30.160000 2.874400
30.195300 2.833800
30.230600 2.838200
30.265900 2.896500
30.301200 2.917900
30.336500 2.959800
30.371800 2.940500
30.407100 2.817300
30.442400 2.718900
30.477700 2.662400
30.513000 2.545600
30.548300 2.724400
30.583500 2.624600
30.618800 2.584800
30.654100 2.553700
30.689400 2.481100
30.724700 2.471000
30.760000 2.454200
30.795300 2.371000
30.830600 2.533900
30.865900 2.507000
30.901200 2.536100
30.936500 2.572600
30.971800 2.570000
31.007100 2.628400
31.042400 2.595300
31.077700 2.609200
31.113000 2.602800
31.148300 2.581600
31.183600 2.636200
31.218900 2.655000
31.254200 2.759100
31.289500 2.779600
31.324700 2.700100
31.360000 2.623000
31.395300 2.585400
31.430600 2.592300
31.465900 2.623600
31.501200 2.618600
31.536500 2.616000
31.571800 2.581500
31.607100 2.603000
31.642400 2.696000
31.677700 2.817800
31.713000 2.812400
31.748300 2.769800
31.783600 2.786900
31.818900 2.817900
31.854200 2.840600
31.889500 2.850700
31.924800 2.868300
31.960100 2.728200
31.995400 2.658400
32.030700 2.551500
32.065900 2.415800
32.101200 2.317700
32.136500 2.333500
32.171800 2.556100
32.207100 2.344900
32.242400 2.430700
32.277700 2.342400
32.313000 2.283500
32.348300 2.234600
32.383600 2.240100
32.418900 2.126600
32.454200 2.116700
32.489500 2.059400
32.524800 2.085500
32.560100 2.131600
32.595400 2.154400
32.630700 2.193200
32.666000 2.287900
32.701300 2.272200
32.736600 2.317900
32.771900 2.272900
32.807100 2.302500
32.842400 2.336800
32.877700 2.408600
32.913000 2.523600
32.948300 2.491400
32.983600 2.454300
33.018900 2.463800
33.054200 2.571400
33.089500 2.662700
33.124800 2.776600
33.160100 2.759300
33.195400 2.716700
33.230700 2.717100
33.266000 2.517200
33.301300 2.490200
33.336600 2.418000
33.371900 2.430000
33.407200 2.452600
33.442500 2.611000
33.477800 2.767000
33.513000 2.737900
33.548300 2.769900
33.583600 2.643100
33.618900 2.565600
33.654200 2.506600
33.689500 2.462300
33.724800 2.413800
33.760100 2.352500
33.795400 2.316800
33.830700 2.305600
33.866000 2.325700
33.901300 2.507400
33.936600 2.492500
33.971900 3.079200
34.007200 2.637500
34.042500 2.683600
34.077800 2.742000
34.113100 2.872200
34.148400 2.886700
34.183700 2.988200
34.219000 3.147200
34.254200 3.217400
34.289500 3.110600
34.324800 3.029700
34.360100 2.930900
34.395400 2.834600
34.430700 2.815200
34.466000 2.786100
34.501300 2.599400
34.536600 2.589400
34.571900 2.569600
34.607200 2.552700
34.642500 2.787800
34.677800 2.536900
34.713100 2.564200
34.748400 2.566600
34.783700 2.592100
34.819000 2.580400
34.854300 2.601500
34.889600 2.568700
34.924900 2.541100
34.960200 2.541700
34.995400 2.492700
35.030700 2.469200
35.066000 2.418500
35.101300 2.410100
35.136600 2.415700
35.171900 2.408000
35.207200 2.390600
35.242500 2.400400
35.277800 2.382900
35.313100 2.367800
35.348400 2.372200
35.383700 2.325400
35.419000 2.382600
35.454300 2.253000
35.489600 2.261800
35.524900 2.276800
35.560200 2.306500
35.595500 2.356100
35.630800 2.424400
35.666100 2.449900
35.701400 2.539300
35.736600 2.615300
35.771900 2.604100
35.807200 2.488600
35.842500 2.315100
35.877800 2.262500
35.913100 2.339000
35.948400 2.445100
35.983700 2.528600
36.019000 2.622000
36.054300 2.496200
36.089600 2.527400
36.124900 2.609600
36.160200 2.732200
36.195500 2.918500
36.230800 2.904100
36.266100 2.814400
36.301400 2.752100
36.336700 2.665900
36.372000 2.608500
36.407300 2.614200
36.442600 2.603700
36.477800 2.576800
36.513100 2.623500
36.548400 2.616100
36.583700 2.571500
36.619000 2.548100
36.654300 2.541000
36.689600 2.583600
36.724900 2.696900
36.760200 2.589500
36.795500 2.487000
36.830800 2.382300
36.866100 2.286800
36.901400 2.254000
36.936700 2.202300
36.972000 2.160900
37.007300 2.139200
37.042600 2.155800
37.077900 2.356700
37.113200 2.307000
37.148500 2.285000
37.183700 2.254300
37.219000 2.312200
37.254300 2.361200
37.289600 2.412400
37.324900 2.549800
37.360200 2.554900
37.395500 2.570800
37.430800 2.582400
37.466100 2.580000
37.501400 2.558600
37.536700 2.552700
37.572000 2.604300
37.607300 2.618700
37.642600 2.663400
37.677900 2.657400
37.713200 2.564900
37.748500 2.554700
37.783800 2.502700
37.819100 2.457000
37.854400 2.354100
37.889700 2.246300
37.924900 2.280800
37.960200 2.121500
37.995500 2.058700
38.030800 2.102900
38.066100 2.178500
38.101400 2.297900
38.136700 2.372500
38.172000 2.296300
38.207300 2.200200
38.242600 2.120500
38.277900 2.109100
38.313200 2.121100
38.348500 2.099400
38.383800 2.071600
38.419100 2.086300
38.454400 2.106700
38.489700 2.230600
38.525000 2.251400
38.560300 2.187400
38.595600 2.218900
38.630900 2.302600
38.666100 2.371700
38.701400 2.455600
38.736700 2.476200
38.772000 2.451900
38.807300 2.520500
38.842600 2.654600
38.877900 2.511800
38.913200 2.881900
38.948500 2.369300
38.983800 2.331800
39.019100 2.301100
39.054400 2.264500
39.089700 2.232900
39.125000 2.202700
39.160300 2.195300
39.195600 2.228800
39.230900 2.232900
39.266200 2.195500
39.301500 2.458600
39.336800 2.310800
39.372100 2.395300
39.407300 2.358000
39.442600 2.425300
39.477900 2.658000
39.513200 2.649700
39.548500 2.695900
39.583800 2.722900
39.619100 2.984200
39.654400 2.916100
39.689700 2.866400
39.725000 2.671900
39.760300 2.536700
39.795600 2.533200
39.830900 2.762700
39.866200 2.657400
39.901500 2.532500
39.936800 2.356700
39.972100 2.397300
40.007400 2.484900
40.042700 2.340500
40.078000 2.367300
40.113300 2.421900
40.148500 2.511500
40.183800 2.365000
40.219100 2.342200
40.254400 2.370900
40.289700 2.469600
40.325000 2.574700
40.360300 2.732200
40.395600 2.644100
40.430900 2.540600
40.466200 2.511800
40.501500 2.487500
40.536800 2.525400
40.572100 2.593700
40.607400 2.526100
40.642700 2.519400
40.678000 2.609700
40.713300 2.656100
40.748600 2.560300
40.783900 2.492800
40.819200 2.558000
40.854400 2.418800
40.889700 2.468500
40.925000 2.437700
40.960300 2.412900
40.995600 2.325700
41.030900 2.220700
41.066200 2.182600
41.101500 2.097500
41.136800 2.120300
41.172100 2.156300
41.207400 2.108600
41.242700 2.149000
41.278000 2.906700
41.313300 2.282900
41.348600 2.491500
41.383900 2.892000
41.419200 3.029500
41.454500 2.971900
41.489800 2.859500
41.525100 2.487800
41.560400 2.433100
41.595600 2.410300
41.630900 2.398400
41.666200 2.436500
41.701500 2.357400
41.736800 2.281000
41.772100 2.875600
41.807400 2.412100
41.842700 2.357500
41.878000 2.269300
41.913300 2.188500
41.948600 2.174400
41.983900 2.263900
42.019200 2.420300
42.054500 2.548100
42.089800 2.224500
42.125100 2.181500
42.160400 2.181900
42.195700 2.177600
42.231000 2.189200
42.266300 2.254200
42.301600 2.156100
42.336800 2.345900
42.372100 2.320700
42.407400 2.342200
42.442700 2.387600
42.478000 2.385100
42.513300 2.241800
42.548600 2.169400
42.583900 2.108300
42.619200 2.121800
42.654500 2.124600
42.689800 2.208400
42.725100 2.397400
42.760400 2.921100
42.795700 2.903200
42.831000 2.933500
42.866300 2.654000
42.901600 2.492900
42.936900 2.326000
42.972200 2.181700
43.007500 2.010100
43.042800 1.954500
43.078000 1.941900
43.113300 2.011000
43.148600 2.159800
43.183900 2.143100
43.219200 2.225400
43.254500 2.251600
43.289800 2.276000
43.325100 2.340000
43.360400 2.339900
43.395700 2.229800
43.431000 2.172000
43.466300 2.107700
43.501600 2.051500
43.536900 1.985400
43.572200 1.757800
43.607500 1.706500
43.642800 1.698300
43.678100 1.624000
43.713400 1.497100
43.748700 1.335400
43.784000 1.331300
43.819200 1.274200
43.854500 1.176600
43.889800 1.186300
43.925100 1.177000
43.960400 1.166900
43.995700 1.162900
44.031000 1.169700
44.066300 1.164400
44.101600 1.215900
44.136900 1.277100
44.172200 1.369900
44.207500 1.358500
44.242800 1.318200
44.278100 1.256600
44.313400 1.101200
44.348700 0.918700
44.384000 0.791500
44.419300 0.662400
44.454600 0.501700
44.489900 0.407500
44.525100 0.341200
44.560400 0.281000
44.595700 0.199600
44.631000 0.169000
44.666300 0.136900
44.701600 0.107800
44.736900 0.083200
44.772200 0.064600
44.807500 0.050500
44.842800 0.038200
44.878100 0.027700
44.913400 0.019100
44.948700 0.011700
44.984000 0.005700
45.019300 0.000900
45.054600 0.000000
45.089900 0.000000
45.125200 0.000000
45.160500 0.000000
45.195800 0.000000
45.231100 0.000000
45.266300 0.000000
45.301600 0.000000
45.336900 0.000000
45.372200 0.000000
45.407500 0.000000
45.442800 0.000000
45.478100 0.000000
45.513400 0.000000
45.548700 0.000000
45.584000 0.000000
45.619300 0.000000
45.654600 0.000000
45.689900 0.000000
45.725200 0.000000
45.760500 0.000000
45.795800 0.000000
45.831100 0.000000
45.866400 0.000000
45.901700 0.000000
45.937000 0.000000
45.972300 0.000000
46.007500 0.000000
46.042800 0.000000
46.078100 0.000000
46.113400 0.000000
46.148700 0.000000
46.184000 0.000000
46.219300 0.000000
46.254600 0.000000
46.289900 0.000000
46.325200 0.000000
46.360500 0.000000
46.395800 0.000000
46.431100 0.000000
46.466400 0.000000
46.501700 0.000000
46.537000 0.000000
46.572300 0.000000
46.607600 0.000000
46.642900 0.000000
46.678200 0.000000
46.713500 0.000000
46.748700 0.000000
46.784000 0.000000
46.819300 0.000000
46.854600 0.000000
46.889900 0.000000
46.925200 0.000000
46.960500 0.000000
46.995800 0.000000
47.031100 0.000000
47.066400 0.000000
47.101700 0.000000
47.137000 0.000000
47.172300 0.000000
47.207600 0.000000
47.242900 0.000000
47.278200 0.000000
47.313500 0.000000
47.348800 0.000000
47.384100 0.000000
47.419400 0.000000
47.454700 0.000000
47.489900 0.000000
47.525200 0.000000
47.560500 0.000000
47.595800 0.000000
47.631100 0.000000
47.666400 0.000000
47.701700 0.000000
47.737000 0.000000
47.772300 0.000000
47.807600 0.000000
47.842900 0.000000
47.878200 0.000000
47.913500 0.000000
47.948800 0.000000
47.984100 0.000000
48.019400 0.000000
48.054700 0.000000
48.090000 0.000000
48.125300 0.000000
48.160600 0.000000
48.195800 0.000000
48.231100 0.000000
48.266400 0.000000
e
