set title 'mp-971835 - Density of States'
set xlabel 'Energy (eV)'
set ylabel 'DOS (states/eV)'
set grid
set xrange [-10:10]
set yrange [0:60.005]
set xzeroaxis lt -1
set terminal png size 800,600
set output 'mp-971835_dos_gnuplot.png'
plot '-' using 1:2 with lines title 'DOS'
-9.266200 0.000000
-9.247300 0.000000
-9.228500 0.000000
-9.209700 0.000000
-9.190900 0.000000
-9.172000 0.000000
-9.153200 0.000000
-9.134400 0.000000
-9.115500 0.000000
-9.096700 0.000000
-9.077900 0.000000
-9.059100 0.000000
-9.040200 0.000000
-9.021400 0.000000
-9.002600 0.000000
-8.983700 0.000000
-8.964900 0.000000
-8.946100 0.000000
-8.927300 0.000000
-8.908400 0.000000
-8.889600 0.000000
-8.870800 0.000000
-8.851900 0.000000
-8.833100 0.000000
-8.814300 0.000000
-8.795500 0.000000
-8.776600 0.000000
-8.757800 0.000000
-8.739000 0.000000
-8.720100 0.000000
-8.701300 0.000000
-8.682500 0.000000
-8.663700 0.000000
-8.644800 0.000000
-8.626000 0.000000
-8.607200 0.000000
-8.588300 0.000000
-8.569500 0.000000
-8.550700 0.000000
-8.531800 0.000000
-8.513000 0.000000
-8.494200 0.000000
-8.475400 0.000000
-8.456500 0.000000
-8.437700 0.000000
-8.418900 0.000000
-8.400000 0.000000
-8.381200 0.000000
-8.362400 0.000000
-8.343600 0.000000
-8.324700 0.000000
-8.305900 0.000000
-8.287100 0.000000
-8.268200 0.000000
-8.249400 0.000000
-8.230600 0.000000
-8.211800 0.000000
-8.192900 0.000000
-8.174100 0.000000
-8.155300 0.000000
-8.136400 0.000000
-8.117600 0.000000
-8.098800 0.000000
-8.080000 0.000000
-8.061100 0.000000
-8.042300 0.000000
-8.023500 0.000000
-8.004600 0.000000
-7.985800 0.000000
-7.967000 0.000000
-7.948200 0.000000
-7.929300 0.000000
-7.910500 0.000000
-7.891700 0.000000
-7.872800 0.000000
-7.854000 0.000000
-7.835200 0.000000
-7.816300 0.000000
-7.797500 0.000000
-7.778700 0.000000
-7.759900 0.000000
-7.741000 0.000000
-7.722200 0.000000
-7.703400 0.000000
-7.684500 0.000100
-7.665700 0.000600
-7.646900 0.003600
-7.628100 0.018100
-7.609200 0.071300
-7.590400 0.222500
-7.571600 0.555000
-7.552700 1.119900
-7.533900 1.875100
-7.515100 2.717300
-7.496300 3.592700
-7.477400 4.520700
-7.458600 5.561300
-7.439800 6.919600
-7.420900 8.991900
-7.402100 12.035700
-7.383300 15.844700
-7.364500 19.967300
-7.345600 24.167300
-7.326800 28.454500
-7.308000 32.634600
-7.289100 36.005600
-7.270300 37.772800
-7.251500 37.766200
-7.232700 36.512800
-7.213800 34.808200
-7.195000 33.587800
-7.176200 33.750200
-7.157300 35.416000
-7.138500 37.644300
-7.119700 39.396600
-7.100800 40.482500
-7.082000 41.185700
-7.063200 41.353200
-7.044400 40.388100
-7.025500 38.105500
-7.006700 35.239100
-6.987900 33.005100
-6.969000 32.368400
-6.950200 33.754700
-6.931400 37.143600
-6.912600 42.085000
-6.893700 47.575000
-6.874900 52.177100
-6.856100 54.549800
-6.837200 54.028100
-6.818400 50.936100
-6.799600 46.522500
-6.780800 42.384600
-6.761900 39.574200
-6.743100 38.108900
-6.724300 37.288300
-6.705400 36.297400
-6.686600 34.415600
-6.667800 30.992400
-6.649000 25.791800
-6.630100 19.454600
-6.611300 13.266000
-6.592500 8.356300
-6.573600 5.151600
-6.554800 3.370900
-6.536000 2.384300
-6.517200 1.670200
-6.498300 1.045200
-6.479500 0.551200
-6.460700 0.239000
-6.441800 0.084200
-6.423000 0.023900
-6.404200 0.005400
-6.385300 0.001000
-6.366500 0.000100
-6.347700 0.000000
-6.328900 0.000000
-6.310000 0.000000
-6.291200 0.000000
-6.272400 0.000000
-6.253500 0.000000
-6.234700 0.000000
-6.215900 0.000000
-6.197100 0.000000
-6.178200 0.000000
-6.159400 0.000000
-6.140600 0.000000
-6.121700 0.000000
-6.102900 0.000000
-6.084100 0.000000
-6.065300 0.000000
-6.046400 0.000000
-6.027600 0.000000
-6.008800 0.000000
-5.989900 0.000000
-5.971100 0.000000
-5.952300 0.000000
-5.933500 0.000000
-5.914600 0.000000
-5.895800 0.000000
-5.877000 0.000000
-5.858100 0.000000
-5.839300 0.000000
-5.820500 0.000000
-5.801700 0.000000
-5.782800 0.000000
-5.764000 0.000000
-5.745200 0.000000
-5.726300 0.000000
-5.707500 0.000000
-5.688700 0.000000
-5.669800 0.000000
-5.651000 0.000000
-5.632200 0.000000
-5.613400 0.000000
-5.594500 0.000000
-5.575700 0.000000
-5.556900 0.000000
-5.538000 0.000000
-5.519200 0.000000
-5.500400 0.000000
-5.481600 0.000000
-5.462700 0.000000
-5.443900 0.000000
-5.425100 0.000000
-5.406200 0.000000
-5.387400 0.000000
-5.368600 0.000000
-5.349800 0.000000
-5.330900 0.000000
-5.312100 0.000000
-5.293300 0.000000
-5.274400 0.000000
-5.255600 0.000000
-5.236800 0.000000
-5.218000 0.000000
-5.199100 0.000000
-5.180300 0.000000
-5.161500 0.000000
-5.142600 0.000000
-5.123800 0.000000
-5.105000 0.000000
-5.086200 0.000000
-5.067300 0.000000
-5.048500 0.000000
-5.029700 0.000000
-5.010800 0.000000
-4.992000 0.000000
-4.973200 0.000000
-4.954300 0.000000
-4.935500 0.000000
-4.916700 0.000000
-4.897900 0.000000
-4.879000 0.000000
-4.860200 0.000000
-4.841400 0.000000
-4.822500 0.000000
-4.803700 0.000000
-4.784900 0.000300
-4.766100 0.001300
-4.747200 0.004700
-4.728400 0.012800
-4.709600 0.027500
-4.690700 0.047800
-4.671900 0.070700
-4.653100 0.095400
-4.634300 0.124700
-4.615400 0.165000
-4.596600 0.225400
-4.577800 0.304200
-4.558900 0.372400
-4.540100 0.384600
-4.521300 0.323000
-4.502500 0.221200
-4.483600 0.139200
-4.464800 0.124600
-4.446000 0.194100
-4.427100 0.327700
-4.408300 0.468700
-4.389500 0.551200
-4.370700 0.551000
-4.351800 0.505200
-4.333000 0.475400
-4.314200 0.499100
-4.295300 0.564300
-4.276500 0.608300
-4.257700 0.564700
-4.238800 0.439000
-4.220000 0.309200
-4.201200 0.240800
-4.182400 0.234600
-4.163500 0.270100
-4.144700 0.360800
-4.125900 0.524400
-4.107000 0.710400
-4.088200 0.813900
-4.069400 0.785700
-4.050600 0.687600
-4.031700 0.621100
-4.012900 0.638300
-3.994100 0.713300
-3.975200 0.762600
-3.956400 0.706300
-3.937600 0.544000
-3.918800 0.365900
-3.899900 0.284100
-3.881100 0.357000
-3.862300 0.559900
-3.843400 0.800100
-3.824600 0.968400
-3.805800 1.010100
-3.787000 0.961100
-3.768100 0.903800
-3.749300 0.883900
-3.730500 0.883300
-3.711600 0.859500
-3.692800 0.779000
-3.674000 0.639300
-3.655200 0.490200
-3.636300 0.406900
-3.617500 0.417300
-3.598700 0.487000
-3.579800 0.587600
-3.561000 0.733200
-3.542200 0.919000
-3.523300 1.075300
-3.504500 1.134000
-3.485700 1.113800
-3.466900 1.094800
-3.448000 1.123000
-3.429200 1.164500
-3.410400 1.142100
-3.391500 1.007800
-3.372700 0.783800
-3.353900 0.545200
-3.335100 0.383700
-3.316200 0.383700
-3.297400 0.595800
-3.278600 0.990600
-3.259700 1.426300
-3.240900 1.694900
-3.222100 1.661900
-3.203300 1.375400
-3.184400 1.014500
-3.165600 0.739000
-3.146800 0.602600
-3.127900 0.565200
-3.109100 0.547000
-3.090300 0.491200
-3.071500 0.401900
-3.052600 0.331000
-3.033800 0.332600
-3.015000 0.428000
-2.996100 0.601700
-2.977300 0.812100
-2.958500 1.012200
-2.939700 1.185600
-2.920800 1.360100
-2.902000 1.551500
-2.883200 1.699800
-2.864300 1.715500
-2.845500 1.582700
-2.826700 1.368900
-2.807800 1.140100
-2.789000 0.915700
-2.770200 0.704100
-2.751400 0.539000
-2.732500 0.466200
-2.713700 0.515400
-2.694900 0.694500
-2.676000 0.976900
-2.657200 1.273600
-2.638400 1.460200
-2.619600 1.470600
-2.600700 1.338300
-2.581900 1.142100
-2.563100 0.948200
-2.544200 0.788100
-2.525400 0.648400
-2.506600 0.495500
-2.487800 0.329100
-2.468900 0.196300
-2.450100 0.153200
-2.431300 0.229300
-2.412400 0.411000
-2.393600 0.628400
-2.374800 0.775900
-2.356000 0.785400
-2.337100 0.691900
-2.318300 0.619900
-2.299500 0.690300
-2.280600 0.916300
-2.261800 1.184000
-2.243000 1.345800
-2.224100 1.331900
-2.205300 1.171000
-2.186500 0.944700
-2.167700 0.741200
-2.148800 0.619400
-2.130000 0.596400
-2.111200 0.670200
-2.092300 0.826000
-2.073500 1.007000
-2.054700 1.133500
-2.035900 1.179500
-2.017000 1.190300
-1.998200 1.213100
-1.979400 1.251300
-1.960500 1.278200
-1.941700 1.257000
-1.922900 1.160200
-1.904100 1.003600
-1.885200 0.863100
-1.866400 0.832500
-1.847600 0.948400
-1.828700 1.169600
-1.809900 1.438100
-1.791100 1.724400
-1.772300 1.987400
-1.753400 2.150200
-1.734600 2.169800
-1.715800 2.086000
-1.696900 1.954300
-1.678100 1.778300
-1.659300 1.540700
-1.640500 1.250000
-1.621600 0.934800
-1.602800 0.632900
-1.584000 0.399400
-1.565100 0.293800
-1.546300 0.342300
-1.527500 0.518600
-1.508600 0.776700
-1.489800 1.099400
-1.471000 1.483400
-1.452200 1.864200
-1.433300 2.107000
-1.414500 2.107900
-1.395700 1.869700
-1.376800 1.478600
-1.358000 1.047500
-1.339200 0.675400
-1.320400 0.425200
-1.301500 0.327700
-1.282700 0.392600
-1.263900 0.599300
-1.245000 0.887400
-1.226200 1.167300
-1.207400 1.346400
-1.188600 1.381400
-1.169700 1.333800
-1.150900 1.322400
-1.132100 1.385400
-1.113200 1.445300
-1.094400 1.423800
-1.075600 1.323100
-1.056800 1.189500
-1.037900 1.073700
-1.019100 1.040100
-1.000300 1.151900
-0.981400 1.392500
-0.962600 1.618700
-0.943800 1.655100
-0.925000 1.456300
-0.906100 1.142300
-0.887300 0.884900
-0.868500 0.788300
-0.849600 0.838800
-0.830800 0.927000
-0.812000 0.941800
-0.793100 0.873900
-0.774300 0.823200
-0.755500 0.895900
-0.736700 1.091000
-0.717800 1.293700
-0.699000 1.375200
-0.680200 1.302000
-0.661300 1.164700
-0.642500 1.109300
-0.623700 1.214600
-0.604900 1.431000
-0.586000 1.656000
-0.567200 1.847100
-0.548400 2.010700
-0.529500 2.113400
-0.510700 2.088500
-0.491900 1.927100
-0.473100 1.703300
-0.454200 1.516500
-0.435400 1.438500
-0.416600 1.479200
-0.397700 1.576300
-0.378900 1.651000
-0.360100 1.681100
-0.341300 1.693200
-0.322400 1.697300
-0.303600 1.673000
-0.284800 1.628300
-0.265900 1.641200
-0.247100 1.806400
-0.228300 2.121300
-0.209500 2.437700
-0.190600 2.550800
-0.171800 2.356200
-0.153000 1.925200
-0.134100 1.448900
-0.115300 1.131600
-0.096500 1.088400
-0.077600 1.258600
-0.058800 1.431700
-0.040000 1.434700
-0.021200 1.291300
-0.002300 1.160100
0.016500 1.151700
0.035300 1.264100
0.054200 1.457800
0.073000 1.713500
0.091800 1.995900
0.110600 2.202700
0.129500 2.209000
0.148300 1.982100
0.167100 1.619200
0.186000 1.269100
0.204800 1.060300
0.223600 1.079100
0.242400 1.333300
0.261300 1.716600
0.280100 2.057400
0.298900 2.231300
0.317800 2.231300
0.336600 2.137200
0.355400 2.035100
0.374200 1.967800
0.393100 1.919200
0.411900 1.827600
0.430700 1.654800
0.449600 1.436600
0.468400 1.223600
0.487200 1.015500
0.506000 0.812300
0.524900 0.676700
0.543700 0.682800
0.562500 0.822100
0.581400 1.002700
0.600200 1.133400
0.619000 1.176500
0.637900 1.126600
0.656700 0.995500
0.675500 0.836200
0.694300 0.730100
0.713200 0.709700
0.732000 0.715800
0.750800 0.664300
0.769700 0.545800
0.788500 0.432900
0.807300 0.393800
0.826100 0.427900
0.845000 0.480100
0.863800 0.491200
0.882600 0.441800
0.901500 0.368900
0.920300 0.330600
0.939100 0.343900
0.957900 0.371200
0.976800 0.368400
0.995600 0.324300
1.014400 0.259700
1.033300 0.208100
1.052100 0.191300
1.070900 0.198300
1.089700 0.199800
1.108600 0.190800
1.127400 0.203100
1.146200 0.267600
1.165100 0.374700
1.183900 0.479500
1.202700 0.537300
1.221500 0.530500
1.240400 0.471600
1.259200 0.388200
1.278000 0.303700
1.296900 0.236600
1.315700 0.203900
1.334500 0.208400
1.353400 0.230700
1.372200 0.253300
1.391000 0.275600
1.409800 0.293500
1.428700 0.282800
1.447500 0.227200
1.466300 0.145400
1.485200 0.073100
1.504000 0.030700
1.522800 0.017100
1.541600 0.024100
1.560500 0.046200
1.579300 0.082400
1.598100 0.135600
1.617000 0.207200
1.635800 0.285600
1.654600 0.343500
1.673400 0.357700
1.692300 0.327900
1.711100 0.271600
1.729900 0.210000
1.748800 0.163900
1.767600 0.151600
1.786400 0.177700
1.805200 0.228500
1.824100 0.294600
1.842900 0.399900
1.861700 0.586900
1.880600 0.851700
1.899400 1.097500
1.918200 1.193200
1.937000 1.109900
1.955900 0.960000
1.974700 0.862600
1.993500 0.825200
2.012400 0.804000
2.031200 0.804200
2.050000 0.850000
2.068900 0.901200
2.087700 0.880800
2.106500 0.780600
2.125300 0.685600
2.144200 0.686200
2.163000 0.800600
2.181800 0.981700
2.200700 1.158500
2.219500 1.276300
2.238300 1.328400
2.257100 1.343200
2.276000 1.320600
2.294800 1.219000
2.313600 1.032400
2.332500 0.827400
2.351300 0.682900
2.370100 0.648800
2.388900 0.765400
2.407800 1.063100
2.426600 1.531900
2.445400 2.105500
2.464300 2.665700
2.483100 3.057800
2.501900 3.144900
2.520700 2.912900
2.539600 2.515700
2.558400 2.157200
2.577200 1.954200
2.596100 1.946000
2.614900 2.140900
2.633700 2.467800
2.652500 2.751500
2.671400 2.830400
2.690200 2.698300
2.709000 2.487600
2.727900 2.328400
2.746700 2.250100
2.765500 2.202200
2.784400 2.128600
2.803200 2.010700
2.822000 1.850600
2.840800 1.646900
2.859700 1.416000
2.878500 1.211900
2.897300 1.093300
2.916200 1.080500
2.935000 1.149800
2.953800 1.250300
2.972600 1.341300
2.991500 1.420600
3.010300 1.489700
3.029100 1.507500
3.048000 1.427900
3.066800 1.275400
3.085600 1.148400
3.104400 1.134900
3.123300 1.220100
3.142100 1.290900
3.160900 1.268000
3.179800 1.212100
3.198600 1.247600
3.217400 1.403000
3.236200 1.580200
3.255100 1.677000
3.273900 1.690200
3.292700 1.679900
3.311600 1.666300
3.330400 1.613900
3.349200 1.500200
3.368000 1.352800
3.386900 1.225600
3.405700 1.147800
3.424500 1.078400
3.443400 0.943400
3.462200 0.747800
3.481000 0.599000
3.499900 0.587900
3.518700 0.686800
3.537500 0.787900
3.556300 0.818500
3.575200 0.800400
3.594000 0.806900
3.612800 0.862500
3.631700 0.903100
3.650500 0.857800
3.669300 0.739200
3.688100 0.608200
3.707000 0.487400
3.725800 0.370400
3.744600 0.283900
3.763500 0.288600
3.782300 0.421100
3.801100 0.662500
3.819900 0.963600
3.838800 1.274800
3.857600 1.533800
3.876400 1.656300
3.895300 1.597000
3.914100 1.422700
3.932900 1.281800
3.951700 1.274300
3.970600 1.362600
3.989400 1.422100
4.008200 1.369700
4.027100 1.232200
4.045900 1.106100
4.064700 1.075200
4.083500 1.157000
4.102400 1.303300
4.121200 1.431900
4.140000 1.460400
4.158900 1.350400
4.177700 1.145200
4.196500 0.948200
4.215400 0.841600
4.234200 0.817200
4.253000 0.797700
4.271800 0.737000
4.290700 0.680600
4.309500 0.710700
4.328300 0.861600
4.347200 1.103500
4.366000 1.369900
4.384800 1.581200
4.403600 1.688500
4.422500 1.715700
4.441300 1.723300
4.460100 1.739100
4.479000 1.772900
4.497800 1.861700
4.516600 2.013500
4.535400 2.152200
4.554300 2.195100
4.573100 2.145400
4.591900 2.058000
4.610800 1.964600
4.629600 1.880200
4.648400 1.843000
4.667200 1.886800
4.686100 1.984100
4.704900 2.067500
4.723700 2.098400
4.742600 2.092500
4.761400 2.101200
4.780200 2.179800
4.799000 2.344800
4.817900 2.562100
4.836700 2.780800
4.855500 2.958500
4.874400 3.070800
4.893200 3.125900
4.912000 3.142100
4.930900 3.096500
4.949700 2.945500
4.968500 2.710800
4.987300 2.502500
5.006200 2.449400
5.025000 2.621100
5.043800 2.986800
5.062700 3.409400
5.081500 3.690000
5.100300 3.669800
5.119100 3.336700
5.138000 2.853100
5.156800 2.451500
5.175600 2.253600
5.194500 2.197900
5.213300 2.168700
5.232100 2.137800
5.250900 2.137100
5.269800 2.167300
5.288600 2.190300
5.307400 2.171000
5.326300 2.119100
5.345100 2.116600
5.363900 2.271400
5.382700 2.617300
5.401600 3.072900
5.420400 3.459700
5.439200 3.556600
5.458100 3.240700
5.476900 2.623000
5.495700 1.984600
5.514500 1.561200
5.533400 1.414600
5.552200 1.474100
5.571000 1.658000
5.589900 1.958000
5.608700 2.380500
5.627500 2.799500
5.646400 2.964600
5.665200 2.732400
5.684000 2.231600
5.702800 1.730700
5.721700 1.386700
5.740500 1.169300
5.759300 0.981200
5.778200 0.794000
5.797000 0.663900
5.815800 0.650600
5.834600 0.751600
5.853500 0.921200
5.872300 1.124000
5.891100 1.335900
5.910000 1.500400
5.928800 1.548700
5.947600 1.505500
5.966400 1.539700
5.985300 1.843400
6.004100 2.425400
6.022900 3.042000
6.041800 3.397200
6.060600 3.423800
6.079400 3.297300
6.098200 3.166500
6.117100 2.983800
6.135900 2.654500
6.154700 2.237800
6.173600 1.889300
6.192400 1.670200
6.211200 1.514700
6.230000 1.346700
6.248900 1.155500
6.267700 0.991900
6.286500 0.926500
6.305400 0.970900
6.324200 1.029100
6.343000 0.988400
6.361900 0.848800
6.380700 0.705200
6.399500 0.641500
6.418300 0.701300
6.437200 0.911000
6.456000 1.266900
6.474800 1.718900
6.493700 2.190300
6.512500 2.594100
6.531300 2.830100
6.550100 2.800400
6.569000 2.475300
6.587800 1.973300
6.606600 1.529300
6.625500 1.344100
6.644300 1.481300
6.663100 1.877800
6.681900 2.362300
6.700800 2.689700
6.719600 2.693300
6.738400 2.445300
6.757300 2.198700
6.776100 2.151700
6.794900 2.293800
6.813700 2.449200
6.832600 2.421700
6.851400 2.133700
6.870200 1.683100
6.889100 1.273400
6.907900 1.079600
6.926700 1.150100
6.945500 1.401700
6.964400 1.705500
6.983200 1.976200
7.002000 2.174900
7.020900 2.280400
7.039700 2.297200
7.058500 2.249600
7.077400 2.158900
7.096200 2.049300
7.115000 1.945600
7.133800 1.848100
7.152700 1.742900
7.171500 1.644400
7.190300 1.609000
7.209200 1.698100
7.228000 1.911300
7.246800 2.149400
7.265600 2.264900
7.284500 2.175200
7.303300 1.932100
7.322100 1.681300
7.341000 1.548900
7.359800 1.554700
7.378600 1.625600
7.397400 1.681200
7.416300 1.706500
7.435100 1.763200
7.453900 1.919600
7.472800 2.139700
7.491600 2.258800
7.510400 2.120000
7.529200 1.739200
7.548100 1.300000
7.566900 0.988700
7.585700 0.858200
7.604600 0.835700
7.623400 0.824300
7.642200 0.809800
7.661000 0.884600
7.679900 1.138400
7.698700 1.510300
7.717500 1.795500
7.736400 1.830900
7.755200 1.645900
7.774000 1.401500
7.792900 1.216600
7.811700 1.084900
7.830500 0.952300
7.849300 0.825800
7.868200 0.775100
7.887000 0.853700
7.905800 1.062600
7.924700 1.374700
7.943500 1.752200
7.962300 2.139100
7.981100 2.462600
8.000000 2.654500
8.018800 2.673400
8.037600 2.525400
8.056500 2.275400
8.075300 2.033000
8.094100 1.901500
8.112900 1.899100
8.131800 1.926400
8.150600 1.869500
8.169400 1.731500
8.188300 1.595000
8.207100 1.492300
8.225900 1.409600
8.244700 1.378000
8.263600 1.435900
8.282400 1.531400
8.301200 1.569300
8.320100 1.533300
8.338900 1.485900
8.357700 1.482600
8.376500 1.555300
8.395400 1.743900
8.414200 2.063100
8.433000 2.426500
8.451900 2.649400
8.470700 2.586600
8.489500 2.275000
8.508400 1.900600
8.527200 1.622200
8.546000 1.465900
8.564800 1.378200
8.583700 1.320700
8.602500 1.292700
8.621300 1.303300
8.640200 1.351600
8.659000 1.426900
8.677800 1.529700
8.696600 1.683200
8.715500 1.886400
8.734300 2.061500
8.753100 2.098200
8.772000 1.958400
8.790800 1.701000
8.809600 1.429000
8.828400 1.252500
8.847300 1.256300
8.866100 1.434400
8.884900 1.672300
8.903800 1.850200
8.922600 1.966600
8.941400 2.119400
8.960200 2.361700
8.979100 2.611000
8.997900 2.721300
9.016700 2.625700
9.035600 2.383600
9.054400 2.108800
9.073200 1.906800
9.092000 1.855100
9.110900 1.974400
9.129700 2.224200
9.148500 2.546100
9.167400 2.866600
9.186200 3.070400
9.205000 3.058200
9.223900 2.852800
9.242700 2.610400
9.261500 2.498000
9.280300 2.542800
9.299200 2.610800
9.318000 2.569900
9.336800 2.465200
9.355700 2.472300
9.374500 2.681700
9.393300 2.991900
9.412100 3.209100
9.431000 3.197000
9.449800 2.958700
9.468600 2.645900
9.487500 2.470500
9.506300 2.542200
9.525100 2.783800
9.543900 3.013400
9.562800 3.117200
9.581600 3.137800
9.600400 3.181100
9.619300 3.256200
9.638100 3.254700
9.656900 3.082400
9.675700 2.769300
9.694600 2.446100
9.713400 2.241100
9.732200 2.201200
9.751100 2.282700
9.769900 2.385600
9.788700 2.401700
9.807600 2.272500
9.826400 2.039400
9.845200 1.828200
9.864000 1.746700
9.882900 1.802700
9.901700 1.944800
9.920500 2.141300
9.939400 2.365600
9.958200 2.547700
9.977000 2.624000
9.995800 2.616500
10.014700 2.603700
10.033500 2.620100
10.052300 2.621400
10.071200 2.548400
10.090000 2.404600
10.108800 2.246100
10.127600 2.101600
10.146500 1.948300
10.165300 1.768100
10.184100 1.580400
10.203000 1.426700
10.221800 1.355000
10.240600 1.397500
10.259400 1.542700
10.278300 1.754900
10.297100 2.012900
10.315900 2.286700
10.334800 2.488500
10.353600 2.501700
10.372400 2.275100
10.391200 1.874000
10.410100 1.454000
10.428900 1.197400
10.447700 1.236300
10.466600 1.568200
10.485400 2.022600
10.504200 2.360400
10.523100 2.457800
10.541900 2.379300
10.560700 2.265400
10.579500 2.203400
10.598400 2.224500
10.617200 2.352800
10.636000 2.593600
10.654900 2.872500
10.673700 3.014800
10.692500 2.846200
10.711300 2.372900
10.730200 1.825300
10.749000 1.462300
10.767800 1.354000
10.786700 1.388100
10.805500 1.427500
10.824300 1.399800
10.843100 1.279500
10.862000 1.081200
10.880800 0.885600
10.899600 0.817200
10.918500 0.960600
10.937300 1.277600
10.956100 1.601500
10.974900 1.743000
10.993800 1.640400
11.012600 1.404200
11.031400 1.207200
11.050300 1.146400
11.069100 1.220100
11.087900 1.405200
11.106700 1.698800
11.125600 2.069100
11.144400 2.397800
11.163200 2.534500
11.182100 2.448300
11.200900 2.284300
11.219700 2.211300
11.238600 2.248300
11.257400 2.286000
11.276200 2.255100
11.295000 2.212200
11.313900 2.226700
11.332700 2.242000
11.351500 2.147900
11.370400 1.964100
11.389200 1.846700
11.408000 1.914400
11.426800 2.145900
11.445700 2.448600
11.464500 2.750800
11.483300 3.004600
11.502200 3.151600
11.521000 3.135700
11.539800 2.948000
11.558600 2.637000
11.577500 2.272900
11.596300 1.915700
11.615100 1.612600
11.634000 1.402900
11.652800 1.317300
11.671600 1.363200
11.690400 1.475800
11.709300 1.508900
11.728100 1.354000
11.746900 1.069200
11.765800 0.830700
11.784600 0.768600
11.803400 0.889400
11.822200 1.125100
11.841100 1.394200
11.859900 1.596300
11.878700 1.619300
11.897600 1.438500
11.916400 1.185900
11.935200 1.033900
11.954100 1.018400
11.972900 1.029900
11.991700 0.963600
12.010500 0.836700
12.029400 0.754300
12.048200 0.796000
12.067000 0.966000
12.085900 1.229500
12.104700 1.534600
12.123500 1.811000
12.142300 2.003100
12.161200 2.093200
12.180000 2.063100
12.198800 1.897200
12.217700 1.672400
12.236500 1.572700
12.255300 1.738300
12.274100 2.110400
12.293000 2.460100
12.311800 2.572800
12.330600 2.417000
12.349500 2.160200
12.368300 2.018400
12.387100 2.057600
12.405900 2.148600
12.424800 2.147700
12.443600 2.074000
12.462400 2.032900
12.481300 2.035400
12.500100 2.012500
12.518900 1.960500
12.537700 1.969600
12.556600 2.121600
12.575400 2.404000
12.594200 2.710300
12.613100 2.904600
12.631900 2.899700
12.650700 2.703000
12.669600 2.398200
12.688400 2.083200
12.707200 1.820000
12.726000 1.624600
12.744900 1.486800
12.763700 1.399800
12.782500 1.365600
12.801400 1.376400
12.820200 1.415700
12.839000 1.483000
12.857800 1.601900
12.876700 1.791200
12.895500 2.025300
12.914300 2.221000
12.933200 2.291300
12.952000 2.251200
12.970800 2.255800
12.989600 2.461500
13.008500 2.824600
13.027300 3.102900
13.046100 3.107900
13.065000 2.915200
13.083800 2.777700
13.102600 2.850300
13.121400 3.017900
13.140300 3.007600
13.159100 2.698500
13.177900 2.289300
13.196800 2.086900
13.215600 2.161500
13.234400 2.293700
13.253200 2.245100
13.272100 1.998500
13.290900 1.726100
13.309700 1.606000
13.328600 1.716000
13.347400 2.055500
13.366200 2.590100
13.385100 3.237000
13.403900 3.816900
13.422700 4.097900
13.441500 3.968700
13.460400 3.558200
13.479200 3.121400
13.498000 2.811100
13.516900 2.603600
13.535700 2.422800
13.554500 2.269100
13.573300 2.205300
13.592200 2.250500
13.611000 2.345600
13.629800 2.436800
13.648700 2.536700
13.667500 2.672500
13.686300 2.817600
13.705100 2.898700
13.724000 2.855500
13.742800 2.712300
13.761600 2.587900
13.780500 2.595400
13.799300 2.747100
13.818100 2.994800
13.836900 3.328200
13.855800 3.762800
13.874600 4.218000
13.893400 4.466600
13.912300 4.278000
13.931100 3.637500
13.949900 2.805500
13.968700 2.140900
13.987600 1.859700
14.006400 1.929300
14.025200 2.150800
14.044100 2.326000
14.062900 2.369000
14.081700 2.310200
14.100600 2.220700
14.119400 2.128200
14.138200 2.016200
14.157000 1.900400
14.175900 1.846500
14.194700 1.879600
14.213500 1.937100
14.232400 1.964600
14.251200 2.017900
14.270000 2.203800
14.288800 2.518500
14.307700 2.805800
14.326500 2.910200
14.345300 2.828700
14.364200 2.680800
14.383000 2.576500
14.401800 2.534800
14.420600 2.505800
14.439500 2.452600
14.458300 2.391700
14.477100 2.340400
14.496000 2.275900
14.514800 2.184600
14.533600 2.117300
14.552400 2.170400
14.571300 2.414600
14.590100 2.814800
14.608900 3.200200
14.627800 3.353800
14.646600 3.179500
14.665400 2.781500
14.684200 2.371200
14.703100 2.117700
14.721900 2.077800
14.740700 2.218100
14.759600 2.479300
14.778400 2.826900
14.797200 3.226400
14.816100 3.572300
14.834900 3.712000
14.853700 3.587400
14.872500 3.311300
14.891400 3.083900
14.910200 3.048500
14.929000 3.200100
14.947900 3.402400
14.966700 3.506300
14.985500 3.447900
15.004300 3.237700
15.023200 2.928600
15.042000 2.624400
15.060800 2.454300
15.079700 2.493000
15.098500 2.731900
15.117300 3.123300
15.136100 3.600000
15.155000 4.039200
15.173800 4.264800
15.192600 4.150800
15.211500 3.752700
15.230300 3.285500
15.249100 2.923700
15.267900 2.692000
15.286800 2.594400
15.305600 2.730700
15.324400 3.180500
15.343300 3.809700
15.362100 4.271900
15.380900 4.257800
15.399700 3.754200
15.418600 3.037800
15.437400 2.444300
15.456200 2.184800
15.475100 2.299400
15.493900 2.658400
15.512700 3.027300
15.531600 3.238200
15.550400 3.305200
15.569200 3.344100
15.588000 3.422300
15.606900 3.501500
15.625700 3.501700
15.644500 3.414500
15.663400 3.345800
15.682200 3.418500
15.701000 3.640500
15.719800 3.895600
15.738700 4.054400
15.757500 4.079900
15.776300 4.035500
15.795200 4.001900
15.814000 3.998600
15.832800 4.002600
15.851600 4.000400
15.870500 3.954200
15.889300 3.768100
15.908100 3.388200
15.927000 2.895100
15.945800 2.419900
15.964600 2.030500
15.983400 1.751600
16.002300 1.610200
16.021100 1.625600
16.039900 1.821400
16.058800 2.228200
16.077600 2.790100
16.096400 3.301700
16.115200 3.541500
16.134100 3.489100
16.152900 3.337300
16.171700 3.256000
16.190600 3.226000
16.209400 3.171500
16.228200 3.159900
16.247100 3.343400
16.265900 3.740800
16.284700 4.163000
16.303500 4.347200
16.322400 4.140000
16.341200 3.598100
16.360000 2.961400
16.378900 2.526500
16.397700 2.491700
16.416500 2.858200
16.435300 3.438300
16.454200 3.964200
16.473000 4.226200
16.491800 4.146600
16.510700 3.791700
16.529500 3.354900
16.548300 3.062400
16.567100 3.037300
16.586000 3.263900
16.604800 3.656300
16.623600 4.088300
16.642500 4.369400
16.661300 4.316800
16.680100 3.928600
16.698900 3.434100
16.717800 3.130100
16.736600 3.192800
16.755400 3.591100
16.774300 4.080600
16.793100 4.330300
16.811900 4.181500
16.830700 3.798000
16.849600 3.515500
16.868400 3.539800
16.887200 3.789000
16.906100 4.009300
16.924900 4.013700
16.943700 3.807300
16.962600 3.535500
16.981400 3.344600
17.000200 3.252900
17.019000 3.146100
17.037900 2.932200
17.056700 2.678800
17.075500 2.544000
17.094400 2.587400
17.113200 2.689400
17.132000 2.663600
17.150800 2.436400
17.169700 2.099600
17.188500 1.792100
17.207300 1.576400
17.226200 1.444400
17.245000 1.392700
17.263800 1.454800
17.282600 1.667100
17.301500 2.027600
17.320300 2.500000
17.339100 3.040300
17.358000 3.593700
17.376800 4.069800
17.395600 4.359600
17.414400 4.402100
17.433300 4.223700
17.452100 3.895500
17.470900 3.469900
17.489800 2.983600
17.508600 2.496600
17.527400 2.071900
17.546200 1.737600
17.565100 1.526300
17.583900 1.533100
17.602700 1.851700
17.621600 2.415600
17.640400 2.942700
17.659200 3.109100
17.678100 2.811300
17.696900 2.247700
17.715700 1.739200
17.734500 1.504800
17.753400 1.595500
17.772200 1.958900
17.791000 2.482100
17.809900 2.979400
17.828700 3.231900
17.847500 3.124200
17.866300 2.730400
17.885200 2.245700
17.904000 1.862200
17.922800 1.697600
17.941700 1.755700
17.960500 1.934900
17.979300 2.138100
17.998100 2.389300
18.017000 2.792600
18.035800 3.377900
18.054600 4.035000
18.073500 4.591900
18.092300 4.920900
18.111100 4.982300
18.129900 4.813600
18.148800 4.493300
18.167600 4.112300
18.186400 3.777400
18.205300 3.602400
18.224100 3.637500
18.242900 3.810700
18.261700 3.966600
18.280600 3.964800
18.299400 3.773000
18.318200 3.487800
18.337100 3.242500
18.355900 3.088800
18.374700 3.006300
18.393600 2.990800
18.412400 3.049700
18.431200 3.124000
18.450000 3.101100
18.468900 2.924800
18.487700 2.652300
18.506500 2.410800
18.525400 2.337300
18.544200 2.512000
18.563000 2.854300
18.581800 3.094100
18.600700 2.972500
18.619500 2.521000
18.638300 2.066200
18.657200 1.912000
18.676000 2.069700
18.694800 2.314600
18.713600 2.449200
18.732500 2.473200
18.751300 2.531600
18.770100 2.757800
18.789000 3.153500
18.807800 3.548900
18.826600 3.690400
18.845400 3.466700
18.864300 3.053400
18.883100 2.742300
18.901900 2.623300
18.920800 2.520800
18.939600 2.242400
18.958400 1.818400
18.977200 1.493000
18.996100 1.518000
19.014900 1.941700
19.033700 2.564900
19.052600 3.089000
19.071400 3.318900
19.090200 3.259800
19.109100 3.052800
19.127900 2.831600
19.146700 2.656700
19.165500 2.561900
19.184400 2.580200
19.203200 2.680600
19.222000 2.735600
19.240900 2.639800
19.259700 2.440600
19.278500 2.267600
19.297300 2.157000
19.316200 2.048300
19.335000 1.933900
19.353800 1.889600
19.372700 1.945100
19.391500 2.025000
19.410300 2.045900
19.429100 2.011000
19.448000 1.995000
19.466800 2.092600
19.485600 2.381400
19.504500 2.846000
19.523300 3.298100
19.542100 3.477000
19.560900 3.309200
19.579800 3.001000
19.598600 2.828400
19.617400 2.898100
19.636300 3.130000
19.655100 3.389200
19.673900 3.576600
19.692700 3.639600
19.711600 3.578000
19.730400 3.462900
19.749200 3.392300
19.768100 3.396000
19.786900 3.417600
19.805700 3.384800
19.824600 3.252600
19.843400 3.020800
19.862200 2.758000
19.881000 2.580800
19.899900 2.574100
19.918700 2.748200
19.937500 3.072100
19.956400 3.499100
19.975200 3.925200
19.994000 4.180300
20.012800 4.142300
20.031700 3.834700
20.050500 3.399000
20.069300 3.026300
20.088200 2.878100
20.107000 2.977100
20.125800 3.193100
20.144600 3.376000
20.163500 3.481800
20.182300 3.581700
20.201100 3.781300
20.220000 4.099200
20.238800 4.392200
20.257600 4.423500
20.276400 4.045000
20.295300 3.345100
20.314100 2.621400
20.332900 2.183200
20.351800 2.147800
20.370600 2.408000
20.389400 2.772400
20.408200 3.104800
20.427100 3.322000
20.445900 3.337800
20.464700 3.115700
20.483600 2.776300
20.502400 2.570800
20.521200 2.682300
20.540100 3.029400
20.558900 3.303700
20.577700 3.274700
20.596500 3.039200
20.615400 2.887900
20.634200 2.985100
20.653000 3.323200
20.671900 3.910800
20.690700 4.735300
20.709500 5.525200
20.728300 5.832500
20.747200 5.478200
20.766000 4.787400
20.784800 4.294100
20.803700 4.255800
20.822500 4.489600
20.841300 4.641700
20.860100 4.550900
20.879000 4.331100
20.897800 4.163600
20.916600 4.080400
20.935500 3.971600
20.954300 3.763400
20.973100 3.515600
20.991900 3.343600
21.010800 3.343500
21.029600 3.582800
21.048400 4.038100
21.067300 4.527300
21.086100 4.796600
21.104900 4.705000
21.123800 4.321500
21.142600 3.853600
21.161400 3.489700
21.180200 3.322000
21.199100 3.387900
21.217900 3.675800
21.236700 4.079200
21.255600 4.441200
21.274400 4.665900
21.293200 4.763000
21.312000 4.821200
21.330900 4.946000
21.349700 5.153600
21.368500 5.300200
21.387400 5.175700
21.406200 4.710500
21.425000 4.091700
21.443800 3.656600
21.462700 3.649100
21.481500 4.033300
21.500300 4.497200
21.519200 4.684300
21.538000 4.506300
21.556800 4.184000
21.575600 3.938100
21.594500 3.769900
21.613300 3.609600
21.632100 3.501800
21.651000 3.533800
21.669800 3.699100
21.688600 3.923100
21.707400 4.153900
21.726300 4.378300
21.745100 4.613600
21.763900 4.908400
21.782800 5.255100
21.801600 5.483000
21.820400 5.392500
21.839300 5.044000
21.858100 4.749500
21.876900 4.722700
21.895700 4.867600
21.914600 4.946800
21.933400 4.819900
21.952200 4.480900
21.971100 4.006300
21.989900 3.544300
22.008700 3.280800
22.027500 3.332300
22.046400 3.629100
22.065200 3.911300
22.084000 3.928800
22.102900 3.709000
22.121700 3.542000
22.140500 3.635300
22.159300 3.882500
22.178200 4.050400
22.197000 4.064500
22.215800 4.004500
22.234700 3.944700
22.253500 3.914000
22.272300 3.906100
22.291100 3.866500
22.310000 3.786700
22.328800 3.842300
22.347600 4.265400
22.366500 4.986800
22.385300 5.574600
22.404100 5.677600
22.422900 5.378700
22.441800 4.963800
22.460600 4.549600
22.479400 4.123300
22.498300 3.750600
22.517100 3.522000
22.535900 3.412700
22.554800 3.351400
22.573600 3.338600
22.592400 3.400300
22.611200 3.509000
22.630100 3.618000
22.648900 3.723000
22.667700 3.826200
22.686600 3.877700
22.705400 3.838600
22.724200 3.777900
22.743000 3.791100
22.761900 3.821300
22.780700 3.673600
22.799500 3.265300
22.818400 2.821800
22.837200 2.737200
22.856000 3.184600
22.874800 3.893600
22.893700 4.370200
22.912500 4.337900
22.931300 3.937100
22.950200 3.527600
22.969000 3.381900
22.987800 3.568500
23.006600 3.999600
23.025500 4.484500
23.044300 4.785500
23.063100 4.755700
23.082000 4.468700
23.100800 4.169600
23.119600 4.074500
23.138400 4.240100
23.157300 4.599600
23.176100 5.019800
23.194900 5.325200
23.213800 5.407100
23.232600 5.341400
23.251400 5.272500
23.270300 5.176100
23.289100 4.876800
23.307900 4.328900
23.326700 3.747100
23.345600 3.408300
23.364400 3.416900
23.383200 3.690000
23.402100 4.063900
23.420900 4.348700
23.439700 4.369600
23.458500 4.092900
23.477400 3.699300
23.496200 3.433200
23.515000 3.390500
23.533900 3.501800
23.552700 3.669200
23.571500 3.847300
23.590300 4.007200
23.609200 4.106600
23.628000 4.153500
23.646800 4.244600
23.665700 4.443700
23.684500 4.638300
23.703300 4.595600
23.722100 4.165400
23.741000 3.423200
23.759800 2.653300
23.778600 2.183700
23.797500 2.195600
23.816300 2.655000
23.835100 3.372900
23.853900 4.111000
23.872800 4.677200
23.891600 4.970100
23.910400 4.976400
23.929300 4.770300
23.948100 4.527600
23.966900 4.466400
23.985800 4.650100
24.004600 4.844100
24.023400 4.697700
24.042200 4.096000
24.061100 3.249300
24.079900 2.469900
24.098700 1.952300
24.117600 1.743900
24.136400 1.838800
24.155200 2.215900
24.174000 2.748300
24.192900 3.168600
24.211700 3.253800
24.230500 3.040100
24.249400 2.774100
24.268200 2.662100
24.287000 2.745000
24.305800 2.998600
24.324700 3.414800
24.343500 3.905000
24.362300 4.244600
24.381200 4.255300
24.400000 4.003900
24.418800 3.714100
24.437600 3.520300
24.456500 3.389100
24.475300 3.239400
24.494100 3.046000
24.513000 2.837400
24.531800 2.644800
24.550600 2.452800
24.569400 2.208100
24.588300 1.899900
24.607100 1.608800
24.625900 1.439500
24.644800 1.422300
24.663600 1.501800
24.682400 1.591700
24.701300 1.617700
24.720100 1.542300
24.738900 1.394300
24.757700 1.266600
24.776600 1.244300
24.795400 1.309700
24.814200 1.359000
24.833100 1.329700
24.851900 1.258100
24.870700 1.202000
24.889500 1.181800
24.908400 1.193800
24.927200 1.217900
24.946000 1.219100
24.964900 1.180700
24.983700 1.131900
25.002500 1.132400
25.021300 1.224700
25.040200 1.386900
25.059000 1.524800
25.077800 1.530700
25.096700 1.369600
25.115500 1.101000
25.134300 0.819800
25.153100 0.601800
25.172000 0.493000
25.190800 0.507100
25.209600 0.623400
25.228500 0.794700
25.247300 0.957200
25.266100 1.039200
25.284900 0.990200
25.303800 0.819400
25.322600 0.595900
25.341400 0.401500
25.360300 0.282700
25.379100 0.236300
25.397900 0.228200
25.416800 0.236400
25.435600 0.290900
25.454400 0.456200
25.473200 0.757200
25.492100 1.118800
25.510900 1.396000
25.529700 1.475800
25.548600 1.354900
25.567400 1.122500
25.586200 0.873900
25.605000 0.653300
25.623900 0.467700
25.642700 0.320800
25.661500 0.214000
25.680400 0.138200
25.699200 0.083500
25.718000 0.051900
25.736800 0.055700
25.755700 0.110300
25.774500 0.220400
25.793300 0.359800
25.812200 0.467400
25.831000 0.483300
25.849800 0.399000
25.868600 0.268100
25.887500 0.164200
25.906300 0.130800
25.925100 0.161000
25.944000 0.209400
25.962800 0.226200
25.981600 0.196100
26.000400 0.142800
26.019300 0.097300
26.038100 0.071200
26.056900 0.066500
26.075800 0.091900
26.094600 0.155700
26.113400 0.243800
26.132300 0.314100
26.151100 0.323800
26.169900 0.265200
26.188700 0.171900
26.207600 0.087500
26.226400 0.034700
26.245200 0.010700
26.264100 0.002500
26.282900 0.000500
26.301700 0.000100
26.320500 0.000000
26.339400 0.000000
26.358200 0.000000
26.377000 0.000000
26.395900 0.000000
26.414700 0.000000
26.433500 0.000000
26.452300 0.000100
26.471200 0.000500
26.490000 0.002000
26.508800 0.006600
26.527700 0.016000
26.546500 0.029600
26.565300 0.041600
26.584100 0.044700
26.603000 0.038000
26.621800 0.029200
26.640600 0.027700
26.659500 0.034900
26.678300 0.043400
26.697100 0.043800
26.715900 0.033900
26.734800 0.020000
26.753600 0.008900
26.772400 0.003000
26.791300 0.000800
26.810100 0.000200
26.828900 0.000000
26.847800 0.000000
26.866600 0.000000
26.885400 0.000000
26.904200 0.000000
26.923100 0.000000
26.941900 0.000000
26.960700 0.000000
26.979600 0.000000
26.998400 0.000000
27.017200 0.000000
27.036000 0.000000
27.054900 0.000000
27.073700 0.000000
27.092500 0.000000
27.111400 0.000000
27.130200 0.000000
27.149000 0.000000
27.167800 0.000000
27.186700 0.000000
27.205500 0.000000
27.224300 0.000000
27.243200 0.000000
27.262000 0.000000
27.280800 0.000000
27.299600 0.000000
27.318500 0.000000
27.337300 0.000000
27.356100 0.000000
27.375000 0.000000
27.393800 0.000000
27.412600 0.000000
27.431400 0.000000
27.450300 0.000000
27.469100 0.000000
27.487900 0.000000
27.506800 0.000000
27.525600 0.000000
27.544400 0.000000
27.563300 0.000000
27.582100 0.000000
27.600900 0.000000
27.619700 0.000000
27.638600 0.000000
27.657400 0.000000
27.676200 0.000000
27.695100 0.000000
27.713900 0.000000
27.732700 0.000000
27.751500 0.000000
27.770400 0.000000
27.789200 0.000000
27.808000 0.000000
27.826900 0.000000
27.845700 0.000000
27.864500 0.000000
27.883300 0.000000
27.902200 0.000000
27.921000 0.000000
27.939800 0.000000
27.958700 0.000000
27.977500 0.000000
27.996300 0.000000
28.015100 0.000000
28.034000 0.000000
28.052800 0.000000
28.071600 0.000000
28.090500 0.000000
28.109300 0.000000
28.128100 0.000000
28.146900 0.000000
28.165800 0.000000
28.184600 0.000000
28.203400 0.000000
28.222300 0.000000
28.241100 0.000000
28.259900 0.000000
28.278800 0.000000
28.297600 0.000000
28.316400 0.000000
28.335200 0.000000
28.354100 0.000000
28.372900 0.000000
28.391700 0.000000
e
