set title 'mp-2331 - Density of States'
set xlabel 'Energy (eV)'
set ylabel 'DOS (states/eV)'
set grid
set xrange [-10:10]
set yrange [0:6.497]
set xzeroaxis lt -1
set terminal png size 800,600
set output 'mp-2331_dos_gnuplot.png'
plot '-' using 1:2 with lines title 'DOS'
-32.699700 0.000000
-32.636500 0.000000
-32.573300 0.000000
-32.510100 0.000000
-32.446900 0.000000
-32.383700 0.000000
-32.320500 0.000000
-32.257300 0.000000
-32.194100 0.000000
-32.130900 0.000000
-32.067700 0.000000
-32.004500 0.000000
-31.941300 0.000000
-31.878100 0.000000
-31.814900 0.000000
-31.751700 0.000000
-31.688500 0.000000
-31.625300 0.000000
-31.562200 0.000000
-31.499000 0.000000
-31.435800 0.000000
-31.372600 0.000000
-31.309400 0.000000
-31.246200 0.000000
-31.183000 0.000000
-31.119800 0.000000
-31.056600 0.000000
-30.993400 0.000000
-30.930200 0.000000
-30.867000 0.000000
-30.803800 0.000000
-30.740600 0.000000
-30.677400 0.000000
-30.614200 0.000000
-30.551000 0.000000
-30.487800 0.000000
-30.424600 0.000000
-30.361400 0.000000
-30.298200 0.000000
-30.235000 0.000000
-30.171800 0.000000
-30.108600 0.000000
-30.045400 0.000000
-29.982200 0.000000
-29.919000 0.000000
-29.855800 0.000000
-29.792600 0.000000
-29.729400 0.000000
-29.666200 0.000000
-29.603000 0.000000
-29.539800 0.000000
-29.476600 0.000000
-29.413400 0.000000
-29.350200 0.000000
-29.287000 0.000000
-29.223800 0.000000
-29.160600 0.000000
-29.097400 0.000000
-29.034200 0.000000
-28.971000 0.000000
-28.907800 0.000000
-28.844600 0.000000
-28.781400 0.000000
-28.718200 0.000000
-28.655000 0.000000
-28.591800 0.000000
-28.528600 0.000000
-28.465400 0.000000
-28.402200 0.000000
-28.339000 0.000000
-28.275800 0.000000
-28.212600 0.000000
-28.149400 0.000000
-28.086200 0.000000
-28.023000 0.000000
-27.959800 0.000000
-27.896600 0.000000
-27.833400 0.000000
-27.770200 0.000000
-27.707100 0.000000
-27.643900 0.000000
-27.580700 0.000000
-27.517500 0.000000
-27.454300 0.000000
-27.391100 0.000000
-27.327900 0.000000
-27.264700 0.000000
-27.201500 0.000000
-27.138300 0.000000
-27.075100 0.000000
-27.011900 0.000000
-26.948700 4.886200
-26.885500 24.620000
-26.822300 12.033300
-26.759100 7.042100
-26.695900 7.930500
-26.632700 12.554000
-26.569500 15.168600
-26.506300 27.932700
-26.443100 15.853400
-26.379900 6.934700
-26.316700 0.000000
-26.253500 0.000000
-26.190300 0.000000
-26.127100 0.000000
-26.063900 0.000000
-26.000700 0.000000
-25.937500 0.000000
-25.874300 0.000000
-25.811100 0.000000
-25.747900 0.000000
-25.684700 0.000000
-25.621500 0.000000
-25.558300 0.000000
-25.495100 0.000000
-25.431900 0.000000
-25.368700 0.000000
-25.305500 0.000000
-25.242300 0.000000
-25.179100 0.000000
-25.115900 0.000000
-25.052700 0.000000
-24.989500 0.000000
-24.926300 0.000000
-24.863100 0.000000
-24.799900 0.000000
-24.736700 0.000000
-24.673500 0.000000
-24.610300 0.000000
-24.547100 0.000000
-24.483900 0.000000
-24.420700 0.000000
-24.357500 0.000000
-24.294300 0.000000
-24.231100 0.000000
-24.167900 0.000000
-24.104700 0.000000
-24.041500 0.000000
-23.978300 0.000000
-23.915100 0.000000
-23.851900 0.000000
-23.788800 0.000000
-23.725600 0.000000
-23.662400 0.000000
-23.599200 0.000000
-23.536000 0.000000
-23.472800 0.000000
-23.409600 0.000000
-23.346400 0.000000
-23.283200 0.000000
-23.220000 0.000000
-23.156800 0.000000
-23.093600 0.000000
-23.030400 0.000000
-22.967200 0.000000
-22.904000 0.000000
-22.840800 0.000000
-22.777600 0.000000
-22.714400 0.000000
-22.651200 0.000000
-22.588000 0.000000
-22.524800 0.000000
-22.461600 0.000000
-22.398400 0.000000
-22.335200 0.000000
-22.272000 0.000000
-22.208800 0.000000
-22.145600 0.000000
-22.082400 0.000000
-22.019200 0.000000
-21.956000 0.000000
-21.892800 0.000000
-21.829600 0.000000
-21.766400 0.000000
-21.703200 0.000000
-21.640000 0.000000
-21.576800 0.000000
-21.513600 0.000000
-21.450400 0.000000
-21.387200 0.000000
-21.324000 0.000000
-21.260800 0.000000
-21.197600 0.000000
-21.134400 0.000000
-21.071200 0.000000
-21.008000 0.000000
-20.944800 0.000000
-20.881600 0.000000
-20.818400 0.000000
-20.755200 0.000000
-20.692000 0.000000
-20.628800 0.000000
-20.565600 0.000000
-20.502400 0.000000
-20.439200 0.000000
-20.376000 0.000000
-20.312800 0.000000
-20.249600 0.000000
-20.186400 0.000000
-20.123200 0.000000
-20.060000 0.000000
-19.996800 0.000000
-19.933700 0.000000
-19.870500 0.000000
-19.807300 0.000000
-19.744100 0.000000
-19.680900 0.000000
-19.617700 0.000000
-19.554500 0.000000
-19.491300 0.000000
-19.428100 0.000000
-19.364900 0.000000
-19.301700 0.000000
-19.238500 0.000000
-19.175300 0.000000
-19.112100 0.000000
-19.048900 0.000000
-18.985700 0.000000
-18.922500 0.000000
-18.859300 0.000000
-18.796100 0.000000
-18.732900 0.000000
-18.669700 0.000000
-18.606500 0.000000
-18.543300 0.000000
-18.480100 0.000000
-18.416900 0.000000
-18.353700 0.000000
-18.290500 0.000000
-18.227300 0.000000
-18.164100 0.000000
-18.100900 0.000000
-18.037700 0.000000
-17.974500 0.000000
-17.911300 0.000000
-17.848100 0.000000
-17.784900 0.000000
-17.721700 0.000000
-17.658500 0.000000
-17.595300 0.000000
-17.532100 0.000000
-17.468900 0.000000
-17.405700 0.000000
-17.342500 0.000000
-17.279300 0.000000
-17.216100 0.000000
-17.152900 0.000000
-17.089700 0.000000
-17.026500 0.000000
-16.963300 0.000000
-16.900100 0.000000
-16.836900 0.000000
-16.773700 0.000000
-16.710500 0.000000
-16.647300 0.000000
-16.584100 0.000000
-16.520900 0.000000
-16.457700 0.000000
-16.394500 0.000000
-16.331300 0.000000
-16.268100 0.000000
-16.204900 0.000000
-16.141700 0.000000
-16.078500 0.000000
-16.015400 0.000000
-15.952200 0.000000
-15.889000 0.000000
-15.825800 0.000000
-15.762600 0.000000
-15.699400 0.000000
-15.636200 0.000000
-15.573000 0.000000
-15.509800 0.000000
-15.446600 0.000000
-15.383400 0.000000
-15.320200 0.000000
-15.257000 0.000000
-15.193800 0.000000
-15.130600 0.000000
-15.067400 0.000000
-15.004200 0.000000
-14.941000 0.000000
-14.877800 0.000000
-14.814600 0.000000
-14.751400 0.000000
-14.688200 0.000000
-14.625000 0.000000
-14.561800 0.000000
-14.498600 0.000000
-14.435400 0.000000
-14.372200 0.000000
-14.309000 0.000000
-14.245800 0.000000
-14.182600 0.000000
-14.119400 0.000000
-14.056200 0.000000
-13.993000 0.000000
-13.929800 0.000000
-13.866600 0.000000
-13.803400 0.000000
-13.740200 0.000000
-13.677000 0.000000
-13.613800 0.000000
-13.550600 0.000000
-13.487400 0.000000
-13.424200 0.000000
-13.361000 0.000000
-13.297800 0.000000
-13.234600 0.000000
-13.171400 0.000000
-13.108200 0.000000
-13.045000 0.000000
-12.981800 0.000000
-12.918600 0.000000
-12.855400 0.000000
-12.792200 0.000000
-12.729000 0.000000
-12.665800 0.000000
-12.602600 0.000000
-12.539400 0.000000
-12.476200 0.000000
-12.413000 0.000000
-12.349800 0.000000
-12.286600 0.000000
-12.223400 0.000000
-12.160300 0.000000
-12.097100 0.000000
-12.033900 0.000000
-11.970700 0.000000
-11.907500 0.000000
-11.844300 0.000000
-11.781100 0.000000
-11.717900 0.000000
-11.654700 0.000000
-11.591500 0.000000
-11.528300 0.000000
-11.465100 0.000000
-11.401900 0.000000
-11.338700 0.000000
-11.275500 0.000000
-11.212300 0.000000
-11.149100 0.000000
-11.085900 0.000000
-11.022700 0.000000
-10.959500 0.000000
-10.896300 0.000000
-10.833100 0.000000
-10.769900 0.000000
-10.706700 0.000000
-10.643500 0.000000
-10.580300 0.000000
-10.517100 0.000000
-10.453900 0.000000
-10.390700 0.000000
-10.327500 0.000000
-10.264300 0.000000
-10.201100 0.000000
-10.137900 0.000000
-10.074700 0.000000
-10.011500 0.000000
-9.948300 0.000000
-9.885100 0.000000
-9.821900 0.000000
-9.758700 0.000000
-9.695500 0.000000
-9.632300 0.000000
-9.569100 0.000000
-9.505900 0.000000
-9.442700 0.000000
-9.379500 0.000000
-9.316300 0.000000
-9.253100 0.000000
-9.189900 0.000000
-9.126700 0.000000
-9.063500 0.000000
-9.000300 0.000000
-8.937100 0.000000
-8.873900 0.000000
-8.810700 0.000000
-8.747500 0.000000
-8.684300 0.000000
-8.621100 0.000000
-8.557900 0.000000
-8.494700 0.000000
-8.431500 0.000000
-8.368300 0.000000
-8.305100 0.000000
-8.242000 0.000000
-8.178800 0.000000
-8.115600 0.000000
-8.052400 0.000000
-7.989200 0.000000
-7.926000 0.000000
-7.862800 0.000000
-7.799600 0.000000
-7.736400 0.000000
-7.673200 0.000000
-7.610000 0.000000
-7.546800 0.000000
-7.483600 0.000000
-7.420400 0.000000
-7.357200 0.000000
-7.294000 0.000000
-7.230800 0.000000
-7.167600 0.000000
-7.104400 0.000000
-7.041200 0.000000
-6.978000 0.000000
-6.914800 0.000000
-6.851600 0.000000
-6.788400 0.000000
-6.725200 0.000000
-6.662000 0.000000
-6.598800 0.000000
-6.535600 0.000000
-6.472400 0.000000
-6.409200 0.000000
-6.346000 0.000000
-6.282800 0.000000
-6.219600 0.000000
-6.156400 0.000000
-6.093200 0.000000
-6.030000 0.000000
-5.966800 0.000000
-5.903600 0.000000
-5.840400 0.000000
-5.777200 0.000000
-5.714000 0.000000
-5.650800 0.000000
-5.587600 0.000000
-5.524400 0.000000
-5.461200 0.000000
-5.398000 0.000000
-5.334800 0.000000
-5.271600 0.000000
-5.208400 0.000000
-5.145200 0.022500
-5.082000 0.151900
-5.018800 0.208200
-4.955600 0.273300
-4.892400 0.373900
-4.829200 0.469400
-4.766000 0.438000
-4.702800 0.448400
-4.639600 0.456500
-4.576400 0.452700
-4.513200 0.462000
-4.450000 0.475400
-4.386800 0.480000
-4.323700 0.483200
-4.260500 0.478600
-4.197300 0.483500
-4.134100 0.490600
-4.070900 0.500800
-4.007700 0.511500
-3.944500 0.518800
-3.881300 0.520100
-3.818100 0.518900
-3.754900 0.523800
-3.691700 0.530200
-3.628500 0.536700
-3.565300 0.544400
-3.502100 0.553100
-3.438900 0.561800
-3.375700 0.568500
-3.312500 0.570000
-3.249300 0.574300
-3.186100 0.596100
-3.122900 0.687200
-3.059700 0.722200
-2.996500 0.767600
-2.933300 0.815800
-2.870100 0.863700
-2.806900 0.907500
-2.743700 0.954000
-2.680500 1.015900
-2.617300 1.091600
-2.554100 1.221200
-2.490900 1.299000
-2.427700 1.364200
-2.364500 1.402000
-2.301300 1.557800
-2.238100 1.659800
-2.174900 1.483000
-2.111700 1.318000
-2.048500 1.189800
-1.985300 1.126500
-1.922100 1.080300
-1.858900 1.027800
-1.795700 0.970000
-1.732500 0.927600
-1.669300 0.886500
-1.606100 0.933800
-1.542900 1.024900
-1.479700 0.971500
-1.416500 0.674700
-1.353300 0.734000
-1.290100 1.346900
-1.226900 1.423100
-1.163700 1.358600
-1.100500 1.436400
-1.037300 1.465300
-0.974100 1.381000
-0.910900 1.313400
-0.847700 1.698000
-0.784500 2.862900
-0.721300 1.210600
-0.658100 0.958200
-0.594900 0.726200
-0.531700 0.454800
-0.468600 0.293300
-0.405400 0.177000
-0.342200 0.099900
-0.279000 0.057200
-0.215800 0.111800
-0.152600 0.186700
-0.089400 0.277400
-0.026200 0.344300
0.037000 1.034900
0.100200 1.487500
0.163400 1.565300
0.226600 1.795500
0.289800 1.798400
0.353000 1.835900
0.416200 1.717500
0.479400 1.314800
0.542600 1.178700
0.605800 0.978100
0.669000 0.643700
0.732200 0.584400
0.795400 0.572000
0.858600 0.570800
0.921800 0.653600
0.985000 0.826000
1.048200 1.050600
1.111400 1.193700
1.174600 1.381900
1.237800 1.563400
1.301000 1.576500
1.364200 1.591800
1.427400 1.714200
1.490600 1.454700
1.553800 1.445000
1.617000 1.447000
1.680200 1.482300
1.743400 1.640200
1.806600 1.751300
1.869800 1.860000
1.933000 2.335900
1.996200 2.035800
2.059400 1.919300
2.122600 1.785000
2.185800 1.633500
2.249000 1.533000
2.312200 1.451500
2.375400 1.758000
2.438600 2.361300
2.501800 2.993600
2.565000 2.865300
2.628200 2.643400
2.691400 2.154300
2.754600 1.659900
2.817800 2.112700
2.881000 2.016500
2.944200 2.124800
3.007400 2.209500
3.070600 1.821900
3.133800 2.191400
3.197000 2.611700
3.260200 2.729900
3.323400 2.883000
3.386600 3.192900
3.449700 4.177500
3.512900 3.505000
3.576100 3.304200
3.639300 2.794700
3.702500 2.573200
3.765700 2.316700
3.828900 1.342400
3.892100 1.245700
3.955300 1.189700
4.018500 2.296100
4.081700 3.217000
4.144900 4.128400
4.208100 4.401600
4.271300 3.351800
4.334500 3.193900
4.397700 4.430300
4.460900 4.989300
4.524100 5.906800
4.587300 3.584300
4.650500 3.287700
4.713700 3.137600
4.776900 2.796500
4.840100 2.472800
4.903300 1.899300
4.966500 1.882900
5.029700 1.975200
5.092900 2.609400
5.156100 2.639600
5.219300 2.819400
5.282500 2.862200
5.345700 3.375100
5.408900 3.691500
5.472100 3.854300
5.535300 3.997400
5.598500 3.226400
5.661700 3.337100
5.724900 2.914600
5.788100 3.154700
5.851300 3.945800
5.914500 3.872200
5.977700 3.346000
6.040900 3.796700
6.104100 3.619000
6.167300 3.494500
6.230500 3.448300
6.293700 3.560300
6.356900 3.011000
6.420100 2.270500
6.483300 1.347100
6.546500 1.932600
6.609700 3.545000
6.672900 3.860600
6.736100 4.828800
6.799300 5.488300
6.862500 3.702700
6.925700 2.880400
6.988900 2.438200
7.052100 1.961600
7.115300 2.034900
7.178500 1.062900
7.241700 0.909100
7.304800 0.695000
7.368000 0.829700
7.431200 0.561100
7.494400 0.313700
7.557600 0.776900
7.620800 0.757600
7.684000 0.736200
7.747200 0.858400
7.810400 0.997800
7.873600 1.142900
7.936800 1.234700
8.000000 1.294200
8.063200 1.339600
8.126400 1.433800
8.189600 1.496200
8.252800 1.625200
8.316000 1.673400
8.379200 1.709900
8.442400 1.802000
8.505600 1.935200
8.568800 2.039000
8.632000 2.171100
8.695200 2.319500
8.758400 2.158800
8.821600 2.011200
8.884800 1.886500
8.948000 1.783700
9.011200 1.684900
9.074400 1.504700
9.137600 1.402000
9.200800 1.366900
9.264000 1.335600
9.327200 1.323200
9.390400 1.337100
9.453600 1.382200
9.516800 1.464400
9.580000 1.556300
9.643200 1.743200
9.706400 1.869600
9.769600 1.951200
9.832800 2.027200
9.896000 2.002500
9.959200 1.874800
10.022400 1.876900
10.085600 1.896700
10.148800 2.448200
10.212000 3.075800
10.275200 3.191400
10.338400 2.969500
10.401600 2.886500
10.464800 2.768600
10.528000 3.059200
10.591200 3.132500
10.654400 3.300700
10.717600 3.763900
10.780800 3.680900
10.844000 4.632200
10.907200 4.786200
10.970400 3.941200
11.033600 3.612500
11.096800 3.376100
11.160000 3.524500
11.223100 3.654200
11.286300 4.451800
11.349500 4.966900
11.412700 4.813400
11.475900 2.913200
11.539100 2.680400
11.602300 2.870700
11.665500 3.677800
11.728700 3.679300
11.791900 3.673800
11.855100 3.222700
11.918300 2.910800
11.981500 2.870600
12.044700 2.953900
12.107900 2.408500
12.171100 1.993500
12.234300 2.068100
12.297500 2.149700
12.360700 1.735300
12.423900 1.649500
12.487100 1.652600
12.550300 1.667600
12.613500 1.679100
12.676700 1.686100
12.739900 1.716000
12.803100 1.730100
12.866300 1.745400
12.929500 1.632500
12.992700 1.387300
13.055900 1.314400
13.119100 1.262800
13.182300 1.219200
13.245500 1.175500
13.308700 1.087000
13.371900 1.027000
13.435100 0.991700
13.498300 0.971300
13.561500 0.933900
13.624700 0.902100
13.687900 0.905800
13.751100 0.992000
13.814300 1.019700
13.877500 1.062300
13.940700 1.148000
14.003900 1.301900
14.067100 1.424900
14.130300 1.570700
14.193500 1.628400
14.256700 1.660300
14.319900 1.790900
14.383100 2.045300
14.446300 1.990800
14.509500 2.075900
14.572700 2.402300
14.635900 2.062600
14.699100 2.257400
14.762300 2.486700
14.825500 2.677900
14.888700 2.884700
14.951900 3.201700
15.015100 3.348900
15.078200 3.537000
15.141400 3.787500
15.204600 4.795900
15.267800 4.554400
15.331000 3.300200
15.394200 2.721600
15.457400 2.560100
15.520600 2.583500
15.583800 1.985500
15.647000 1.496900
15.710200 0.939700
15.773400 0.512400
15.836600 0.310400
15.899800 0.444400
15.963000 0.842900
16.026200 1.299200
16.089400 1.644000
16.152600 2.390500
16.215800 2.927700
16.279000 2.724300
16.342200 3.003600
16.405400 2.817300
16.468600 2.635400
16.531800 2.398100
16.595000 2.437300
16.658200 2.157300
16.721400 1.971200
16.784600 1.903600
16.847800 2.001100
16.911000 2.320500
16.974200 2.396300
17.037400 2.628000
17.100600 2.934400
17.163800 3.304700
17.227000 3.462500
17.290200 3.960700
17.353400 3.866000
17.416600 4.184600
17.479800 3.261000
17.543000 3.056100
17.606200 2.401300
17.669400 1.978600
17.732600 1.891600
17.795800 1.941600
17.859000 2.103800
17.922200 2.181600
17.985400 2.320900
18.048600 2.396300
18.111800 2.564500
18.175000 2.981400
18.238200 3.027400
18.301400 2.865100
18.364600 2.622700
18.427800 2.433000
18.491000 2.263200
18.554200 2.480200
18.617400 2.625400
18.680600 2.687900
18.743800 2.767900
18.807000 2.812700
18.870200 2.649300
18.933400 2.722900
18.996500 2.390000
19.059700 2.207800
19.122900 2.062100
19.186100 2.000500
19.249300 2.085300
19.312500 2.873500
19.375700 2.267500
19.438900 2.183900
19.502100 2.310500
19.565300 2.481300
19.628500 3.082400
19.691700 3.264300
19.754900 3.299600
19.818100 4.106800
19.881300 2.945700
19.944500 2.291500
20.007700 2.324000
20.070900 2.183300
20.134100 1.953400
20.197300 1.846500
20.260500 1.672500
20.323700 1.782300
20.386900 2.125300
20.450100 1.902800
20.513300 2.235100
20.576500 2.294300
20.639700 2.207400
20.702900 2.181100
20.766100 2.114900
20.829300 1.706000
20.892500 1.991500
20.955700 2.452100
21.018900 2.295800
21.082100 2.262300
21.145300 2.190400
21.208500 2.182200
21.271700 2.149800
21.334900 1.834700
21.398100 1.675000
21.461300 1.629800
21.524500 1.641000
21.587700 1.760800
21.650900 1.824300
21.714100 1.823800
21.777300 1.824300
21.840500 1.840100
21.903700 1.791700
21.966900 1.824100
22.030100 1.749500
22.093300 1.698600
22.156500 1.704900
22.219700 1.801900
22.282900 1.986700
22.346100 2.089500
22.409300 2.276800
22.472500 2.223400
22.535700 2.609600
22.598900 2.121900
22.662100 1.726900
22.725300 1.664200
22.788500 1.741100
22.851600 1.879600
22.914800 1.858800
22.978000 1.876100
23.041200 1.927200
23.104400 2.022500
23.167600 2.163000
23.230800 2.316400
23.294000 2.464000
23.357200 2.791600
23.420400 2.938700
23.483600 2.555500
23.546800 2.217400
23.610000 1.902900
23.673200 1.904400
23.736400 1.995500
23.799600 2.141700
23.862800 2.465700
23.926000 2.430300
23.989200 2.407200
24.052400 2.517500
24.115600 2.457100
24.178800 2.514600
24.242000 2.284500
24.305200 1.914700
24.368400 1.657300
24.431600 1.407600
24.494800 1.262500
24.558000 1.248500
24.621200 1.164800
24.684400 1.110500
24.747600 1.208800
24.810800 1.452600
24.874000 1.723500
24.937200 1.967100
25.000400 2.249900
25.063600 2.596100
25.126800 2.876500
25.190000 2.744400
25.253200 2.413100
25.316400 2.507000
25.379600 2.521100
25.442800 3.271300
25.506000 4.489800
25.569200 6.267100
25.632400 3.290400
25.695600 2.775300
25.758800 2.429900
25.822000 1.930300
25.885200 2.152100
25.948400 2.180700
26.011600 2.312000
26.074800 2.392300
26.138000 2.359400
26.201200 2.726700
26.264400 3.204600
26.327600 3.492500
26.390800 4.023400
26.454000 4.361700
26.517200 4.550100
26.580400 3.693600
26.643600 2.788800
26.706800 2.354400
26.769900 2.147900
26.833100 2.086600
26.896300 2.217000
26.959500 2.493800
27.022700 2.993100
27.085900 2.342400
27.149100 2.358600
27.212300 2.450100
27.275500 2.455900
27.338700 2.534000
27.401900 2.351500
27.465100 2.200200
27.528300 1.989300
27.591500 1.762100
27.654700 1.699500
27.717900 1.482100
27.781100 1.451900
27.844300 1.668100
27.907500 1.811900
27.970700 2.142500
28.033900 2.300500
28.097100 2.271000
28.160300 2.221000
28.223500 1.978900
28.286700 1.890300
28.349900 1.851100
28.413100 1.857900
28.476300 1.811100
28.539500 1.833400
28.602700 1.699300
28.665900 1.663500
28.729100 1.634600
28.792300 1.614100
28.855500 1.901600
28.918700 1.749300
28.981900 1.446400
29.045100 1.204400
29.108300 1.008000
29.171500 0.851700
29.234700 0.743100
29.297900 0.643100
29.361100 0.640500
29.424300 0.861200
29.487500 1.027900
29.550700 1.112900
29.613900 1.203300
29.677100 1.536800
29.740300 1.627600
29.803500 1.760600
29.866700 1.725000
29.929900 1.826700
29.993100 2.013500
30.056300 1.933600
30.119500 1.679400
30.182700 1.465000
30.245900 1.533300
30.309100 1.513900
30.372300 1.405900
30.435500 1.279500
30.498700 1.214700
30.561900 1.152400
30.625000 1.120600
30.688200 1.085500
30.751400 1.104000
30.814600 1.229300
30.877800 1.261300
30.941000 1.337900
31.004200 1.471900
31.067400 1.756000
31.130600 1.817500
31.193800 1.953300
31.257000 2.022200
31.320200 2.093800
31.383400 2.188900
31.446600 2.398000
31.509800 2.362400
31.573000 2.466700
31.636200 2.277400
31.699400 2.233000
31.762600 2.321100
31.825800 1.974200
31.889000 1.573900
31.952200 1.514900
32.015400 1.512500
32.078600 1.881200
32.141800 2.436800
32.205000 2.418500
32.268200 2.158000
32.331400 1.874000
32.394600 1.862000
32.457800 1.841700
32.521000 1.865700
32.584200 1.885200
32.647400 2.042000
32.710600 2.185600
32.773800 2.533100
32.837000 2.874900
32.900200 2.910400
32.963400 2.782700
33.026600 2.747400
33.089800 2.499900
33.153000 2.489000
33.216200 2.416100
33.279400 2.405100
33.342600 2.364000
33.405800 2.339000
33.469000 2.245500
33.532200 2.306100
33.595400 2.476900
33.658600 2.573100
33.721800 2.378600
33.785000 2.469500
33.848200 2.636000
33.911400 2.740200
33.974600 2.826000
34.037800 2.931000
34.101000 3.121400
34.164200 2.667200
34.227400 2.291200
34.290600 2.078600
34.353800 2.274500
34.417000 2.465400
34.480200 2.799200
34.543300 2.651100
34.606500 2.392000
34.669700 2.381000
34.732900 2.739000
34.796100 2.418700
34.859300 2.441300
34.922500 2.324000
34.985700 2.485700
35.048900 2.431400
35.112100 2.473900
35.175300 2.545500
35.238500 2.692700
35.301700 2.545900
35.364900 2.435400
35.428100 2.478300
35.491300 2.503600
35.554500 2.465400
35.617700 2.285700
35.680900 2.127700
35.744100 2.070300
35.807300 2.188100
35.870500 2.413600
35.933700 2.205000
35.996900 2.063200
36.060100 2.233500
36.123300 2.254100
36.186500 2.348200
36.249700 2.538400
36.312900 2.834000
36.376100 3.199300
36.439300 3.229300
36.502500 3.236200
36.565700 3.267700
36.628900 3.292200
36.692100 3.115600
36.755300 2.893900
36.818500 2.571000
36.881700 2.395400
36.944900 2.324600
37.008100 2.218100
37.071300 2.205900
37.134500 2.317700
37.197700 2.476200
37.260900 2.696300
37.324100 3.030800
37.387300 3.030100
37.450500 2.961700
37.513700 2.987900
37.576900 2.813600
37.640100 2.712900
37.703300 2.802200
37.766500 2.797300
37.829700 2.613800
37.892900 2.768100
37.956100 2.912000
38.019300 2.824400
38.082500 2.784100
38.145700 2.661300
38.208900 2.531300
38.272100 2.473500
38.335300 2.655500
38.398500 2.898200
38.461600 2.979700
38.524800 3.098100
38.588000 2.911100
38.651200 3.019700
38.714400 3.099600
38.777600 3.002500
38.840800 2.662900
38.904000 2.626300
38.967200 2.485000
39.030400 2.376600
39.093600 2.461100
39.156800 2.877500
39.220000 3.144400
39.283200 3.803800
39.346400 3.383000
39.409600 2.688600
39.472800 2.518800
39.536000 2.710100
39.599200 3.114900
39.662400 2.704100
39.725600 2.539700
39.788800 2.533000
39.852000 2.774900
39.915200 2.486600
39.978400 2.376000
40.041600 2.462500
40.104800 2.692500
40.168000 2.452800
40.231200 2.522800
40.294400 2.664500
40.357600 2.708500
40.420800 2.688100
40.484000 2.528400
40.547200 2.326700
40.610400 2.276800
40.673600 2.309700
40.736800 2.248800
40.800000 2.393200
40.863200 2.593400
40.926400 2.577500
40.989600 2.292400
41.052800 2.252000
41.116000 2.377300
41.179200 2.481100
41.242400 2.578100
41.305600 2.644500
41.368800 2.971000
41.432000 2.978700
41.495200 2.956800
41.558400 2.859500
41.621600 2.513100
41.684800 2.399200
41.748000 2.330800
41.811200 2.588300
41.874400 2.879300
41.937600 3.165300
42.000800 3.030000
42.064000 2.785700
42.127200 2.646700
42.190400 2.510800
42.253600 2.253500
42.316700 2.382900
42.379900 2.653100
42.443100 3.032000
42.506300 3.462200
42.569500 3.596500
42.632700 2.751200
42.695900 2.445600
42.759100 2.312400
42.822300 2.265700
42.885500 2.356300
42.948700 2.265200
43.011900 2.250200
43.075100 2.394700
43.138300 2.641200
43.201500 2.977800
43.264700 2.880600
43.327900 2.617700
43.391100 2.507000
43.454300 2.419300
43.517500 2.149300
43.580700 2.051400
43.643900 2.071300
43.707100 2.151000
43.770300 2.655800
43.833500 3.062200
43.896700 3.194500
43.959900 3.066200
44.023100 2.823800
44.086300 2.616500
44.149500 2.055000
44.212700 1.424400
44.275900 1.442200
44.339100 1.822800
44.402300 2.227900
44.465500 2.985100
44.528700 3.519100
44.591900 3.514700
44.655100 3.423700
44.718300 2.967900
44.781500 2.463000
44.844700 2.089200
44.907900 2.398200
44.971100 3.089800
45.034300 3.209400
45.097500 2.912100
45.160700 2.631700
45.223900 2.613500
45.287100 2.865100
45.350300 3.010500
45.413500 3.247500
45.476700 3.216300
45.539900 3.154800
45.603100 2.814500
45.666300 2.552400
45.729500 2.417300
45.792700 2.265200
45.855900 2.263200
45.919100 2.572400
45.982300 2.869600
46.045500 3.016400
46.108700 2.833100
46.171900 2.429300
46.235000 2.235300
46.298200 2.118600
46.361400 2.055000
46.424600 2.094700
46.487800 2.083100
46.551000 2.386500
46.614200 2.791000
46.677400 3.309300
46.740600 3.373100
46.803800 3.307700
46.867000 3.072800
46.930200 3.266800
46.993400 3.576200
47.056600 3.534100
47.119800 3.369800
47.183000 3.192800
47.246200 2.973300
47.309400 2.768500
47.372600 2.762200
47.435800 2.879200
47.499000 3.056300
47.562200 3.034300
47.625400 2.766000
47.688600 2.378000
47.751800 2.291500
47.815000 2.399800
47.878200 2.525700
47.941400 2.684400
48.004600 2.835500
48.067800 2.972900
48.131000 3.420600
48.194200 3.355100
48.257400 3.551600
48.320600 3.729500
48.383800 3.984200
48.447000 3.789500
48.510200 3.137100
48.573400 2.955300
48.636600 3.035500
48.699800 3.193600
48.763000 3.553000
48.826200 3.874800
48.889400 3.600800
48.952600 3.190700
49.015800 3.177600
49.079000 3.137700
49.142200 3.047100
49.205400 2.905400
49.268600 3.168600
49.331800 3.380100
49.395000 2.914200
49.458200 2.781600
49.521400 2.669300
49.584600 2.581000
49.647800 2.659200
49.711000 2.854800
49.774200 3.139900
49.837400 3.439500
49.900600 3.802800
49.963800 3.491800
50.027000 3.318500
50.090100 3.209400
50.153300 3.096200
50.216500 2.897600
50.279700 2.801300
50.342900 2.774800
50.406100 2.880000
50.469300 2.978300
50.532500 2.998200
50.595700 3.070900
50.658900 3.250400
50.722100 3.329500
50.785300 3.275000
50.848500 3.250200
50.911700 3.238200
50.974900 3.262600
51.038100 3.378100
51.101300 3.366200
51.164500 3.085100
51.227700 2.872500
51.290900 2.823400
51.354100 2.853900
51.417300 3.064600
51.480500 3.189700
51.543700 3.377400
51.606900 3.362700
51.670100 3.580300
51.733300 3.650900
51.796500 3.694100
51.859700 3.651400
51.922900 3.452400
51.986100 3.334800
52.049300 3.272700
52.112500 3.188000
52.175700 3.169600
52.238900 3.147500
52.302100 3.112100
52.365300 3.062000
52.428500 3.078400
52.491700 3.162700
52.554900 3.275600
52.618100 3.344400
52.681300 3.220500
52.744500 3.156500
52.807700 3.061000
52.870900 3.142400
52.934100 3.256200
52.997300 3.250900
53.060500 3.385800
53.123700 3.437400
53.186900 3.456300
53.250100 3.416700
53.313300 2.975700
53.376500 2.997100
53.439700 2.817500
53.502900 2.819500
53.566100 2.713400
53.629300 2.727700
53.692500 2.962100
53.755700 2.878100
53.818900 2.859300
53.882100 2.907000
53.945300 3.041200
54.008400 2.921300
54.071600 2.916000
54.134800 2.728000
54.198000 2.694400
54.261200 2.653500
54.324400 2.746900
54.387600 2.741000
54.450800 2.747800
54.514000 2.914400
54.577200 3.070200
54.640400 3.211500
54.703600 3.156700
54.766800 2.878500
54.830000 2.637700
54.893200 2.669900
54.956400 2.711100
55.019600 2.806300
55.082800 2.862100
55.146000 2.878400
55.209200 2.921400
55.272400 2.843200
55.335600 2.757600
55.398800 2.606100
55.462000 2.421900
55.525200 2.298700
55.588400 2.255500
55.651600 2.380200
55.714800 2.611300
55.778000 2.869800
55.841200 2.966600
55.904400 2.870300
55.967600 2.783400
56.030800 2.838600
56.094000 3.035000
56.157200 2.971400
56.220400 2.822600
56.283600 2.815500
56.346800 3.040500
56.410000 3.106700
56.473200 3.251900
56.536400 3.367400
56.599600 3.295800
56.662800 3.000000
56.726000 2.852200
56.789200 2.724500
56.852400 2.940500
56.915600 3.194700
56.978800 3.250000
57.042000 3.085300
57.105200 2.986800
57.168400 2.928300
57.231600 3.113500
57.294800 3.103400
57.358000 3.017800
57.421200 2.972200
57.484400 3.035200
57.547600 3.067200
57.610800 3.180200
57.674000 3.276700
57.737200 3.441000
57.800400 3.712300
57.863500 3.909400
57.926700 3.884400
57.989900 3.519700
58.053100 3.292400
58.116300 3.174700
58.179500 3.257400
58.242700 3.346500
58.305900 3.431300
58.369100 3.429900
58.432300 3.548800
58.495500 3.544100
58.558700 3.500700
58.621900 3.402300
58.685100 3.225200
58.748300 3.024700
58.811500 3.062300
58.874700 2.959100
58.937900 3.014800
59.001100 2.858700
59.064300 2.919100
59.127500 2.783300
59.190700 2.706200
59.253900 2.767000
59.317100 2.837800
59.380300 3.047100
59.443500 3.216800
59.506700 3.223800
59.569900 3.101200
59.633100 2.872200
59.696300 2.747700
59.759500 2.728100
59.822700 2.684900
59.885900 2.611800
59.949100 2.559500
60.012300 2.478200
60.075500 2.573700
60.138700 2.657000
60.201900 2.771800
60.265100 2.990000
60.328300 3.089300
60.391500 2.966600
60.454700 2.898700
60.517900 2.819500
60.581100 2.753500
60.644300 2.773200
60.707500 2.805700
60.770700 2.813300
60.833900 2.926900
60.897100 3.065300
60.960300 3.109000
61.023500 3.171200
61.086700 3.247400
61.149900 3.245400
61.213100 2.771100
61.276300 2.371300
61.339500 2.167600
61.402700 2.178000
61.465900 2.250400
61.529100 2.597300
61.592300 2.899000
61.655500 2.940400
61.718700 2.968200
61.781800 3.027800
61.845000 3.134000
61.908200 3.242600
61.971400 3.066300
62.034600 2.835300
62.097800 2.799100
62.161000 2.893700
62.224200 2.975000
62.287400 3.262200
62.350600 3.021100
62.413800 2.828400
62.477000 2.910500
62.540200 3.017700
62.603400 2.830500
62.666600 2.959700
62.729800 2.835100
62.793000 2.647600
62.856200 2.437400
62.919400 2.569400
62.982600 2.565400
63.045800 2.601500
63.109000 2.678600
63.172200 2.669200
63.235400 2.713700
63.298600 2.901100
63.361800 3.147500
63.425000 3.238500
63.488200 3.513800
63.551400 3.466200
63.614600 3.197000
63.677800 3.424900
63.741000 3.544000
63.804200 3.627900
63.867400 3.615200
63.930600 3.385800
63.993800 3.273100
64.057000 2.813900
64.120200 2.639000
64.183400 2.794800
64.246600 3.138600
64.309800 3.603900
64.373000 4.311000
64.436200 4.275200
64.499400 3.922800
64.562600 3.516600
64.625800 3.068600
64.689000 2.808100
64.752200 2.555800
64.815400 2.592600
64.878600 3.180300
64.941800 3.406900
65.005000 3.466600
65.068200 3.376700
65.131400 3.247000
65.194600 3.149900
65.257800 2.996000
65.321000 3.092200
65.384200 3.054200
65.447400 2.588800
65.510600 2.527100
65.573800 2.708400
65.636900 2.918700
65.700100 3.105400
65.763300 3.350000
65.826500 3.717800
65.889700 3.973000
65.952900 3.975400
66.016100 3.760900
66.079300 3.508300
66.142500 2.815100
66.205700 2.451200
66.268900 2.398400
66.332100 2.556700
66.395300 2.900000
66.458500 3.452600
66.521700 3.608900
66.584900 3.545100
66.648100 3.594000
66.711300 3.722300
66.774500 3.605200
66.837700 3.018400
66.900900 2.599200
66.964100 2.434800
67.027300 2.595500
67.090500 2.894400
67.153700 3.596000
67.216900 3.833800
67.280100 3.819000
67.343300 3.816100
67.406500 3.822900
67.469700 3.616200
67.532900 3.542600
67.596100 3.400900
67.659300 3.668000
67.722500 3.156800
67.785700 3.088100
67.848900 3.139100
67.912100 3.079600
67.975300 3.185900
68.038500 2.972300
68.101700 3.218100
68.164900 3.327000
68.228100 3.233500
68.291300 3.350600
68.354500 3.265700
68.417700 3.250500
68.480900 3.213700
68.544100 3.251900
68.607300 3.180300
68.670500 3.065300
68.733700 3.007400
68.796900 3.183500
68.860100 3.235800
68.923300 3.099400
68.986500 2.966300
69.049700 2.990100
69.112900 3.068800
69.176100 2.901600
69.239300 2.912800
69.302500 3.032900
69.365700 3.166900
69.428900 3.176700
69.492100 3.310600
69.555200 3.487200
69.618400 3.414300
69.681600 3.289600
69.744800 3.112500
69.808000 2.987500
69.871200 2.829800
69.934400 2.821400
69.997600 2.950000
70.060800 3.042000
70.124000 3.030700
70.187200 3.376100
70.250400 3.466000
70.313600 3.321500
70.376800 3.386900
70.440000 3.561400
70.503200 3.541100
70.566400 3.337200
70.629600 3.256100
70.692800 3.453100
70.756000 3.752000
70.819200 3.867800
70.882400 3.880300
70.945600 3.974800
71.008800 3.789900
71.072000 3.571800
71.135200 3.584400
71.198400 3.301900
71.261600 3.158800
71.324800 3.153400
71.388000 3.146200
71.451200 3.241100
71.514400 3.128400
71.577600 2.983800
71.640800 3.121100
71.704000 3.203800
71.767200 3.066200
71.830400 2.948000
71.893600 2.938600
71.956800 2.899200
72.020000 2.890700
72.083200 3.177500
72.146400 3.475500
72.209600 3.531900
72.272800 3.429300
72.336000 3.326400
72.399200 3.226300
72.462400 3.197100
72.525600 3.417000
72.588800 3.373800
72.652000 3.423100
72.715200 3.457700
72.778400 3.204700
72.841600 3.073400
72.904800 2.969800
72.968000 3.227100
73.031200 3.553900
73.094400 3.573500
73.157600 3.518600
73.220800 3.344000
73.284000 3.280700
73.347200 3.196400
73.410400 2.996800
73.473500 2.888600
73.536700 2.899300
73.599900 3.000400
73.663100 3.121100
73.726300 3.290400
73.789500 3.382100
73.852700 3.325500
73.915900 3.449300
73.979100 3.289500
74.042300 2.894100
74.105500 2.808200
74.168700 2.764100
74.231900 2.789500
74.295100 2.892000
74.358300 3.078800
74.421500 3.457400
74.484700 3.472900
74.547900 3.465600
74.611100 3.349800
74.674300 3.308600
74.737500 3.285100
74.800700 3.539600
74.863900 3.542600
74.927100 3.557700
74.990300 3.509500
75.053500 3.595400
75.116700 3.553000
75.179900 3.491200
75.243100 3.323300
75.306300 3.237300
75.369500 3.276800
75.432700 3.391500
75.495900 3.699300
75.559100 3.791300
75.622300 3.730400
75.685500 3.636300
75.748700 3.630300
75.811900 3.587700
75.875100 3.547200
75.938300 3.407900
76.001500 3.432700
76.064700 3.423500
76.127900 3.477300
76.191100 3.383900
76.254300 3.270300
76.317500 3.237300
76.380700 3.175600
76.443900 3.170200
76.507100 3.233300
76.570300 3.280000
76.633500 3.428500
76.696700 3.566400
76.759900 3.748100
76.823100 3.620300
76.886300 3.521500
76.949500 3.588900
77.012700 3.894000
77.075900 3.906800
77.139100 3.665600
77.202300 3.405400
77.265500 3.450500
77.328600 3.594300
77.391800 3.631500
77.455000 3.517100
77.518200 3.434200
77.581400 3.451300
77.644600 3.461300
77.707800 3.377500
77.771000 3.520400
77.834200 3.840600
77.897400 3.838400
77.960600 3.864400
78.023800 3.554700
78.087000 3.334400
78.150200 3.373000
78.213400 3.523600
78.276600 3.763500
78.339800 3.759100
78.403000 3.624200
78.466200 3.745000
78.529400 3.644300
78.592600 3.407000
78.655800 3.138000
78.719000 3.067600
78.782200 3.222300
78.845400 3.543600
78.908600 3.750200
78.971800 3.816400
79.035000 3.677900
79.098200 3.600000
79.161400 3.856200
79.224600 3.469600
79.287800 3.401100
79.351000 3.364100
79.414200 3.465900
79.477400 3.671300
79.540600 3.373600
79.603800 3.474600
79.667000 3.430600
79.730200 3.703700
79.793400 3.710000
79.856600 3.913200
79.919800 3.977500
79.983000 3.727100
80.046200 3.614500
80.109400 3.403200
80.172600 3.321300
80.235800 3.436400
80.299000 3.425100
80.362200 3.334700
80.425400 3.353700
80.488600 3.436900
80.551800 3.496600
80.615000 3.540100
80.678200 3.676300
80.741400 3.583000
80.804600 3.387500
80.867800 3.368900
80.931000 3.507200
80.994200 3.688700
81.057400 3.504200
81.120600 3.466600
81.183800 3.425300
81.246900 3.485400
81.310100 3.610400
81.373300 3.616300
81.436500 3.651500
81.499700 3.694100
81.562900 3.772500
81.626100 4.017400
81.689300 3.918400
81.752500 3.830900
81.815700 3.641100
81.878900 3.656600
81.942100 3.707700
82.005300 3.655600
82.068500 3.654800
82.131700 3.859600
82.194900 4.102500
82.258100 4.029300
82.321300 3.854300
82.384500 3.749000
82.447700 3.728800
82.510900 3.696400
82.574100 3.741200
82.637300 3.611700
82.700500 3.468900
82.763700 3.364400
82.826900 3.302800
82.890100 3.330800
82.953300 3.528600
83.016500 3.623700
83.079700 3.682600
83.142900 4.209200
83.206100 3.533200
83.269300 3.425400
83.332500 3.367900
83.395700 3.436700
83.458900 3.591500
83.522100 3.798500
83.585300 3.600800
83.648500 3.528500
83.711700 3.438700
83.774900 3.359800
83.838100 3.326700
83.901300 3.330000
83.964500 3.410000
84.027700 3.425300
84.090900 3.367100
84.154100 3.281400
84.217300 3.186000
84.280500 3.085500
84.343700 3.014300
84.406900 2.987000
84.470100 2.994300
84.533300 3.004100
84.596500 2.968000
84.659700 2.984200
84.722900 3.147000
84.786100 3.163300
84.849300 3.094100
84.912500 2.986400
84.975700 2.923600
85.038900 2.987700
85.102000 2.949300
85.165200 2.646300
85.228400 2.763900
85.291600 2.597300
85.354800 2.403000
85.418000 2.288200
85.481200 2.176100
85.544400 2.188500
85.607600 2.207900
85.670800 2.120500
85.734000 2.365900
85.797200 2.199400
85.860400 2.204800
85.923600 2.155800
85.986800 2.168100
86.050000 2.118800
86.113200 1.978100
86.176400 1.835400
86.239600 1.932600
86.302800 2.082600
86.366000 1.938500
86.429200 1.912500
86.492400 1.867100
86.555600 1.680000
86.618800 1.544300
86.682000 1.375100
86.745200 1.238200
86.808400 1.305700
86.871600 1.476700
86.934800 1.613300
86.998000 1.181700
87.061200 0.953000
87.124400 0.709500
87.187600 0.512600
87.250800 0.398500
87.314000 0.332400
87.377200 0.301700
87.440400 0.282900
87.503600 0.272900
87.566800 0.257000
87.630000 0.224300
87.693200 0.121900
87.756400 0.063200
87.819600 0.019200
87.882800 0.006900
87.946000 0.000000
88.009200 0.000000
88.072400 0.000000
88.135600 0.000000
88.198800 0.000000
88.262000 0.000000
88.325200 0.000000
88.388400 0.000000
88.451600 0.000000
88.514800 0.000000
88.578000 0.000000
88.641200 0.000000
88.704400 0.000000
88.767600 0.000000
88.830800 0.000000
88.894000 0.000000
88.957200 0.000000
89.020300 0.000000
89.083500 0.000000
89.146700 0.000000
89.209900 0.000000
89.273100 0.000000
89.336300 0.000000
89.399500 0.000000
89.462700 0.000000
89.525900 0.000000
89.589100 0.000000
89.652300 0.000000
89.715500 0.000000
89.778700 0.000000
89.841900 0.000000
89.905100 0.000000
89.968300 0.000000
90.031500 0.000000
90.094700 0.000000
90.157900 0.000000
90.221100 0.000000
90.284300 0.000000
90.347500 0.000000
90.410700 0.000000
90.473900 0.000000
90.537100 0.000000
90.600300 0.000000
90.663500 0.000000
90.726700 0.000000
90.789900 0.000000
90.853100 0.000000
90.916300 0.000000
90.979500 0.000000
91.042700 0.000000
91.105900 0.000000
91.169100 0.000000
91.232300 0.000000
91.295500 0.000000
91.358700 0.000000
91.421900 0.000000
91.485100 0.000000
91.548300 0.000000
91.611500 0.000000
91.674700 0.000000
91.737900 0.000000
91.801100 0.000000
91.864300 0.000000
91.927500 0.000000
91.990700 0.000000
92.053900 0.000000
92.117100 0.000000
92.180300 0.000000
92.243500 0.000000
92.306700 0.000000
92.369900 0.000000
92.433100 0.000000
92.496300 0.000000
92.559500 0.000000
92.622700 0.000000
92.685900 0.000000
92.749100 0.000000
92.812300 0.000000
92.875400 0.000000
92.938600 0.000000
93.001800 0.000000
93.065000 0.000000
93.128200 0.000000
93.191400 0.000000
93.254600 0.000000
93.317800 0.000000
93.381000 0.000000
93.444200 0.000000
93.507400 0.000000
93.570600 0.000000
93.633800 0.000000
93.697000 0.000000
e
