set title 'mp-12605 - Density of States'
set xlabel 'Energy (eV)'
set ylabel 'DOS (states/eV)'
set grid
set xrange [-10:10]
set yrange [0:5.240]
set xzeroaxis lt -1
set terminal png size 800,600
set output 'mp-12605_dos_gnuplot.png'
plot '-' using 1:2 with lines title 'DOS'
-37.223600 0.000000
-37.161000 0.000000
-37.098400 0.000000
-37.035800 0.000000
-36.973200 0.000000
-36.910600 0.000000
-36.848000 0.000000
-36.785400 0.000000
-36.722700 0.000000
-36.660100 0.000000
-36.597500 0.000000
-36.534900 0.000000
-36.472300 0.000000
-36.409700 0.000000
-36.347100 0.000000
-36.284500 0.000000
-36.221900 0.000000
-36.159300 0.000000
-36.096700 0.000000
-36.034000 0.000000
-35.971400 0.000000
-35.908800 0.000000
-35.846200 0.000000
-35.783600 0.000000
-35.721000 0.000000
-35.658400 0.000000
-35.595800 0.000000
-35.533200 0.000000
-35.470600 0.000000
-35.407900 0.000000
-35.345300 0.000000
-35.282700 0.000000
-35.220100 0.000000
-35.157500 0.000000
-35.094900 0.000000
-35.032300 0.000000
-34.969700 0.000000
-34.907100 0.000000
-34.844500 0.000000
-34.781800 0.000000
-34.719200 0.000000
-34.656600 0.000000
-34.594000 0.000000
-34.531400 0.000000
-34.468800 0.000000
-34.406200 0.000000
-34.343600 0.000000
-34.281000 0.000000
-34.218400 0.000000
-34.155700 0.000000
-34.093100 0.000000
-34.030500 0.000000
-33.967900 0.000000
-33.905300 0.000000
-33.842700 0.000000
-33.780100 0.000000
-33.717500 0.000000
-33.654900 0.000000
-33.592300 0.000000
-33.529600 0.000000
-33.467000 0.000000
-33.404400 0.000000
-33.341800 0.000000
-33.279200 0.000000
-33.216600 0.000000
-33.154000 0.000000
-33.091400 0.000000
-33.028800 0.000000
-32.966200 0.000000
-32.903500 0.000000
-32.840900 0.000000
-32.778300 0.000000
-32.715700 0.000000
-32.653100 0.000000
-32.590500 0.000000
-32.527900 0.000000
-32.465300 0.000000
-32.402700 0.000000
-32.340100 0.000000
-32.277400 0.000000
-32.214800 0.000000
-32.152200 0.000000
-32.089600 0.000000
-32.027000 0.000000
-31.964400 0.000000
-31.901800 0.000000
-31.839200 0.000000
-31.776600 0.000000
-31.714000 0.000000
-31.651300 0.001400
-31.588700 0.357300
-31.526100 7.597300
-31.463500 29.087400
-31.400900 37.574100
-31.338300 18.370300
-31.275700 2.794100
-31.213100 0.049500
-31.150500 0.000100
-31.087900 0.000000
-31.025200 0.000000
-30.962600 0.000000
-30.900000 0.000000
-30.837400 0.000000
-30.774800 0.000000
-30.712200 0.000000
-30.649600 0.000000
-30.587000 0.000000
-30.524400 0.000000
-30.461800 0.000000
-30.399100 0.000000
-30.336500 0.000000
-30.273900 0.000000
-30.211300 0.000000
-30.148700 0.000000
-30.086100 0.000000
-30.023500 0.000000
-29.960900 0.000000
-29.898300 0.000000
-29.835700 0.000000
-29.773000 0.000000
-29.710400 0.000000
-29.647800 0.000000
-29.585200 0.000000
-29.522600 0.000000
-29.460000 0.000000
-29.397400 0.000000
-29.334800 0.000000
-29.272200 0.000000
-29.209600 0.000000
-29.146900 0.000000
-29.084300 0.000000
-29.021700 0.000000
-28.959100 0.000000
-28.896500 0.000000
-28.833900 0.000000
-28.771300 0.000000
-28.708700 0.000000
-28.646100 0.000000
-28.583500 0.000000
-28.520800 0.000000
-28.458200 0.000000
-28.395600 0.000000
-28.333000 0.000000
-28.270400 0.000000
-28.207800 0.000000
-28.145200 0.000000
-28.082600 0.000000
-28.020000 0.000000
-27.957400 0.000000
-27.894700 0.000000
-27.832100 0.000000
-27.769500 0.000000
-27.706900 0.000000
-27.644300 0.000000
-27.581700 0.000000
-27.519100 0.000000
-27.456500 0.000000
-27.393900 0.000000
-27.331300 0.000000
-27.268600 0.000000
-27.206000 0.000000
-27.143400 0.000000
-27.080800 0.000000
-27.018200 0.000000
-26.955600 0.000000
-26.893000 0.000000
-26.830400 0.000000
-26.767800 0.000000
-26.705200 0.000000
-26.642500 0.000000
-26.579900 0.000000
-26.517300 0.000000
-26.454700 0.000000
-26.392100 0.000000
-26.329500 0.000000
-26.266900 0.000000
-26.204300 0.000000
-26.141700 0.000000
-26.079100 0.000000
-26.016500 0.000000
-25.953800 0.000000
-25.891200 0.000000
-25.828600 0.000000
-25.766000 0.000000
-25.703400 0.000000
-25.640800 0.000000
-25.578200 0.000000
-25.515600 0.000000
-25.453000 0.000000
-25.390400 0.000000
-25.327700 0.000000
-25.265100 0.000000
-25.202500 0.000000
-25.139900 0.000000
-25.077300 0.000000
-25.014700 0.000000
-24.952100 0.000000
-24.889500 0.000000
-24.826900 0.000000
-24.764300 0.000000
-24.701600 0.000000
-24.639000 0.000000
-24.576400 0.000000
-24.513800 0.000000
-24.451200 0.000000
-24.388600 0.000000
-24.326000 0.000000
-24.263400 0.000000
-24.200800 0.000000
-24.138200 0.000000
-24.075500 0.000000
-24.012900 0.000000
-23.950300 0.000000
-23.887700 0.000000
-23.825100 0.000000
-23.762500 0.000000
-23.699900 0.000000
-23.637300 0.000000
-23.574700 0.000000
-23.512100 0.000000
-23.449400 0.000000
-23.386800 0.000000
-23.324200 0.000000
-23.261600 0.000000
-23.199000 0.000000
-23.136400 0.000000
-23.073800 0.000000
-23.011200 0.000000
-22.948600 0.000000
-22.886000 0.000000
-22.823300 0.000000
-22.760700 0.000000
-22.698100 0.000000
-22.635500 0.000000
-22.572900 0.000000
-22.510300 0.000000
-22.447700 0.000000
-22.385100 0.000000
-22.322500 0.000000
-22.259900 0.000000
-22.197200 0.000000
-22.134600 0.000000
-22.072000 0.000000
-22.009400 0.000000
-21.946800 0.000000
-21.884200 0.000000
-21.821600 0.000000
-21.759000 0.000000
-21.696400 0.000000
-21.633800 0.000000
-21.571100 0.000000
-21.508500 0.000000
-21.445900 0.000000
-21.383300 0.000000
-21.320700 0.000000
-21.258100 0.000000
-21.195500 0.000000
-21.132900 0.000000
-21.070300 0.000000
-21.007700 0.000000
-20.945000 0.000000
-20.882400 0.000000
-20.819800 0.000000
-20.757200 0.000000
-20.694600 0.000000
-20.632000 0.000000
-20.569400 0.000000
-20.506800 0.000000
-20.444200 0.000000
-20.381600 0.000000
-20.318900 0.000000
-20.256300 0.000000
-20.193700 0.000000
-20.131100 0.000000
-20.068500 0.000000
-20.005900 0.000000
-19.943300 0.000000
-19.880700 0.000000
-19.818100 0.000000
-19.755500 0.000000
-19.692800 0.000000
-19.630200 0.000000
-19.567600 0.000000
-19.505000 0.000000
-19.442400 0.000000
-19.379800 0.000000
-19.317200 0.000000
-19.254600 0.000000
-19.192000 0.000000
-19.129400 0.000000
-19.066700 0.000000
-19.004100 0.000000
-18.941500 0.000000
-18.878900 0.000000
-18.816300 0.000000
-18.753700 0.000000
-18.691100 0.000000
-18.628500 0.000000
-18.565900 0.000000
-18.503300 0.000000
-18.440600 0.000000
-18.378000 0.000000
-18.315400 0.000000
-18.252800 0.000000
-18.190200 0.000000
-18.127600 0.000000
-18.065000 0.000000
-18.002400 0.000000
-17.939800 0.000000
-17.877200 0.000000
-17.814500 0.000000
-17.751900 0.000000
-17.689300 0.000000
-17.626700 0.000000
-17.564100 0.000000
-17.501500 0.000000
-17.438900 0.000000
-17.376300 0.000000
-17.313700 0.000000
-17.251100 0.000000
-17.188400 0.000000
-17.125800 0.000000
-17.063200 0.000000
-17.000600 0.000000
-16.938000 0.000000
-16.875400 0.000000
-16.812800 0.000000
-16.750200 0.000000
-16.687600 0.000000
-16.625000 0.000000
-16.562300 0.000000
-16.499700 0.000000
-16.437100 0.000000
-16.374500 0.000000
-16.311900 0.000000
-16.249300 0.000000
-16.186700 0.000000
-16.124100 0.000000
-16.061500 0.000000
-15.998900 0.000000
-15.936300 0.000000
-15.873600 0.000000
-15.811000 0.000000
-15.748400 0.000000
-15.685800 0.000000
-15.623200 0.000000
-15.560600 0.000000
-15.498000 0.000000
-15.435400 0.000000
-15.372800 0.000000
-15.310200 0.000000
-15.247500 0.000000
-15.184900 0.000000
-15.122300 0.000000
-15.059700 0.000000
-14.997100 0.000000
-14.934500 0.000000
-14.871900 0.000000
-14.809300 0.000000
-14.746700 0.000000
-14.684100 0.000000
-14.621400 0.000000
-14.558800 0.000000
-14.496200 0.000000
-14.433600 0.000000
-14.371000 0.000000
-14.308400 0.000000
-14.245800 0.000000
-14.183200 0.000000
-14.120600 0.000000
-14.058000 0.000000
-13.995300 0.000000
-13.932700 0.000000
-13.870100 0.000000
-13.807500 0.000000
-13.744900 0.000000
-13.682300 0.000000
-13.619700 0.000000
-13.557100 0.000000
-13.494500 0.000000
-13.431900 0.000000
-13.369200 0.000000
-13.306600 0.000000
-13.244000 0.000000
-13.181400 0.000000
-13.118800 0.000000
-13.056200 0.000000
-12.993600 0.000000
-12.931000 0.000000
-12.868400 0.000000
-12.805800 0.000000
-12.743100 0.000000
-12.680500 0.000000
-12.617900 0.000000
-12.555300 0.000000
-12.492700 0.000000
-12.430100 0.000000
-12.367500 0.000000
-12.304900 0.000000
-12.242300 0.000000
-12.179700 0.000000
-12.117000 0.000000
-12.054400 0.000000
-11.991800 0.000000
-11.929200 0.000000
-11.866600 0.000000
-11.804000 0.000000
-11.741400 0.000000
-11.678800 0.000000
-11.616200 0.000000
-11.553600 0.000000
-11.490900 0.000000
-11.428300 0.000000
-11.365700 0.000000
-11.303100 0.000000
-11.240500 0.000000
-11.177900 0.000000
-11.115300 0.000000
-11.052700 0.000000
-10.990100 0.000000
-10.927500 0.000000
-10.864800 0.000000
-10.802200 0.000000
-10.739600 0.000000
-10.677000 0.000000
-10.614400 0.000000
-10.551800 0.000000
-10.489200 0.000000
-10.426600 0.000000
-10.364000 0.000000
-10.301400 0.000000
-10.238700 0.000000
-10.176100 0.000000
-10.113500 0.000000
-10.050900 0.000000
-9.988300 0.000000
-9.925700 0.000000
-9.863100 0.000000
-9.800500 0.000000
-9.737900 0.000000
-9.675300 0.000000
-9.612600 0.000000
-9.550000 0.000000
-9.487400 0.000000
-9.424800 0.000000
-9.362200 0.000000
-9.299600 0.000000
-9.237000 0.000000
-9.174400 0.000000
-9.111800 0.000000
-9.049200 0.000000
-8.986500 0.000000
-8.923900 0.000000
-8.861300 0.000000
-8.798700 0.000000
-8.736100 0.000000
-8.673500 0.000000
-8.610900 0.000000
-8.548300 0.000000
-8.485700 0.000000
-8.423100 0.000000
-8.360400 0.000000
-8.297800 0.000000
-8.235200 0.000000
-8.172600 0.000000
-8.110000 0.000000
-8.047400 0.000000
-7.984800 0.000000
-7.922200 0.000000
-7.859600 0.000000
-7.797000 0.000000
-7.734300 0.000000
-7.671700 0.000000
-7.609100 0.000000
-7.546500 0.000000
-7.483900 0.000000
-7.421300 0.000000
-7.358700 0.000000
-7.296100 0.000000
-7.233500 0.000000
-7.170900 0.000000
-7.108200 0.000000
-7.045600 0.000000
-6.983000 0.000000
-6.920400 0.000000
-6.857800 0.000000
-6.795200 0.000000
-6.732600 0.000000
-6.670000 0.000000
-6.607400 0.000000
-6.544800 0.000000
-6.482100 0.000000
-6.419500 0.000000
-6.356900 0.000000
-6.294300 0.000000
-6.231700 0.000000
-6.169100 0.000000
-6.106500 0.000000
-6.043900 0.000000
-5.981300 0.000000
-5.918700 0.000000
-5.856100 0.000000
-5.793400 0.000000
-5.730800 0.000000
-5.668200 0.000000
-5.605600 0.000000
-5.543000 0.000000
-5.480400 0.000000
-5.417800 0.000000
-5.355200 0.000000
-5.292600 0.000000
-5.230000 0.000000
-5.167300 0.000000
-5.104700 0.000000
-5.042100 0.000000
-4.979500 0.000000
-4.916900 0.000000
-4.854300 0.000000
-4.791700 0.000000
-4.729100 0.000000
-4.666500 0.000000
-4.603900 0.000000
-4.541200 0.000000
-4.478600 0.000000
-4.416000 0.000000
-4.353400 0.000000
-4.290800 0.000000
-4.228200 0.000000
-4.165600 0.000000
-4.103000 0.000000
-4.040400 0.000000
-3.977800 0.000000
-3.915100 0.000000
-3.852500 0.000300
-3.789900 0.007100
-3.727300 0.026900
-3.664700 0.073600
-3.602100 0.120900
-3.539500 0.063700
-3.476900 0.125100
-3.414300 0.155300
-3.351700 0.156700
-3.289000 0.223200
-3.226400 0.122100
-3.163800 0.172400
-3.101200 0.231400
-3.038600 0.141900
-2.976000 0.230300
-2.913400 0.255200
-2.850800 0.327600
-2.788200 0.305800
-2.725600 0.179100
-2.662900 0.226900
-2.600300 0.187100
-2.537700 0.324700
-2.475100 0.333900
-2.412500 0.260300
-2.349900 0.454700
-2.287300 0.313400
-2.224700 0.388300
-2.162100 0.315100
-2.099500 0.325100
-2.036800 0.323000
-1.974200 0.323400
-1.911600 0.494900
-1.849000 0.342900
-1.786400 0.352200
-1.723800 0.325000
-1.661200 0.578700
-1.598600 0.665700
-1.536000 0.500500
-1.473400 0.469100
-1.410700 0.457300
-1.348100 0.408300
-1.285500 0.366400
-1.222900 0.432100
-1.160300 0.656200
-1.097700 0.639100
-1.035100 0.212600
-0.972500 0.259200
-0.909900 0.648900
-0.847300 0.627100
-0.784600 0.595300
-0.722000 0.707200
-0.659400 0.431900
-0.596800 0.407400
-0.534200 0.525700
-0.471600 0.598700
-0.409000 0.526900
-0.346400 0.407100
-0.283800 0.608900
-0.221200 0.496100
-0.158500 0.441100
-0.095900 0.711200
-0.033300 0.789900
0.029300 0.625200
0.091900 0.432900
0.154500 0.765700
0.217100 0.876100
0.279700 0.782600
0.342300 0.622700
0.404900 0.701600
0.467600 0.673700
0.530200 0.700000
0.592800 0.625500
0.655400 0.740300
0.718000 0.673300
0.780600 0.651600
0.843200 1.197200
0.905800 1.222400
0.968400 1.103400
1.031000 1.232100
1.093700 1.393400
1.156300 0.887300
1.218900 0.578000
1.281500 0.641000
1.344100 0.784700
1.406700 1.100500
1.469300 1.103600
1.531900 0.851400
1.594500 0.828400
1.657100 0.601100
1.719800 0.807100
1.782400 0.939600
1.845000 1.008500
1.907600 0.649700
1.970200 0.804600
2.032800 0.774300
2.095400 0.565600
2.158000 0.513300
2.220600 0.658500
2.283200 0.838400
2.345900 0.635800
2.408500 0.578100
2.471100 0.530200
2.533700 0.819900
2.596300 0.609400
2.658900 0.567300
2.721500 0.725900
2.784100 0.705200
2.846700 0.522700
2.909300 0.915600
2.972000 0.823200
3.034600 0.673200
3.097200 0.430700
3.159800 0.318500
3.222400 0.409000
3.285000 0.557500
3.347600 0.821700
3.410200 1.039700
3.472800 0.510700
3.535400 0.704100
3.598100 0.962800
3.660700 1.207300
3.723300 1.400200
3.785900 1.381600
3.848500 1.401200
3.911100 1.057800
3.973700 1.152700
4.036300 1.284200
4.098900 1.446000
4.161500 1.103200
4.224100 1.025000
4.286800 1.070600
4.349400 0.760500
4.412000 0.761500
4.474600 1.054300
4.537200 1.222900
4.599800 1.201400
4.662400 1.426300
4.725000 1.319900
4.787600 1.197900
4.850200 0.974800
4.912900 0.816700
4.975500 0.774400
5.038100 0.698400
5.100700 0.657600
5.163300 0.803900
5.225900 0.626800
5.288500 0.807300
5.351100 1.485700
5.413700 1.175000
5.476300 0.685100
5.539000 0.694400
5.601600 1.254300
5.664200 1.566000
5.726800 1.300500
5.789400 1.743700
5.852000 1.592600
5.914600 1.729600
5.977200 1.496700
6.039800 1.411000
6.102400 2.140500
6.165100 1.642300
6.227700 0.917500
6.290300 0.834300
6.352900 1.239400
6.415500 2.102800
6.478100 1.764700
6.540700 1.367600
6.603300 2.153300
6.665900 1.686400
6.728500 1.634700
6.791200 2.077800
6.853800 2.659100
6.916400 2.694300
6.979000 2.677700
7.041600 3.415400
7.104200 3.936300
7.166800 3.734600
7.229400 3.204900
7.292000 3.243100
7.354600 4.113200
7.417300 4.763600
7.479900 4.345100
7.542500 4.100600
7.605100 4.290200
7.667700 4.486200
7.730300 3.452800
7.792900 3.151200
7.855500 3.518000
7.918100 2.622700
7.980700 1.755600
8.043400 1.335500
8.106000 1.773900
8.168600 1.887300
8.231200 1.635100
8.293800 1.462800
8.356400 1.117400
8.419000 1.165900
8.481600 1.319400
8.544200 1.110900
8.606800 0.985400
8.669500 1.040700
8.732100 1.187200
8.794700 1.120800
8.857300 0.956400
8.919900 0.908100
8.982500 1.230900
9.045100 1.193200
9.107700 1.112000
9.170300 1.223500
9.232900 0.897500
9.295600 0.500300
9.358200 0.343000
9.420800 0.086200
9.483400 0.060900
9.546000 0.157500
9.608600 0.350700
9.671200 0.276800
9.733800 0.195500
9.796400 0.143100
9.859000 0.313700
9.921700 0.456000
9.984300 0.328200
10.046900 0.153100
10.109500 0.217500
10.172100 0.204600
10.234700 0.449000
10.297300 0.771500
10.359900 0.676500
10.422500 0.489900
10.485100 0.678600
10.547800 0.817000
10.610400 0.636300
10.673000 0.739100
10.735600 0.831400
10.798200 1.004100
10.860800 0.843700
10.923400 1.008800
10.986000 0.687200
11.048600 0.790400
11.111200 1.497900
11.173900 1.803600
11.236500 0.720400
11.299100 0.660400
11.361700 1.410300
11.424300 1.610400
11.486900 2.084900
11.549500 2.155200
11.612100 1.730800
11.674700 2.073800
11.737300 2.894300
11.800000 2.708700
11.862600 2.433700
11.925200 2.406600
11.987800 2.738900
12.050400 2.705700
12.113000 1.929400
12.175600 1.321200
12.238200 1.518300
12.300800 1.780000
12.363400 2.163000
12.426100 2.086600
12.488700 2.485000
12.551300 2.088500
12.613900 1.763900
12.676500 1.867300
12.739100 1.963500
12.801700 2.042100
12.864300 1.659300
12.926900 1.611000
12.989500 1.766200
13.052200 1.669300
13.114800 1.579300
13.177400 1.519700
13.240000 2.071800
13.302600 1.892400
13.365200 1.370800
13.427800 1.806600
13.490400 2.545000
13.553000 2.231800
13.615600 1.997900
13.678300 2.125600
13.740900 2.437000
13.803500 2.477800
13.866100 1.984200
13.928700 1.956900
13.991300 1.506500
14.053900 1.483400
14.116500 2.163500
14.179100 1.939500
14.241700 1.295200
14.304400 0.950900
14.367000 1.620400
14.429600 1.928200
14.492200 1.420700
14.554800 1.444300
14.617400 1.803400
14.680000 2.077800
14.742600 1.415300
14.805200 1.416200
14.867800 1.725500
14.930400 1.281700
14.993100 1.361400
15.055700 1.820600
15.118300 1.580800
15.180900 1.134000
15.243500 1.311800
15.306100 1.465100
15.368700 1.474100
15.431300 1.730400
15.493900 2.058800
15.556500 1.681000
15.619200 1.514100
15.681800 1.391100
15.744400 1.428700
15.807000 1.620000
15.869600 1.433400
15.932200 1.516600
15.994800 1.482400
16.057400 1.490300
16.120000 1.779300
16.182600 1.969300
16.245300 1.604200
16.307900 1.165000
16.370500 1.429500
16.433100 1.619900
16.495700 1.150700
16.558300 1.035400
16.620900 1.040600
16.683500 1.296800
16.746100 1.378000
16.808700 1.327100
16.871400 1.368400
16.934000 1.312900
16.996600 1.863100
17.059200 1.947800
17.121800 1.639400
17.184400 1.662900
17.247000 1.631000
17.309600 1.838700
17.372200 1.987000
17.434800 1.781700
17.497500 1.313700
17.560100 1.226300
17.622700 1.058000
17.685300 1.291000
17.747900 1.419500
17.810500 1.273300
17.873100 1.527000
17.935700 1.570400
17.998300 1.161100
18.060900 1.337600
18.123600 1.432400
18.186200 1.890200
18.248800 1.726300
18.311400 1.441800
18.374000 1.673800
18.436600 1.888300
18.499200 1.563700
18.561800 1.568900
18.624400 1.244200
18.687000 1.160800
18.749700 1.548800
18.812300 1.742000
18.874900 1.067400
18.937500 1.194800
19.000100 1.289200
19.062700 0.964600
19.125300 0.914800
19.187900 0.913900
19.250500 1.075200
19.313100 1.785500
19.375800 1.652600
19.438400 1.430300
19.501000 1.058900
19.563600 0.904500
19.626200 1.281000
19.688800 1.329200
19.751400 1.359900
19.814000 1.579900
19.876600 1.897200
19.939200 1.906500
20.001900 1.768000
20.064500 1.815900
20.127100 1.493300
20.189700 1.386600
20.252300 1.739800
20.314900 1.913000
20.377500 1.947200
20.440100 1.531300
20.502700 1.852300
20.565300 1.630400
20.628000 1.393400
20.690600 1.447000
20.753200 1.429300
20.815800 1.654200
20.878400 1.363200
20.941000 1.642800
21.003600 1.857600
21.066200 1.547100
21.128800 1.975200
21.191400 1.982100
21.254100 1.572400
21.316700 1.668500
21.379300 1.603200
21.441900 1.348800
21.504500 1.300500
21.567100 1.435600
21.629700 1.334000
21.692300 1.218200
21.754900 1.163700
21.817500 1.167600
21.880200 1.296100
21.942800 1.704100
22.005400 1.304400
22.068000 1.353500
22.130600 1.703500
22.193200 1.012100
22.255800 0.914900
22.318400 1.252800
22.381000 1.245900
22.443600 1.758000
22.506300 1.872200
22.568900 1.484700
22.631500 1.424300
22.694100 1.404000
22.756700 1.385500
22.819300 1.274300
22.881900 1.126900
22.944500 1.099900
23.007100 1.125700
23.069700 1.271200
23.132400 1.047300
23.195000 1.576800
23.257600 2.059200
23.320200 1.272600
23.382800 1.383700
23.445400 1.211800
23.508000 1.444300
23.570600 1.634700
23.633200 2.212900
23.695800 2.215500
23.758500 1.542400
23.821100 2.019200
23.883700 2.201300
23.946300 2.166000
24.008900 2.563900
24.071500 2.012300
24.134100 1.457700
24.196700 1.535500
24.259300 1.835100
24.321900 1.773500
24.384600 2.199400
24.447200 2.205000
24.509800 1.863800
24.572400 1.361300
24.635000 1.379700
24.697600 1.631700
24.760200 1.392000
24.822800 1.417800
24.885400 1.900600
24.948000 1.455400
25.010600 1.316100
25.073300 2.019900
25.135900 1.940700
25.198500 1.764000
25.261100 1.062200
25.323700 0.889900
25.386300 1.152000
25.448900 1.351300
25.511500 1.486200
25.574100 0.964500
25.636700 0.923800
25.699400 1.274000
25.762000 1.259900
25.824600 1.204500
25.887200 1.166400
25.949800 1.256100
26.012400 0.929300
26.075000 1.066200
26.137600 1.176500
26.200200 1.292400
26.262800 1.706900
26.325500 1.749500
26.388100 1.216900
26.450700 1.241900
26.513300 1.021100
26.575900 1.100000
26.638500 1.358500
26.701100 1.706500
26.763700 2.016400
26.826300 2.223800
26.888900 2.166800
26.951600 1.774200
27.014200 1.227500
27.076800 0.931300
27.139400 1.600200
27.202000 2.053600
27.264600 1.620400
27.327200 1.469600
27.389800 1.754000
27.452400 1.771000
27.515000 1.635200
27.577700 1.266700
27.640300 1.194000
27.702900 1.729500
27.765500 1.844000
27.828100 1.463100
27.890700 1.637400
27.953300 1.605800
28.015900 1.596000
28.078500 2.038900
28.141100 1.914900
28.203800 1.373200
28.266400 1.459400
28.329000 1.801100
28.391600 1.548900
28.454200 0.999800
28.516800 0.960900
28.579400 1.494100
28.642000 1.511100
28.704600 1.497500
28.767200 1.457100
28.829900 1.783800
28.892500 2.018900
28.955100 1.773900
29.017700 2.072200
29.080300 1.812600
29.142900 1.967500
29.205500 2.235600
29.268100 2.155900
29.330700 1.863300
29.393300 2.010800
29.456000 1.564400
29.518600 1.341400
29.581200 1.521700
29.643800 1.335400
29.706400 1.038400
29.769000 1.298300
29.831600 1.374000
29.894200 1.383000
29.956800 1.703600
30.019400 1.761700
30.082100 1.647600
30.144700 1.983900
30.207300 2.104700
30.269900 1.578300
30.332500 1.455600
30.395100 1.519300
30.457700 1.146100
30.520300 1.260000
30.582900 1.950200
30.645500 2.011400
30.708200 2.287900
30.770800 1.881000
30.833400 2.349800
30.896000 2.904100
30.958600 2.129600
31.021200 1.773400
31.083800 1.936700
31.146400 1.982700
31.209000 2.149900
31.271600 2.107400
31.334300 1.916000
31.396900 1.864800
31.459500 2.005100
31.522100 1.883200
31.584700 1.482600
31.647300 1.826700
31.709900 1.901800
31.772500 1.824500
31.835100 2.204400
31.897700 2.292700
31.960400 1.799900
32.023000 1.504600
32.085600 1.579900
32.148200 1.517800
32.210800 1.968400
32.273400 2.446900
32.336000 1.908700
32.398600 1.789700
32.461200 1.782200
32.523800 2.170600
32.586500 2.179200
32.649100 1.989700
32.711700 1.767400
32.774300 1.455300
32.836900 1.774600
32.899500 1.997300
32.962100 1.727200
33.024700 1.377500
33.087300 1.513700
33.149900 1.485800
33.212600 1.433600
33.275200 1.667600
33.337800 1.509000
33.400400 1.657600
33.463000 2.169900
33.525600 2.068100
33.588200 1.949600
33.650800 1.964100
33.713400 1.924500
33.776000 1.407800
33.838700 1.197300
33.901300 1.507300
33.963900 1.745500
34.026500 1.680100
34.089100 1.197400
34.151700 1.285800
34.214300 1.598500
34.276900 1.772000
34.339500 1.544200
34.402100 1.774000
34.464800 2.027500
34.527400 1.966800
34.590000 1.813900
34.652600 1.672800
34.715200 2.180900
34.777800 2.249900
34.840400 1.863000
34.903000 1.103500
34.965600 1.595500
35.028200 1.914500
35.090800 1.762300
35.153500 1.696800
35.216100 1.357900
35.278700 0.984500
35.341300 0.702800
35.403900 0.788500
35.466500 1.368700
35.529100 1.801300
35.591700 1.857400
35.654300 1.088100
35.716900 1.394700
35.779600 1.483800
35.842200 1.392500
35.904800 1.739500
35.967400 1.738100
36.030000 2.178200
36.092600 1.594700
36.155200 1.267200
36.217800 1.330800
36.280400 1.048700
36.343000 1.080500
36.405700 1.432500
36.468300 1.746600
36.530900 2.006700
36.593500 1.718000
36.656100 1.942500
36.718700 1.847500
36.781300 1.667000
36.843900 1.532900
36.906500 1.958300
36.969100 2.040000
37.031800 1.657700
37.094400 1.600200
37.157000 2.130500
37.219600 1.936000
37.282200 1.605600
37.344800 1.585400
37.407400 1.898400
37.470000 2.087900
37.532600 2.098900
37.595200 1.725000
37.657900 1.563200
37.720500 1.369900
37.783100 1.813100
37.845700 1.843100
37.908300 1.842000
37.970900 2.192200
38.033500 1.933000
38.096100 1.558200
38.158700 1.824500
38.221300 2.032400
38.284000 1.672000
38.346600 1.726800
38.409200 1.577100
38.471800 1.551700
38.534400 1.499500
38.597000 1.525900
38.659600 1.835100
38.722200 2.019400
38.784800 1.890200
38.847400 1.767500
38.910100 1.768900
38.972700 1.484800
39.035300 1.911800
39.097900 1.953100
39.160500 1.673500
39.223100 2.113600
39.285700 2.146500
39.348300 1.398000
39.410900 1.742500
39.473500 1.894400
39.536200 2.268600
39.598800 2.014400
39.661400 1.806000
39.724000 1.488700
39.786600 1.736300
39.849200 1.656600
39.911800 1.739600
39.974400 1.821300
40.037000 1.622600
40.099600 1.918900
40.162300 1.941700
40.224900 1.809300
40.287500 1.855900
40.350100 1.798300
40.412700 2.157600
40.475300 1.764800
40.537900 1.510900
40.600500 1.920500
40.663100 1.862100
40.725700 1.777000
40.788400 1.941400
40.851000 1.400200
40.913600 1.751400
40.976200 1.640700
41.038800 1.474200
41.101400 2.181800
41.164000 2.051500
41.226600 2.449900
41.289200 2.812500
41.351800 1.948200
41.414500 2.159400
41.477100 1.791500
41.539700 1.882100
41.602300 2.429300
41.664900 2.413300
41.727500 2.404200
41.790100 2.596800
41.852700 2.097000
41.915300 1.908400
41.977900 2.464700
42.040600 2.539000
42.103200 2.170000
42.165800 2.309400
42.228400 2.473500
42.291000 2.419500
42.353600 1.842400
42.416200 2.253200
42.478800 2.441700
42.541400 2.118200
42.604000 1.832900
42.666700 1.953700
42.729300 1.868300
42.791900 2.064600
42.854500 2.364800
42.917100 2.365800
42.979700 2.309500
43.042300 2.078600
43.104900 2.271900
43.167500 1.832900
43.230100 1.318700
43.292800 1.460000
43.355400 1.603100
43.418000 1.901500
43.480600 1.592600
43.543200 1.438800
43.605800 1.272700
43.668400 1.161400
43.731000 1.694500
43.793600 1.841500
43.856200 2.066700
43.918900 2.287400
43.981500 2.029500
44.044100 2.239100
44.106700 2.157900
44.169300 1.824900
44.231900 0.956700
44.294500 1.431000
44.357100 2.048000
44.419700 1.708300
44.482300 1.716000
44.545000 2.360200
44.607600 2.246800
44.670200 1.717300
44.732800 2.041300
44.795400 1.980400
44.858000 1.896900
44.920600 2.346000
44.983200 2.618600
45.045800 2.331900
45.108400 1.804600
45.171000 1.576900
45.233700 1.545200
45.296300 1.810000
45.358900 1.512800
45.421500 1.685100
45.484100 1.883000
45.546700 1.667400
45.609300 1.414300
45.671900 1.969500
45.734500 3.010800
45.797100 2.949900
45.859800 2.527200
45.922400 2.354200
45.985000 2.164300
46.047600 1.865100
46.110200 1.976300
46.172800 2.333500
46.235400 2.580200
46.298000 2.435400
46.360600 2.155600
46.423200 1.950000
46.485900 1.966600
46.548500 1.355600
46.611100 1.894300
46.673700 2.020600
46.736300 1.935700
46.798900 1.761600
46.861500 1.740600
46.924100 1.667000
46.986700 2.081800
47.049300 2.719000
47.112000 3.043800
47.174600 2.076900
47.237200 1.707500
47.299800 2.163200
47.362400 1.625500
47.425000 1.973300
47.487600 2.722700
47.550200 2.759300
47.612800 1.778600
47.675400 1.654400
47.738100 1.723800
47.800700 2.079300
47.863300 2.565400
47.925900 2.368900
47.988500 1.701400
48.051100 1.865100
48.113700 2.427800
48.176300 2.253200
48.238900 2.111500
48.301500 2.382900
48.364200 2.493900
48.426800 2.216700
48.489400 2.153300
48.552000 2.331400
48.614600 2.458300
48.677200 2.154200
48.739800 2.594600
48.802400 2.962100
48.865000 2.407400
48.927600 1.900000
48.990300 2.054400
49.052900 2.568600
49.115500 2.117900
49.178100 1.898500
49.240700 2.113700
49.303300 2.098600
49.365900 2.395500
49.428500 2.572800
49.491100 2.658300
49.553700 2.718200
49.616400 2.476500
49.679000 2.453300
49.741600 2.538300
49.804200 2.150800
49.866800 2.292100
49.929400 2.009500
49.992000 2.133000
50.054600 2.025700
50.117200 2.284400
50.179800 2.844300
50.242500 3.425700
50.305100 2.728700
50.367700 1.901000
50.430300 2.396900
50.492900 2.897800
50.555500 2.455100
50.618100 2.181400
50.680700 2.114700
50.743300 2.168400
50.805900 2.859100
50.868600 2.217100
50.931200 2.236900
50.993800 2.293500
51.056400 1.976200
51.119000 2.216400
51.181600 1.869700
51.244200 1.452400
51.306800 2.063600
51.369400 2.106100
51.432000 2.108400
51.494700 2.511700
51.557300 2.593600
51.619900 2.922000
51.682500 2.145900
51.745100 2.066200
51.807700 2.386700
51.870300 2.225100
51.932900 2.552400
51.995500 2.362000
52.058100 2.759100
52.120800 3.186000
52.183400 2.755300
52.246000 2.936600
52.308600 2.954200
52.371200 4.083500
52.433800 3.372200
52.496400 2.995800
52.559000 3.665400
52.621600 3.581200
52.684200 3.167900
52.746900 2.743100
52.809500 2.673500
52.872100 2.716900
52.934700 2.607200
52.997300 2.151900
53.059900 1.929400
53.122500 2.148300
53.185100 1.513500
53.247700 1.607000
53.310300 2.052100
53.373000 2.065800
53.435600 1.643800
53.498200 1.427500
53.560800 1.618200
53.623400 1.696000
53.686000 1.660200
53.748600 2.324200
53.811200 2.230500
53.873800 1.764100
53.936400 1.935300
53.999100 1.956600
54.061700 2.283300
54.124300 2.109400
54.186900 1.734800
54.249500 1.883300
54.312100 2.266800
54.374700 2.056800
54.437300 2.521200
54.499900 2.676700
54.562500 2.032700
54.625200 1.374800
54.687800 2.256900
54.750400 2.986300
54.813000 2.631100
54.875600 2.433300
54.938200 2.194600
55.000800 2.250700
55.063400 1.901700
55.126000 2.521100
55.188600 2.589800
55.251200 3.077500
55.313900 2.970300
55.376500 2.587300
55.439100 1.814500
55.501700 1.535400
55.564300 1.876800
55.626900 1.856700
55.689500 2.075900
55.752100 2.167400
55.814700 2.026500
55.877300 2.531900
55.940000 3.141500
56.002600 2.885300
56.065200 3.122600
56.127800 2.506700
56.190400 1.751100
56.253000 1.529800
56.315600 2.269000
56.378200 2.275300
56.440800 2.147300
56.503400 2.476300
56.566100 2.562200
56.628700 2.207000
56.691300 2.993500
56.753900 3.409900
56.816500 2.646600
56.879100 2.468900
56.941700 2.537500
57.004300 2.268600
57.066900 2.328900
57.129500 2.481600
57.192200 2.297100
57.254800 2.306300
57.317400 1.845800
57.380000 2.224800
57.442600 2.145200
57.505200 2.143300
57.567800 3.044600
57.630400 2.176800
57.693000 1.917500
57.755600 2.175000
57.818300 2.408200
57.880900 2.630100
57.943500 2.480600
58.006100 2.409400
58.068700 2.847300
58.131300 2.648700
58.193900 2.116900
58.256500 1.959300
58.319100 1.983200
58.381700 2.519700
58.444400 2.558700
58.507000 2.296600
58.569600 2.468100
58.632200 2.246600
58.694800 1.861200
58.757400 1.361200
58.820000 1.409100
58.882600 1.877300
58.945200 2.312000
59.007800 2.649100
59.070500 2.277200
59.133100 1.902600
59.195700 1.887700
59.258300 2.319400
59.320900 2.601300
59.383500 2.348700
59.446100 2.048200
59.508700 2.341900
59.571300 2.322600
59.633900 2.561100
59.696600 2.103100
59.759200 3.117300
59.821800 2.903100
59.884400 2.123500
59.947000 2.107100
60.009600 2.007200
60.072200 2.358300
60.134800 2.637600
60.197400 2.238100
60.260000 2.111600
60.322700 1.984800
60.385300 1.738500
60.447900 2.428300
60.510500 2.260200
60.573100 1.938300
60.635700 1.575900
60.698300 2.485800
60.760900 2.938700
60.823500 2.990500
60.886100 2.668700
60.948800 1.885000
61.011400 1.979400
61.074000 2.643200
61.136600 2.086600
61.199200 1.731900
61.261800 2.347200
61.324400 2.925200
61.387000 2.246700
61.449600 2.487700
61.512200 2.950200
61.574900 2.650700
61.637500 2.629400
61.700100 2.559500
61.762700 2.560000
61.825300 2.310500
61.887900 2.268900
61.950500 3.213400
62.013100 3.036900
62.075700 2.759900
62.138300 2.816400
62.201000 2.322200
62.263600 2.043100
62.326200 2.045500
62.388800 2.036300
62.451400 2.207600
62.514000 2.354600
62.576600 1.970900
62.639200 2.328000
62.701800 2.218900
62.764400 2.543000
62.827100 2.466300
62.889700 2.500400
62.952300 3.146700
63.014900 2.380400
63.077500 2.692200
63.140100 2.638300
63.202700 3.478900
63.265300 3.519200
63.327900 2.476800
63.390500 1.918800
63.453200 1.879700
63.515800 2.410200
63.578400 2.689300
63.641000 2.001300
63.703600 1.862600
63.766200 2.331300
63.828800 1.863800
63.891400 2.137600
63.954000 2.486700
64.016600 1.882600
64.079300 2.015600
64.141900 2.955900
64.204500 3.448900
64.267100 2.762000
64.329700 2.426600
64.392300 2.513200
64.454900 2.535500
64.517500 2.487900
64.580100 2.883100
64.642700 1.927800
64.705400 1.786600
64.768000 2.366400
64.830600 2.632900
64.893200 2.632200
64.955800 2.071700
65.018400 2.189800
65.081000 2.608800
65.143600 2.737100
65.206200 2.512700
65.268800 2.026400
65.331400 2.049600
65.394100 2.719200
65.456700 2.758000
65.519300 2.553100
65.581900 2.830100
65.644500 3.120200
65.707100 2.218800
65.769700 1.768600
65.832300 1.771900
65.894900 2.334600
65.957500 2.096300
66.020200 2.376100
66.082800 2.964300
66.145400 2.546400
66.208000 2.381500
66.270600 1.964800
66.333200 1.776500
66.395800 2.188500
66.458400 2.871900
66.521000 3.316100
66.583600 2.645000
66.646300 2.273900
66.708900 3.377200
66.771500 3.511700
66.834100 2.668800
66.896700 2.296100
66.959300 2.611200
67.021900 2.354200
67.084500 2.329900
67.147100 2.182300
67.209700 2.102300
67.272400 2.267400
67.335000 1.916200
67.397600 2.208500
67.460200 2.286500
67.522800 2.416900
67.585400 2.269900
67.648000 1.917300
67.710600 2.417300
67.773200 3.254800
67.835800 2.611500
67.898500 1.990800
67.961100 2.468500
68.023700 2.816100
68.086300 2.564400
68.148900 2.019400
68.211500 2.013000
68.274100 2.293100
68.336700 2.454000
68.399300 2.733500
68.461900 2.524600
68.524600 2.785100
68.587200 2.583500
68.649800 2.488400
68.712400 2.828300
68.775000 2.396100
68.837600 1.979300
68.900200 1.986400
68.962800 2.103600
69.025400 1.879700
69.088000 1.826100
69.150700 2.824100
69.213300 2.862900
69.275900 2.377400
69.338500 2.525600
69.401100 2.323500
69.463700 1.902500
69.526300 2.091800
69.588900 1.706500
69.651500 2.093500
69.714100 2.186700
69.776800 1.827600
69.839400 2.777200
69.902000 2.808700
69.964600 2.406400
70.027200 2.741700
70.089800 2.946400
70.152400 1.964800
70.215000 2.263900
70.277600 2.321600
70.340200 1.965600
70.402900 1.917400
70.465500 2.521500
70.528100 2.280200
70.590700 2.166200
70.653300 2.492800
70.715900 2.358900
70.778500 2.444600
70.841100 2.198200
70.903700 2.581900
70.966300 2.796900
71.029000 2.484800
71.091600 3.248900
71.154200 3.025500
71.216800 2.494800
71.279400 2.305900
71.342000 1.884800
71.404600 1.515900
71.467200 2.080700
71.529800 2.124900
71.592400 2.147600
71.655100 2.182300
71.717700 2.250200
71.780300 2.079200
71.842900 1.910500
71.905500 2.923300
71.968100 2.282200
72.030700 1.609900
72.093300 1.813600
72.155900 1.825500
72.218500 1.656200
72.281200 2.026900
72.343800 2.503600
72.406400 2.297100
72.469000 2.634400
72.531600 2.766700
72.594200 2.567800
72.656800 2.127400
72.719400 2.465800
72.782000 2.769700
72.844600 2.652400
72.907300 2.221600
72.969900 1.663400
73.032500 1.865700
73.095100 2.503500
73.157700 2.954400
73.220300 2.570900
73.282900 2.267300
73.345500 2.196300
73.408100 2.172800
73.470700 1.819900
73.533400 1.903000
73.596000 2.277200
73.658600 2.056400
73.721200 1.731400
73.783800 2.364300
73.846400 2.212600
73.909000 1.515600
73.971600 1.738300
74.034200 1.582500
74.096800 1.874100
74.159500 2.381000
74.222100 2.123500
74.284700 2.016100
74.347300 1.946600
74.409900 2.171800
74.472500 2.176500
74.535100 2.344200
74.597700 2.045300
74.660300 1.938100
74.722900 2.453100
74.785600 2.527000
74.848200 2.527700
74.910800 2.089800
74.973400 1.765300
75.036000 2.313900
75.098600 2.035000
75.161200 2.053000
75.223800 2.027000
75.286400 1.928000
75.349000 2.288700
75.411700 2.373500
75.474300 2.528900
75.536900 2.996200
75.599500 2.693500
75.662100 2.385700
75.724700 2.420900
75.787300 2.583300
75.849900 1.892700
75.912500 1.938900
75.975100 2.516600
76.037700 2.087400
76.100400 2.019000
76.163000 2.611900
76.225600 2.627200
76.288200 1.957800
76.350800 2.250900
76.413400 2.392700
76.476000 2.410400
76.538600 2.754200
76.601200 2.765800
76.663800 2.712000
76.726500 2.502400
76.789100 2.445600
76.851700 2.534400
76.914300 2.146400
76.976900 1.912100
77.039500 1.981500
77.102100 2.280600
77.164700 2.010000
77.227300 2.092500
77.289900 2.656100
77.352600 2.333600
77.415200 2.364200
77.477800 2.580900
77.540400 2.499200
77.603000 2.335800
77.665600 1.975600
77.728200 2.097500
77.790800 2.910000
77.853400 2.838400
77.916000 2.603200
77.978700 2.162500
78.041300 1.944000
78.103900 2.063300
78.166500 2.450200
78.229100 2.360600
78.291700 2.022300
78.354300 2.797000
78.416900 2.653900
78.479500 3.045000
78.542100 2.936900
78.604800 1.723200
78.667400 1.722900
78.730000 2.104300
78.792600 2.139400
78.855200 2.022900
78.917800 1.380200
78.980400 1.956000
79.043000 2.098700
79.105600 2.117700
79.168200 2.420300
79.230900 2.405300
79.293500 2.016800
79.356100 2.114100
79.418700 2.018500
79.481300 1.897000
79.543900 1.695900
79.606500 1.959200
79.669100 1.996500
79.731700 1.715700
79.794300 1.572300
79.857000 1.523100
79.919600 1.790300
79.982200 1.678400
80.044800 1.445400
80.107400 1.471500
80.170000 1.488400
80.232600 1.514300
80.295200 1.323300
80.357800 1.098200
80.420400 0.904100
80.483100 0.929000
80.545700 0.833100
80.608300 0.654900
80.670900 0.714200
80.733500 0.637600
80.796100 0.776100
80.858700 0.799800
80.921300 0.655900
80.983900 0.380500
81.046500 0.337700
81.109200 0.532600
81.171800 0.506800
81.234400 0.346000
81.297000 0.222000
81.359600 0.284800
81.422200 0.311100
81.484800 0.262900
81.547400 0.184800
81.610000 0.141800
81.672600 0.106200
81.735300 0.125900
81.797900 0.195600
81.860500 0.114400
81.923100 0.035500
81.985700 0.005000
82.048300 0.003000
82.110900 0.014200
82.173500 0.006500
82.236100 0.017800
82.298700 0.051500
82.361400 0.022100
82.424000 0.001500
82.486600 0.000000
82.549200 0.000000
82.611800 0.000000
82.674400 0.000000
82.737000 0.000000
82.799600 0.000000
82.862200 0.000000
82.924800 0.000000
82.987500 0.000000
83.050100 0.000000
83.112700 0.000000
83.175300 0.000000
83.237900 0.000000
83.300500 0.000000
83.363100 0.000000
83.425700 0.000000
83.488300 0.000000
83.550900 0.000000
83.613600 0.000000
83.676200 0.000000
83.738800 0.000000
83.801400 0.000000
83.864000 0.000000
83.926600 0.000000
83.989200 0.000000
84.051800 0.000000
84.114400 0.000000
84.177000 0.000000
84.239700 0.000000
84.302300 0.000000
84.364900 0.000000
84.427500 0.000000
84.490100 0.000000
84.552700 0.000000
84.615300 0.000000
84.677900 0.000000
84.740500 0.000000
84.803100 0.000000
84.865800 0.000000
84.928400 0.000000
84.991000 0.000000
85.053600 0.000000
85.116200 0.000000
85.178800 0.000000
85.241400 0.000000
85.304000 0.000000
85.366600 0.000000
85.429200 0.000000
85.491900 0.000000
85.554500 0.000000
85.617100 0.000000
85.679700 0.000000
85.742300 0.000000
85.804900 0.000000
85.867500 0.000000
85.930100 0.000000
85.992700 0.000000
86.055300 0.000000
86.117900 0.000000
86.180600 0.000000
86.243200 0.000000
86.305800 0.000000
86.368400 0.000000
86.431000 0.000000
86.493600 0.000000
86.556200 0.000000
86.618800 0.000000
86.681400 0.000000
86.744000 0.000000
86.806700 0.000000
86.869300 0.000000
86.931900 0.000000
86.994500 0.000000
87.057100 0.000000
87.119700 0.000000
87.182300 0.000000
87.244900 0.000000
87.307500 0.000000
87.370100 0.000000
87.432800 0.000000
87.495400 0.000000
87.558000 0.000000
87.620600 0.000000
87.683200 0.000000
87.745800 0.000000
87.808400 0.000000
87.871000 0.000000
87.933600 0.000000
87.996200 0.000000
e
