set title 'mp-624889 - Density of States'
set xlabel 'Energy (eV)'
set ylabel 'DOS (states/eV)'
set grid
set xrange [-10:10]
set yrange [0:8.838]
set xzeroaxis lt -1
set terminal png size 800,600
set output 'mp-624889_dos_gnuplot.png'
plot '-' using 1:2 with lines title 'DOS'
-17.426500 0.000000
-17.400500 0.000000
-17.374500 0.000000
-17.348400 0.000000
-17.322400 0.000000
-17.296400 0.000000
-17.270400 0.000000
-17.244400 0.000000
-17.218400 0.000000
-17.192400 0.000000
-17.166400 0.000000
-17.140300 0.000000
-17.114300 0.000000
-17.088300 0.000000
-17.062300 0.000000
-17.036300 0.000000
-17.010300 0.000000
-16.984300 0.000000
-16.958300 0.000000
-16.932200 0.000000
-16.906200 0.000000
-16.880200 0.000000
-16.854200 0.000000
-16.828200 0.000000
-16.802200 0.000000
-16.776200 0.000000
-16.750200 0.000000
-16.724100 0.000000
-16.698100 0.000000
-16.672100 0.000000
-16.646100 0.000000
-16.620100 0.000000
-16.594100 0.000000
-16.568100 0.000000
-16.542000 0.000000
-16.516000 0.000000
-16.490000 0.000000
-16.464000 0.000000
-16.438000 0.000000
-16.412000 0.000000
-16.386000 0.000000
-16.360000 0.000000
-16.333900 0.000000
-16.307900 0.000000
-16.281900 0.000000
-16.255900 0.000000
-16.229900 0.000000
-16.203900 0.000000
-16.177900 0.000000
-16.151900 0.000000
-16.125800 0.000000
-16.099800 0.000000
-16.073800 0.000000
-16.047800 0.000000
-16.021800 0.000000
-15.995800 0.000000
-15.969800 0.000000
-15.943800 0.000000
-15.917700 0.000000
-15.891700 0.000000
-15.865700 0.000000
-15.839700 0.000000
-15.813700 0.000000
-15.787700 0.000000
-15.761700 0.000000
-15.735700 0.000000
-15.709600 0.000000
-15.683600 0.000000
-15.657600 0.000000
-15.631600 0.000000
-15.605600 0.000000
-15.579600 0.000000
-15.553600 0.000000
-15.527500 0.000000
-15.501500 0.000000
-15.475500 0.000000
-15.449500 0.000000
-15.423500 0.000000
-15.397500 0.000000
-15.371500 0.000000
-15.345500 0.000000
-15.319400 0.000000
-15.293400 0.000000
-15.267400 0.000000
-15.241400 0.000000
-15.215400 0.000000
-15.189400 0.000000
-15.163400 0.000000
-15.137400 0.000000
-15.111300 0.000000
-15.085300 0.000000
-15.059300 0.001900
-15.033300 0.186900
-15.007300 0.480300
-14.981300 0.701900
-14.955300 0.786200
-14.929300 0.730000
-14.903200 0.762700
-14.877200 0.808600
-14.851200 0.800300
-14.825200 0.770900
-14.799200 0.741400
-14.773200 0.748300
-14.747200 0.762600
-14.721200 0.777200
-14.695100 0.795400
-14.669100 0.806900
-14.643100 0.798500
-14.617100 0.781100
-14.591100 0.765600
-14.565100 0.765600
-14.539100 0.767800
-14.513100 0.770400
-14.487000 0.776300
-14.461000 0.785100
-14.435000 0.796400
-14.409000 0.807800
-14.383000 0.813700
-14.357000 0.806600
-14.331000 0.794000
-14.304900 0.783900
-14.278900 0.782900
-14.252900 0.783500
-14.226900 0.785000
-14.200900 0.788100
-14.174900 0.792800
-14.148900 0.798500
-14.122900 0.804300
-14.096800 0.810000
-14.070800 0.815800
-14.044800 0.821500
-14.018800 0.823100
-13.992800 0.818000
-13.966800 0.811000
-13.940800 0.807700
-13.914800 0.808200
-13.888700 0.808800
-13.862700 0.809700
-13.836700 0.811600
-13.810700 0.814600
-13.784700 0.817900
-13.758700 0.821200
-13.732700 0.824800
-13.706700 0.828900
-13.680600 0.833500
-13.654600 0.838500
-13.628600 0.843700
-13.602600 0.848000
-13.576600 0.846900
-13.550600 0.843200
-13.524600 0.841400
-13.498600 0.842500
-13.472500 0.843500
-13.446500 0.844700
-13.420500 0.846500
-13.394500 0.849300
-13.368500 0.853200
-13.342500 0.857600
-13.316500 0.861600
-13.290400 0.865600
-13.264400 0.869500
-13.238400 0.873600
-13.212400 0.877800
-13.186400 0.882300
-13.160400 0.886800
-13.134400 0.891100
-13.108400 0.891000
-13.082300 0.892800
-13.056300 0.896700
-13.030300 0.900500
-13.004300 0.905200
-12.978300 0.910200
-12.952300 0.915200
-12.926300 0.919700
-12.900300 0.923700
-12.874200 0.927700
-12.848200 0.931700
-12.822200 0.935700
-12.796200 0.939700
-12.770200 0.944400
-12.744200 0.949400
-12.718200 0.952900
-12.692200 0.956400
-12.666100 0.960700
-12.640100 0.967500
-12.614100 0.988400
-12.588100 1.008900
-12.562100 1.021000
-12.536100 1.033100
-12.510100 1.045600
-12.484100 1.058000
-12.458000 1.067300
-12.432000 1.075500
-12.406000 1.083800
-12.380000 1.092000
-12.354000 1.100300
-12.328000 1.108500
-12.302000 1.117100
-12.275900 1.128200
-12.249900 1.142200
-12.223900 1.368900
-12.197900 1.643800
-12.171900 1.855200
-12.145900 2.052700
-12.119900 2.247000
-12.093900 2.468400
-12.067800 2.714500
-12.041800 3.455300
-12.015800 3.658100
-11.989800 3.494400
-11.963800 3.489600
-11.937800 3.518000
-11.911800 3.426600
-11.885800 2.767900
-11.859700 2.346100
-11.833700 2.099200
-11.807700 1.900600
-11.781700 1.841200
-11.755700 1.851000
-11.729700 1.827300
-11.703700 1.698900
-11.677700 1.551000
-11.651600 1.716000
-11.625600 1.321000
-11.599600 1.066500
-11.573600 0.874300
-11.547600 0.740900
-11.521600 0.613900
-11.495600 0.486900
-11.469600 0.386600
-11.443500 0.237800
-11.417500 0.120600
-11.391500 0.065700
-11.365500 0.032400
-11.339500 0.010600
-11.313500 0.000100
-11.287500 0.000000
-11.261500 0.000000
-11.235400 0.000000
-11.209400 0.000000
-11.183400 0.000000
-11.157400 0.000000
-11.131400 0.000000
-11.105400 0.018700
-11.079400 0.079800
-11.053300 0.257500
-11.027300 0.308200
-11.001300 0.340700
-10.975300 0.379300
-10.949300 0.420300
-10.923300 0.481300
-10.897300 0.553300
-10.871300 0.626800
-10.845200 0.690600
-10.819200 0.747800
-10.793200 0.802000
-10.767200 0.854300
-10.741200 0.907300
-10.715200 0.934500
-10.689200 0.982200
-10.663200 1.019400
-10.637100 1.117000
-10.611100 1.223300
-10.585100 1.009300
-10.559100 1.049900
-10.533100 1.088300
-10.507100 1.124900
-10.481100 1.164700
-10.455100 1.205400
-10.429000 1.250400
-10.403000 1.409700
-10.377000 1.458800
-10.351000 1.513500
-10.325000 1.571000
-10.299000 1.640800
-10.273000 1.716700
-10.247000 1.806600
-10.220900 1.906500
-10.194900 2.072300
-10.168900 2.361700
-10.142900 2.638400
-10.116900 2.783500
-10.090900 2.824200
-10.064900 2.727100
-10.038800 2.508200
-10.012800 2.231200
-9.986800 1.978700
-9.960800 1.898300
-9.934800 1.826300
-9.908800 1.757300
-9.882800 1.683200
-9.856800 1.611200
-9.830700 1.548700
-9.804700 1.489400
-9.778700 1.429100
-9.752700 1.360300
-9.726700 1.286800
-9.700700 1.208400
-9.674700 1.133800
-9.648700 1.093000
-9.622600 1.067300
-9.596600 1.107100
-9.570600 1.149700
-9.544600 1.187200
-9.518600 1.255100
-9.492600 1.312500
-9.466600 1.339200
-9.440600 1.306800
-9.414500 1.274600
-9.388500 1.243400
-9.362500 1.213500
-9.336500 1.184800
-9.310500 1.156500
-9.284500 1.128400
-9.258500 1.100700
-9.232500 1.080700
-9.206400 1.080000
-9.180400 1.082500
-9.154400 1.086300
-9.128400 1.091400
-9.102400 0.983400
-9.076400 0.960600
-9.050400 0.939500
-9.024300 0.920700
-8.998300 0.903800
-8.972300 0.887700
-8.946300 0.877900
-8.920300 0.868800
-8.894300 0.859600
-8.868300 0.850500
-8.842300 0.841400
-8.816200 0.832200
-8.790200 0.822500
-8.764200 0.812300
-8.738200 1.301700
-8.712200 0.777400
-8.686200 0.752700
-8.660200 0.727300
-8.634200 0.701700
-8.608100 0.675800
-8.582100 0.649900
-8.556100 0.624300
-8.530100 0.599200
-8.504100 0.588300
-8.478100 0.581100
-8.452100 0.575000
-8.426100 0.569400
-8.400000 0.564300
-8.374000 0.560300
-8.348000 0.556800
-8.322000 0.553300
-8.296000 0.549800
-8.270000 0.547400
-8.244000 0.549500
-8.218000 0.552700
-8.191900 0.576400
-8.165900 0.712300
-8.139900 1.011800
-8.113900 1.010800
-8.087900 1.219000
-8.061900 1.406300
-8.035900 1.438800
-8.009900 1.617200
-7.983800 1.698600
-7.957800 1.746700
-7.931800 1.705100
-7.905800 1.691100
-7.879800 1.672700
-7.853800 1.696300
-7.827800 1.549800
-7.801700 1.444400
-7.775700 1.371000
-7.749700 1.329100
-7.723700 1.297500
-7.697700 1.270100
-7.671700 1.481000
-7.645700 1.373900
-7.619700 1.300300
-7.593600 1.290900
-7.567600 1.282500
-7.541600 1.276000
-7.515600 1.255300
-7.489600 1.182100
-7.463600 1.146600
-7.437600 1.132400
-7.411600 1.118800
-7.385500 1.113300
-7.359500 1.190400
-7.333500 1.315100
-7.307500 1.775600
-7.281500 1.236500
-7.255500 1.083000
-7.229500 1.106400
-7.203500 1.116800
-7.177400 1.136900
-7.151400 1.181300
-7.125400 1.248500
-7.099400 1.327200
-7.073400 1.539200
-7.047400 1.734400
-7.021400 1.683000
-6.995400 1.677900
-6.969300 1.793200
-6.943300 2.012500
-6.917300 2.036200
-6.891300 1.926700
-6.865300 1.890800
-6.839300 1.857400
-6.813300 1.834300
-6.787200 1.796500
-6.761200 1.792200
-6.735200 1.747800
-6.709200 1.713800
-6.683200 1.705000
-6.657200 1.688300
-6.631200 1.666800
-6.605200 1.633300
-6.579100 1.583300
-6.553100 1.502100
-6.527100 1.496500
-6.501100 1.484700
-6.475100 1.531100
-6.449100 1.451400
-6.423100 1.395100
-6.397100 1.364700
-6.371000 1.365200
-6.345000 1.374100
-6.319000 1.391600
-6.293000 1.415100
-6.267000 1.442700
-6.241000 1.477400
-6.215000 1.512700
-6.189000 1.526500
-6.162900 1.531400
-6.136900 1.534200
-6.110900 1.524500
-6.084900 1.502700
-6.058900 1.428700
-6.032900 1.336500
-6.006900 1.317000
-5.980900 1.325200
-5.954800 1.339100
-5.928800 1.355900
-5.902800 1.370900
-5.876800 1.385900
-5.850800 1.402000
-5.824800 1.418700
-5.798800 1.409400
-5.772700 1.417200
-5.746700 1.407500
-5.720700 1.338000
-5.694700 1.185500
-5.668700 1.081900
-5.642700 1.146900
-5.616700 1.512200
-5.590700 1.792400
-5.564600 1.801600
-5.538600 1.759800
-5.512600 1.718700
-5.486600 1.783200
-5.460600 1.763000
-5.434600 1.738700
-5.408600 1.861600
-5.382600 1.924100
-5.356500 1.900000
-5.330500 1.885900
-5.304500 1.950200
-5.278500 2.145800
-5.252500 2.141700
-5.226500 1.992200
-5.200500 1.866700
-5.174500 1.871000
-5.148400 1.721200
-5.122400 1.298000
-5.096400 1.070400
-5.070400 0.805300
-5.044400 0.451000
-5.018400 0.361900
-4.992400 0.375800
-4.966400 0.465600
-4.940300 0.560900
-4.914300 0.705500
-4.888300 0.902200
-4.862300 0.936300
-4.836300 0.876600
-4.810300 0.809000
-4.784300 0.740500
-4.758300 0.671800
-4.732200 0.607100
-4.706200 0.571100
-4.680200 0.552000
-4.654200 0.555900
-4.628200 0.577300
-4.602200 0.606600
-4.576200 0.640400
-4.550100 0.678000
-4.524100 0.753300
-4.498100 0.825900
-4.472100 0.924100
-4.446100 1.062700
-4.420100 1.254300
-4.394100 1.512600
-4.368100 1.662000
-4.342000 1.679600
-4.316000 1.994700
-4.290000 2.410200
-4.264000 2.628200
-4.238000 2.524300
-4.212000 2.302800
-4.186000 2.208000
-4.160000 2.174500
-4.133900 2.347400
-4.107900 2.812400
-4.081900 2.990700
-4.055900 3.323700
-4.029900 3.835400
-4.003900 4.453500
-3.977900 4.250100
-3.951900 3.886700
-3.925800 3.951100
-3.899800 3.985800
-3.873800 4.281800
-3.847800 3.868500
-3.821800 3.935000
-3.795800 3.857400
-3.769800 4.029600
-3.743800 3.479400
-3.717700 3.128500
-3.691700 2.853300
-3.665700 2.652100
-3.639700 2.471900
-3.613700 2.496800
-3.587700 2.215500
-3.561700 1.989300
-3.535600 1.837000
-3.509600 1.751700
-3.483600 1.636400
-3.457600 1.522200
-3.431600 1.384300
-3.405600 1.302700
-3.379600 1.268500
-3.353600 1.204000
-3.327500 1.223500
-3.301500 1.201600
-3.275500 1.218800
-3.249500 1.255700
-3.223500 1.295700
-3.197500 1.374600
-3.171500 1.505000
-3.145500 1.373900
-3.119400 1.326500
-3.093400 1.306000
-3.067400 1.338700
-3.041400 1.381300
-3.015400 1.435300
-2.989400 1.342700
-2.963400 1.302700
-2.937400 1.386000
-2.911300 1.631700
-2.885300 1.732700
-2.859300 1.502100
-2.833300 1.530500
-2.807300 1.403900
-2.781300 1.423700
-2.755300 1.395800
-2.729300 1.157100
-2.703200 1.120400
-2.677200 1.187600
-2.651200 1.298800
-2.625200 1.444500
-2.599200 1.385400
-2.573200 1.288000
-2.547200 1.319900
-2.521100 1.478400
-2.495100 1.698800
-2.469100 1.807600
-2.443100 1.821000
-2.417100 1.956200
-2.391100 2.117900
-2.365100 2.450800
-2.339100 2.821800
-2.313000 2.944300
-2.287000 3.030100
-2.261000 3.112800
-2.235000 3.247300
-2.209000 3.475600
-2.183000 3.509400
-2.157000 3.287700
-2.131000 3.390900
-2.104900 3.344000
-2.078900 3.486200
-2.052900 3.630400
-2.026900 3.739300
-2.000900 3.698300
-1.974900 3.828700
-1.948900 3.975200
-1.922900 4.393800
-1.896800 4.326200
-1.870800 4.213900
-1.844800 3.900300
-1.818800 3.388000
-1.792800 2.933300
-1.766800 2.649200
-1.740800 2.465100
-1.714800 2.362800
-1.688700 2.501400
-1.662700 2.982400
-1.636700 3.363700
-1.610700 3.680000
-1.584700 3.138300
-1.558700 2.987500
-1.532700 2.825000
-1.506700 2.734000
-1.480600 2.620900
-1.454600 2.549100
-1.428600 2.544700
-1.402600 2.594600
-1.376600 2.646600
-1.350600 2.448200
-1.324600 2.411600
-1.298500 2.099200
-1.272500 2.011200
-1.246500 1.920100
-1.220500 1.865400
-1.194500 2.054500
-1.168500 2.385500
-1.142500 2.721400
-1.116500 3.364100
-1.090400 4.287500
-1.064400 5.315800
-1.038400 6.227400
-1.012400 6.494400
-0.986400 7.123100
-0.960400 8.034300
-0.934400 6.077100
-0.908400 3.605600
-0.882300 3.464100
-0.856300 3.455600
-0.830300 4.160700
-0.804300 5.018000
-0.778300 6.426500
-0.752300 4.171400
-0.726300 2.510900
-0.700300 2.066700
-0.674200 2.016200
-0.648200 2.086200
-0.622200 2.094500
-0.596200 2.197700
-0.570200 2.122000
-0.544200 2.095900
-0.518200 2.073500
-0.492200 2.101900
-0.466100 1.921100
-0.440100 1.721800
-0.414100 1.671700
-0.388100 1.631300
-0.362100 1.651500
-0.336100 1.553100
-0.310100 1.619800
-0.284000 1.696600
-0.258000 1.667500
-0.232000 1.714200
-0.206000 1.842400
-0.180000 1.901600
-0.154000 1.876100
-0.128000 1.615200
-0.102000 1.504300
-0.075900 1.458600
-0.049900 1.447200
-0.023900 1.469800
0.002100 1.532000
0.028100 1.591900
0.054100 1.344200
0.080100 1.187700
0.106100 1.089200
0.132200 1.043800
0.158200 1.048600
0.184200 1.063400
0.210200 1.111100
0.236200 1.168200
0.262200 1.140300
0.288200 1.227800
0.314200 1.293800
0.340300 1.445100
0.366300 1.176300
0.392300 1.121900
0.418300 1.167400
0.444300 1.281600
0.470300 1.185600
0.496300 1.304400
0.522300 1.468200
0.548400 1.289700
0.574400 1.314500
0.600400 1.334200
0.626400 1.348100
0.652400 1.354800
0.678400 1.360500
0.704400 1.362700
0.730500 1.363500
0.756500 1.367400
0.782500 1.316300
0.808500 1.283300
0.834500 1.266100
0.860500 1.265000
0.886500 1.265300
0.912500 1.270500
0.938600 1.318600
0.964600 1.508800
0.990600 1.418200
1.016600 1.416000
1.042600 1.397100
1.068600 1.354300
1.094600 1.356800
1.120600 1.299900
1.146700 1.266100
1.172700 1.238200
1.198700 1.210800
1.224700 1.218500
1.250700 1.231100
1.276700 1.298300
1.302700 1.400800
1.328700 1.487100
1.354800 1.544000
1.380800 1.490800
1.406800 1.390300
1.432800 1.306100
1.458800 1.417600
1.484800 1.307200
1.510800 1.304200
1.536800 1.289100
1.562900 1.287300
1.588900 1.273200
1.614900 1.297000
1.640900 1.343900
1.666900 1.406800
1.692900 1.483000
1.718900 1.586900
1.744900 1.790000
1.771000 1.802800
1.797000 1.798100
1.823000 1.779500
1.849000 1.786300
1.875000 1.719100
1.901000 1.718000
1.927000 1.681900
1.953100 1.628500
1.979100 1.554000
2.005100 1.499700
2.031100 1.441100
2.057100 1.432700
2.083100 1.405400
2.109100 1.391000
2.135100 1.405000
2.161200 1.440300
2.187200 1.353100
2.213200 1.351000
2.239200 1.363200
2.265200 1.419200
2.291200 1.497100
2.317200 1.561300
2.343200 1.522500
2.369300 1.481100
2.395300 1.477500
2.421300 1.494800
2.447300 1.524200
2.473300 1.652900
2.499300 1.741200
2.525300 1.779100
2.551300 1.880100
2.577400 1.900700
2.603400 1.880700
2.629400 1.858100
2.655400 1.997500
2.681400 1.861700
2.707400 1.486200
2.733400 1.218300
2.759400 1.076000
2.785500 0.964500
2.811500 0.866800
2.837500 0.779600
2.863500 0.709800
2.889500 0.648600
2.915500 0.703600
2.941500 0.746500
2.967600 0.820600
2.993600 0.904900
3.019600 0.979400
3.045600 1.032900
3.071600 1.032100
3.097600 1.173700
3.123600 1.273000
3.149600 1.322300
3.175700 1.305500
3.201700 1.293500
3.227700 1.483300
3.253700 1.459600
3.279700 1.285200
3.305700 1.272500
3.331700 1.291800
3.357700 1.331900
3.383800 1.345200
3.409800 1.397000
3.435800 1.477100
3.461800 1.593400
3.487800 2.054300
3.513800 1.974000
3.539800 1.965400
3.565800 1.572700
3.591900 1.355300
3.617900 1.243400
3.643900 1.229700
3.669900 1.212700
3.695900 1.196100
3.721900 1.185900
3.747900 1.175200
3.773900 1.232900
3.800000 1.389500
3.826000 1.548300
3.852000 1.482600
3.878000 1.421400
3.904000 1.372500
3.930000 1.355900
3.956000 1.495700
3.982100 1.632700
4.008100 1.728900
4.034100 1.938500
4.060100 2.096600
4.086100 2.201800
4.112100 2.274000
4.138100 2.361200
4.164100 2.435400
4.190200 2.488000
4.216200 2.528200
4.242200 2.567500
4.268200 2.582600
4.294200 3.126300
4.320200 3.500800
4.346200 3.148700
4.372200 2.913900
4.398300 2.648000
4.424300 2.532900
4.450300 2.649200
4.476300 2.530600
4.502300 2.394500
4.528300 2.344300
4.554300 1.998800
4.580300 1.941400
4.606400 1.984500
4.632400 2.046400
4.658400 1.928000
4.684400 1.980900
4.710400 2.064200
4.736400 2.061000
4.762400 2.048400
4.788400 2.094400
4.814500 1.985100
4.840500 1.954100
4.866500 1.986600
4.892500 2.065400
4.918500 2.248900
4.944500 2.360500
4.970500 2.482100
4.996500 2.504400
5.022600 2.390300
5.048600 2.306300
5.074600 2.127800
5.100600 1.854600
5.126600 1.813500
5.152600 1.779800
5.178600 1.749800
5.204700 1.715900
5.230700 1.679300
5.256700 1.665100
5.282700 1.655600
5.308700 1.651800
5.334700 1.651900
5.360700 1.800200
5.386700 1.956800
5.412800 1.977200
5.438800 1.981600
5.464800 2.033700
5.490800 2.200000
5.516800 1.947500
5.542800 1.940400
5.568800 1.979200
5.594800 2.084900
5.620900 2.184600
5.646900 2.351200
5.672900 2.347600
5.698900 2.350300
5.724900 2.504200
5.750900 2.536700
5.776900 2.581100
5.802900 2.548500
5.829000 2.598600
5.855000 2.679200
5.881000 2.663800
5.907000 2.651900
5.933000 2.632300
5.959000 2.696000
5.985000 2.746100
6.011000 2.938000
6.037100 3.285000
6.063100 3.523700
6.089100 3.671800
6.115100 3.355600
6.141100 3.149700
6.167100 2.870000
6.193100 2.797900
6.219200 2.759100
6.245200 2.686800
6.271200 2.887000
6.297200 3.025700
6.323200 3.121500
6.349200 3.247200
6.375200 3.287300
6.401200 3.357000
6.427300 3.670500
6.453300 3.664300
6.479300 3.633000
6.505300 3.342300
6.531300 2.955000
6.557300 2.715600
6.583300 2.579200
6.609300 2.335500
6.635400 2.124900
6.661400 2.000600
6.687400 1.906400
6.713400 1.852800
6.739400 1.819700
6.765400 1.701300
6.791400 1.642200
6.817400 1.506500
6.843500 1.352700
6.869500 1.282900
6.895500 1.255400
6.921500 1.244900
6.947500 1.244900
6.973500 1.252600
6.999500 1.272100
7.025500 1.315500
7.051600 1.412000
7.077600 1.529400
7.103600 1.578100
7.129600 1.576200
7.155600 1.597600
7.181600 1.666900
7.207600 1.787000
7.233700 1.848600
7.259700 1.721800
7.285700 1.593600
7.311700 1.418100
7.337700 1.287400
7.363700 1.239100
7.389700 1.250700
7.415700 1.265200
7.441800 1.282100
7.467800 1.309600
7.493800 1.339800
7.519800 1.380800
7.545800 1.534700
7.571800 1.652900
7.597800 1.753100
7.623800 1.826300
7.649900 1.914500
7.675900 1.977100
7.701900 2.009700
7.727900 2.034700
7.753900 2.087100
7.779900 2.145400
7.805900 2.202300
7.831900 2.270100
7.858000 2.339300
7.884000 2.368700
7.910000 2.433500
7.936000 2.519600
7.962000 3.074000
7.988000 3.122900
8.014000 2.669600
8.040000 2.370800
8.066100 2.202900
8.092100 2.073400
8.118100 1.966900
8.144100 1.887400
8.170100 1.811000
8.196100 1.740800
8.222100 1.672400
8.248100 1.608900
8.274200 1.556500
8.300200 1.508300
8.326200 1.464800
8.352200 1.423300
8.378200 1.375600
8.404200 1.331900
8.430200 1.293300
8.456300 1.257100
8.482300 1.224900
8.508300 1.199800
8.534300 1.183500
8.560300 1.195000
8.586300 1.211100
8.612300 1.226900
8.638300 1.242800
8.664400 1.255500
8.690400 1.249200
8.716400 1.175300
8.742400 1.070000
8.768400 1.014500
8.794400 0.981900
8.820400 0.948400
8.846400 0.918500
8.872500 0.888600
8.898500 0.856500
8.924500 0.825800
8.950500 0.807100
8.976500 0.788700
9.002500 0.770600
9.028500 0.753500
9.054500 0.742100
9.080600 0.729700
9.106600 0.721100
9.132600 0.709300
9.158600 0.698900
9.184600 0.686700
9.210600 0.673400
9.236600 0.660100
9.262600 0.648000
9.288700 0.632200
9.314700 0.607400
9.340700 0.584900
9.366700 0.564400
9.392700 0.548200
9.418700 0.539700
9.444700 0.550800
9.470800 0.551500
9.496800 0.549900
9.522800 0.546300
9.548800 0.541400
9.574800 0.535500
9.600800 0.529300
9.626800 0.540200
9.652800 0.545300
9.678900 0.551600
9.704900 0.622000
9.730900 0.658900
9.756900 0.675400
9.782900 0.471300
9.808900 0.336700
9.834900 0.281500
9.860900 0.232200
9.887000 0.185900
9.913000 0.144700
9.939000 0.162500
9.965000 0.040200
9.991000 0.000000
10.017000 0.000000
10.043000 0.000000
10.069000 0.000000
10.095100 0.000000
10.121100 0.000000
10.147100 0.000000
10.173100 0.000000
10.199100 0.000000
10.225100 0.000000
10.251100 0.000000
10.277100 0.000000
10.303200 0.000000
10.329200 0.000900
10.355200 0.008400
10.381200 0.019800
10.407200 0.034500
10.433200 0.051800
10.459200 0.071600
10.485300 0.094000
10.511300 0.178100
10.537300 0.172900
10.563300 0.165400
10.589300 0.175300
10.615300 0.192500
10.641300 0.210700
10.667300 0.229200
10.693400 0.246400
10.719400 0.262600
10.745400 0.292300
10.771400 0.331900
10.797400 0.367100
10.823400 0.411400
10.849400 0.461600
10.875400 0.512400
10.901500 0.552400
10.927500 0.578700
10.953500 0.604000
10.979500 0.631000
11.005500 0.655800
11.031500 0.686900
11.057500 0.720600
11.083500 0.753400
11.109600 0.789100
11.135600 0.823000
11.161600 0.849800
11.187600 0.877300
11.213600 0.916500
11.239600 0.979900
11.265600 1.036600
11.291600 1.073500
11.317700 1.111800
11.343700 1.134800
11.369700 1.151600
11.395700 1.172300
11.421700 1.183900
11.447700 1.187900
11.473700 1.459900
11.499700 1.333700
11.525800 1.333100
11.551800 1.322600
11.577800 1.305300
11.603800 1.309700
11.629800 1.319000
11.655800 1.326100
11.681800 1.333200
11.707900 1.329300
11.733900 1.308600
11.759900 1.298000
11.785900 1.294100
11.811900 1.294400
11.837900 1.296600
11.863900 1.300400
11.889900 1.317000
11.916000 1.329200
11.942000 1.333000
11.968000 1.338700
11.994000 1.342300
12.020000 1.344000
12.046000 1.342100
12.072000 1.341800
12.098000 1.347000
12.124100 1.360600
12.150100 1.383100
12.176100 1.412800
12.202100 1.458900
12.228100 1.498400
12.254100 1.524500
12.280100 1.549000
12.306100 1.548900
12.332200 1.468700
12.358200 1.468900
12.384200 1.510500
12.410200 1.513600
12.436200 1.475300
12.462200 1.473300
12.488200 1.494200
12.514200 1.513600
12.540300 1.539300
12.566300 1.586400
12.592300 1.626600
12.618300 1.657400
12.644300 1.696100
12.670300 1.727200
12.696300 1.789700
12.722400 1.808800
12.748400 1.793900
12.774400 1.824800
12.800400 1.809900
12.826400 1.738300
12.852400 1.665400
12.878400 1.622200
12.904400 1.591600
12.930500 1.467900
12.956500 1.432700
12.982500 1.486300
13.008500 1.737200
13.034500 2.164800
13.060500 2.503100
13.086500 2.754500
13.112500 2.797000
13.138600 2.689100
13.164600 2.542700
13.190600 2.508100
13.216600 2.499200
13.242600 2.485500
13.268600 2.504500
13.294600 2.529500
13.320600 2.609900
13.346700 2.664400
13.372700 2.689200
13.398700 2.652800
13.424700 2.658200
13.450700 2.610700
13.476700 2.586200
13.502700 2.648600
13.528700 2.713600
13.554800 2.791300
13.580800 3.016400
13.606800 3.224600
13.632800 3.019600
13.658800 2.922800
13.684800 2.926000
13.710800 3.049200
13.736900 3.176400
13.762900 3.461700
13.788900 4.385400
13.814900 4.404700
13.840900 4.739100
13.866900 4.371700
13.892900 3.759900
13.918900 3.500400
13.945000 3.528100
13.971000 4.071400
13.997000 4.032100
14.023000 3.963600
14.049000 3.959200
14.075000 4.022100
14.101000 4.300400
14.127000 4.605600
14.153100 4.652100
14.179100 4.333200
14.205100 4.179100
14.231100 4.050500
14.257100 4.108600
14.283100 4.614000
14.309100 4.674600
14.335100 4.120900
14.361200 3.963500
14.387200 3.837600
14.413200 3.600200
14.439200 3.340000
14.465200 3.288900
14.491200 3.307000
14.517200 3.224000
14.543200 3.116800
14.569300 3.149200
14.595300 3.263800
14.621300 2.934600
14.647300 2.726100
14.673300 2.595900
14.699300 2.392000
14.725300 2.346800
14.751300 2.154400
14.777400 2.138500
14.803400 2.338800
14.829400 2.342200
14.855400 2.370200
14.881400 2.290900
14.907400 2.445400
14.933400 3.037600
14.959500 3.394100
14.985500 4.022100
15.011500 4.272700
15.037500 4.174200
15.063500 4.305200
15.089500 4.179600
15.115500 3.366800
15.141500 2.860800
15.167600 2.633200
15.193600 2.461200
15.219600 2.329000
15.245600 2.268300
15.271600 2.231100
15.297600 2.218400
15.323600 2.141400
15.349600 2.105100
15.375700 1.990900
15.401700 1.944700
15.427700 1.948800
15.453700 1.875500
15.479700 1.847000
15.505700 1.846900
15.531700 1.860500
15.557700 1.923500
15.583800 2.136100
15.609800 2.154500
15.635800 2.313100
15.661800 2.405700
15.687800 2.526400
15.713800 2.624600
15.739800 2.696200
15.765800 2.721500
15.791900 2.718000
15.817900 2.515200
15.843900 2.391000
15.869900 2.333000
15.895900 2.322700
15.921900 2.322400
15.947900 2.335000
15.974000 2.397800
16.000000 2.435600
16.026000 2.383000
16.052000 2.266700
16.078000 2.190500
16.104000 2.151100
16.130000 2.155300
16.156000 2.090000
16.182100 2.083900
16.208100 2.086500
16.234100 2.022600
16.260100 2.087100
16.286100 2.126100
16.312100 2.167900
16.338100 2.190100
16.364100 2.226600
16.390200 2.278700
16.416200 2.341900
16.442200 2.480400
16.468200 2.655300
16.494200 2.827000
16.520200 2.991500
16.546200 3.085500
16.572200 3.278500
16.598300 3.543900
16.624300 3.659400
16.650300 3.811200
16.676300 3.833300
16.702300 3.840200
16.728300 3.878200
16.754300 3.884900
16.780300 4.038000
16.806400 4.034500
16.832400 3.955700
16.858400 3.873800
16.884400 3.786200
16.910400 3.440000
16.936400 3.207900
16.962400 2.967600
16.988500 2.725900
17.014500 2.580600
17.040500 2.472100
17.066500 2.492000
17.092500 2.437200
17.118500 2.450900
17.144500 2.502200
17.170500 2.337600
17.196600 2.201600
17.222600 2.118200
17.248600 2.095100
17.274600 2.227900
17.300600 2.357500
17.326600 2.779500
17.352600 3.513900
17.378600 3.402700
17.404700 3.252400
17.430700 3.186200
17.456700 2.829200
17.482700 2.476100
17.508700 2.382900
17.534700 2.690600
17.560700 3.103600
17.586700 2.588400
17.612800 2.402100
17.638800 2.359200
17.664800 2.444800
17.690800 2.414300
17.716800 2.436900
17.742800 2.399800
17.768800 2.323900
17.794800 2.341900
17.820900 2.175500
17.846900 2.053300
17.872900 2.108100
17.898900 2.120600
17.924900 2.095000
17.950900 2.151500
17.976900 2.309800
18.002900 2.534600
18.029000 2.675800
18.055000 2.808900
18.081000 2.902600
18.107000 3.102900
18.133000 3.331900
18.159000 3.476600
18.185000 3.534900
18.211100 3.656400
18.237100 3.694100
18.263100 3.619500
18.289100 3.408700
18.315100 3.309100
18.341100 3.224500
18.367100 3.198100
18.393100 3.171200
18.419200 3.188300
18.445200 3.240100
18.471200 3.192700
18.497200 3.116000
18.523200 3.056300
18.549200 3.016300
18.575200 3.012200
18.601200 2.999900
18.627300 3.253900
18.653300 3.254500
18.679300 3.106800
18.705300 2.997800
18.731300 3.041500
18.757300 3.087900
18.783300 3.084700
18.809300 3.448100
18.835400 3.308900
18.861400 3.167200
18.887400 3.209300
18.913400 3.277600
18.939400 3.197200
18.965400 3.316800
18.991400 3.354300
19.017400 3.625300
19.043500 3.870000
19.069500 4.156600
19.095500 4.178100
19.121500 4.296200
19.147500 4.242000
19.173500 3.995100
19.199500 3.949900
19.225600 3.849600
19.251600 3.611000
19.277600 3.529400
19.303600 3.556700
19.329600 3.824700
19.355600 4.571300
19.381600 4.020600
19.407600 3.950800
19.433700 3.940400
19.459700 3.889800
19.485700 3.697100
19.511700 3.473200
19.537700 3.295500
19.563700 3.232500
19.589700 3.393600
19.615700 3.425100
19.641800 3.529000
19.667800 3.764100
19.693800 3.899000
19.719800 4.227900
19.745800 4.294600
19.771800 4.259200
19.797800 4.143600
19.823800 3.898200
19.849900 3.935200
19.875900 3.961500
19.901900 4.113300
19.927900 4.100000
19.953900 4.038000
19.979900 3.855100
20.005900 3.615600
20.031900 3.468700
20.058000 3.320000
20.084000 3.284000
20.110000 3.274600
20.136000 3.282500
20.162000 3.312700
20.188000 3.381900
20.214000 3.394300
20.240100 3.585600
20.266100 3.423500
20.292100 3.179200
20.318100 3.146400
20.344100 3.093100
20.370100 3.037600
20.396100 3.030300
20.422100 3.111400
20.448200 2.999600
20.474200 2.998600
20.500200 3.069000
20.526200 3.181600
20.552200 3.265600
20.578200 3.492600
20.604200 3.684500
20.630200 3.909000
20.656300 4.193800
20.682300 4.482600
20.708300 4.579600
20.734300 4.255900
20.760300 4.122900
20.786300 3.848300
20.812300 3.801000
20.838300 3.755000
20.864400 3.595600
20.890400 3.352300
20.916400 3.206900
20.942400 3.034800
20.968400 2.926300
20.994400 2.980000
21.020400 2.929600
21.046400 2.945500
21.072500 2.912200
21.098500 2.871600
21.124500 2.717600
21.150500 2.639000
21.176500 2.601600
21.202500 2.679400
21.228500 2.744600
21.254500 2.808200
21.280600 2.863800
21.306600 2.617100
21.332600 2.609300
21.358600 2.783500
21.384600 3.111100
21.410600 3.078100
21.436600 2.859900
21.462700 2.953800
21.488700 3.101700
21.514700 3.423300
21.540700 3.785600
21.566700 4.068100
21.592700 4.209600
21.618700 4.007200
21.644700 3.798400
21.670800 3.765000
21.696800 4.144800
21.722800 4.060200
21.748800 3.901200
21.774800 3.890700
21.800800 3.704900
21.826800 3.515100
21.852800 3.283800
21.878900 3.078900
21.904900 2.922800
21.930900 2.761400
21.956900 2.653700
21.982900 2.569600
22.008900 2.478800
22.034900 2.488200
22.060900 2.408700
22.087000 2.318200
22.113000 2.228600
22.139000 2.189100
22.165000 2.133700
22.191000 1.988300
22.217000 1.940200
22.243000 1.980000
22.269000 1.946200
22.295100 1.935300
22.321100 1.930200
22.347100 1.944700
22.373100 2.055100
22.399100 2.273000
22.425100 2.256800
22.451100 2.278900
22.477200 2.317600
22.503200 2.279300
22.529200 2.278300
22.555200 2.410100
22.581200 2.596900
22.607200 2.790900
22.633200 2.977100
22.659200 3.209500
22.685300 3.607700
22.711300 3.568200
22.737300 3.572700
22.763300 3.612400
22.789300 3.755700
22.815300 3.931200
22.841300 4.109300
22.867300 4.123700
22.893400 4.280500
22.919400 4.110100
22.945400 3.541000
22.971400 3.478500
22.997400 3.303800
23.023400 3.040500
23.049400 2.865900
23.075400 2.738500
23.101500 2.653600
23.127500 2.570400
23.153500 2.610300
23.179500 2.578900
23.205500 2.576100
23.231500 2.609100
23.257500 2.654900
23.283500 2.865600
23.309600 3.255500
23.335600 4.098700
23.361600 4.066900
23.387600 3.829400
23.413600 3.724200
23.439600 3.710500
23.465600 3.722700
23.491700 4.497200
23.517700 3.640800
23.543700 3.504400
23.569700 3.404800
23.595700 3.311600
23.621700 3.301400
23.647700 3.113500
23.673700 3.070300
23.699800 3.114400
23.725800 3.049600
23.751800 3.181000
23.777800 3.510000
23.803800 3.560600
23.829800 3.252800
23.855800 3.428400
23.881800 3.600500
23.907900 3.770300
23.933900 3.595100
23.959900 3.546800
23.985900 3.448400
24.011900 3.288700
24.037900 3.044000
24.063900 2.823300
24.089900 2.692900
24.116000 2.606700
24.142000 2.613600
24.168000 2.732300
24.194000 2.866500
24.220000 3.151700
24.246000 3.498400
24.272000 3.754200
24.298000 3.968200
24.324100 4.017500
24.350100 3.863200
24.376100 3.729000
24.402100 3.465800
24.428100 2.994700
24.454100 2.811300
24.480100 2.819700
24.506100 2.916000
24.532200 3.146200
24.558200 3.014900
24.584200 2.951800
24.610200 2.919500
24.636200 2.921200
24.662200 2.939800
24.688200 2.995600
24.714300 3.068000
24.740300 3.172700
24.766300 3.258600
24.792300 3.172800
24.818300 3.348700
24.844300 3.131500
24.870300 2.927000
24.896300 2.793800
24.922400 2.859500
24.948400 2.978200
24.974400 2.560300
25.000400 2.566400
25.026400 2.570000
25.052400 2.573000
25.078400 2.587800
25.104400 2.648300
25.130500 2.697600
25.156500 2.720400
25.182500 2.648800
25.208500 2.596800
25.234500 2.536200
25.260500 2.508000
25.286500 2.496300
25.312500 2.510500
25.338600 2.603900
25.364600 2.613500
25.390600 2.594900
25.416600 2.664300
25.442600 2.530300
25.468600 2.299600
25.494600 2.176700
25.520600 2.129000
25.546700 2.047000
25.572700 2.034500
25.598700 2.115800
25.624700 2.265700
25.650700 2.480100
25.676700 2.534800
25.702700 2.529800
25.728800 2.536000
25.754800 2.473300
25.780800 2.489900
25.806800 2.467100
25.832800 2.508500
25.858800 2.501900
25.884800 2.417100
25.910800 2.440100
25.936900 2.415600
25.962900 2.443800
25.988900 2.482900
26.014900 2.514400
26.040900 2.511700
26.066900 2.521700
26.092900 2.511600
26.118900 2.449700
26.145000 2.434000
26.171000 2.385400
26.197000 2.357100
26.223000 2.301600
26.249000 2.258200
26.275000 2.219600
26.301000 2.211100
26.327000 2.243300
26.353100 2.174500
26.379100 2.137000
26.405100 2.095400
26.431100 2.029300
26.457100 1.988900
26.483100 1.960200
26.509100 1.962500
26.535100 2.034700
26.561200 2.079400
26.587200 2.124100
26.613200 1.990800
26.639200 1.971200
26.665200 1.922300
26.691200 1.876500
26.717200 1.863800
26.743300 1.848700
26.769300 1.872600
26.795300 1.881500
26.821300 1.788600
26.847300 1.761900
26.873300 1.789500
26.899300 1.828500
26.925300 1.856700
26.951400 1.890800
26.977400 2.018000
27.003400 2.124500
27.029400 2.253000
27.055400 2.335600
27.081400 2.392500
27.107400 2.574000
27.133400 2.830700
27.159500 2.907100
27.185500 3.010900
27.211500 2.924400
27.237500 2.834600
27.263500 2.788200
27.289500 2.809200
27.315500 2.924900
27.341500 2.856400
27.367600 3.197500
27.393600 2.683700
27.419600 2.684300
27.445600 2.765400
27.471600 2.873900
27.497600 2.968400
27.523600 3.197700
27.549600 3.285500
27.575700 3.300800
27.601700 3.446200
27.627700 3.427300
27.653700 3.423400
27.679700 3.469000
27.705700 3.227000
27.731700 3.114600
27.757700 2.891500
27.783800 2.879300
27.809800 2.922300
27.835800 2.907600
27.861800 2.863900
27.887800 2.781600
27.913800 2.724000
27.939800 2.744400
27.965900 3.010100
27.991900 3.081700
28.017900 3.131400
28.043900 3.112800
28.069900 3.180100
28.095900 3.211700
28.121900 3.253100
28.147900 3.134400
28.174000 3.059100
28.200000 3.058800
28.226000 3.080700
28.252000 3.038200
28.278000 3.305600
28.304000 3.474200
28.330000 3.485700
28.356000 3.579700
28.382100 3.910700
28.408100 4.059000
28.434100 4.066300
28.460100 3.894200
28.486100 3.948300
28.512100 3.983400
28.538100 4.040700
28.564100 3.944500
28.590200 3.844500
28.616200 3.788400
28.642200 3.608800
28.668200 3.475700
28.694200 3.489300
28.720200 3.351500
28.746200 3.094100
28.772200 2.932400
28.798300 2.926100
28.824300 3.126200
28.850300 3.392200
28.876300 3.626500
28.902300 4.038600
28.928300 4.012600
28.954300 3.632600
28.980400 3.328000
29.006400 3.254000
29.032400 3.068900
29.058400 3.068300
29.084400 3.094800
29.110400 3.156500
29.136400 3.242000
29.162400 3.379200
29.188500 3.157600
29.214500 3.071900
29.240500 3.010100
29.266500 3.063500
29.292500 3.079000
29.318500 3.075800
29.344500 3.080300
29.370500 3.083400
29.396600 3.067800
29.422600 2.997600
29.448600 2.950900
29.474600 2.823100
29.500600 2.811000
29.526600 2.821500
29.552600 2.819200
29.578600 2.786700
29.604700 2.854000
29.630700 2.844400
29.656700 2.880600
29.682700 2.696100
29.708700 2.844600
29.734700 2.704900
29.760700 2.718300
29.786700 2.806100
29.812800 2.904700
29.838800 2.869800
29.864800 2.783300
29.890800 2.472800
29.916800 2.480500
29.942800 2.508300
29.968800 2.455500
29.994800 2.459500
30.020900 2.520000
30.046900 2.524800
30.072900 2.489200
30.098900 2.420600
30.124900 2.371600
30.150900 2.343500
30.176900 2.324100
30.203000 2.301200
30.229000 2.319100
30.255000 2.420000
30.281000 2.525600
30.307000 2.491300
30.333000 2.360900
30.359000 2.284000
30.385000 2.102700
30.411100 2.025700
30.437100 1.920900
30.463100 1.826700
30.489100 1.736900
30.515100 1.648400
30.541100 1.516500
30.567100 1.450000
30.593100 1.390500
30.619200 1.334800
30.645200 1.297500
30.671200 1.254800
30.697200 1.214400
30.723200 1.181100
30.749200 1.145100
30.775200 1.101500
30.801200 1.063700
30.827300 1.014700
30.853300 0.968500
30.879300 0.929100
30.905300 0.861500
30.931300 0.823900
30.957300 0.734300
30.983300 0.681200
31.009300 0.647100
31.035400 0.619100
31.061400 0.587400
31.087400 0.541900
31.113400 0.502000
31.139400 0.470700
31.165400 0.449700
31.191400 0.427000
31.217500 0.403000
31.243500 0.400200
31.269500 0.389200
31.295500 0.375400
31.321500 0.376700
31.347500 0.327400
31.373500 0.335800
31.399500 0.321100
31.425600 0.296300
31.451600 0.276900
31.477600 0.261000
31.503600 0.247100
31.529600 0.235200
31.555600 0.224000
31.581600 0.211200
31.607600 0.196900
31.633700 0.181100
31.659700 0.166200
31.685700 0.150400
31.711700 0.135900
31.737700 0.123200
31.763700 0.112100
31.789700 0.102700
31.815700 0.095000
31.841800 0.088200
31.867800 0.082000
31.893800 0.076600
31.919800 0.072800
31.945800 0.073300
31.971800 0.076900
31.997800 0.084300
32.023800 0.079000
32.049900 0.072600
32.075900 0.065100
32.101900 0.056500
32.127900 0.043600
32.153900 0.023700
32.179900 0.010800
32.205900 0.002900
32.232000 0.000000
32.258000 0.000000
32.284000 0.000000
32.310000 0.000000
32.336000 0.000000
32.362000 0.000000
32.388000 0.000000
32.414000 0.000000
32.440100 0.000000
32.466100 0.000000
32.492100 0.000000
32.518100 0.000000
32.544100 0.000000
32.570100 0.000000
32.596100 0.000000
32.622100 0.000000
32.648200 0.000000
32.674200 0.000000
32.700200 0.000000
32.726200 0.000000
32.752200 0.000000
32.778200 0.000000
32.804200 0.000000
32.830200 0.000000
32.856300 0.000000
32.882300 0.000000
32.908300 0.000000
32.934300 0.000000
32.960300 0.000000
32.986300 0.000000
33.012300 0.000000
33.038300 0.000000
33.064400 0.000000
33.090400 0.000000
33.116400 0.000000
33.142400 0.000000
33.168400 0.000000
33.194400 0.000000
33.220400 0.000000
33.246400 0.000000
33.272500 0.000000
33.298500 0.000000
33.324500 0.000000
33.350500 0.000000
33.376500 0.000000
33.402500 0.000000
33.428500 0.000000
33.454600 0.000000
33.480600 0.000000
33.506600 0.000000
33.532600 0.000000
33.558600 0.000000
33.584600 0.000000
33.610600 0.000000
33.636600 0.000000
33.662700 0.000000
33.688700 0.000000
33.714700 0.000000
33.740700 0.000000
33.766700 0.000000
33.792700 0.000000
33.818700 0.000000
33.844700 0.000000
33.870800 0.000000
33.896800 0.000000
33.922800 0.000000
33.948800 0.000000
33.974800 0.000000
34.000800 0.000000
34.026800 0.000000
34.052800 0.000000
34.078900 0.000000
34.104900 0.000000
34.130900 0.000000
34.156900 0.000000
34.182900 0.000000
34.208900 0.000000
34.234900 0.000000
34.260900 0.000000
34.287000 0.000000
34.313000 0.000000
34.339000 0.000000
34.365000 0.000000
34.391000 0.000000
34.417000 0.000000
34.443000 0.000000
34.469100 0.000000
34.495100 0.000000
34.521100 0.000000
34.547100 0.000000
34.573100 0.000000
34.599100 0.000000
e
