set title 'mp-568696 - Density of States'
set xlabel 'Energy (eV)'
set ylabel 'DOS (states/eV)'
set grid
set xrange [-10:10]
set yrange [0:41.847]
set xzeroaxis lt -1
set terminal png size 800,600
set output 'mp-568696_dos_gnuplot.png'
plot '-' using 1:2 with lines title 'DOS'
-8.917000 0.000000
-8.899700 0.000000
-8.882400 0.000000
-8.865100 0.000000
-8.847700 0.000000
-8.830400 0.000000
-8.813100 0.000000
-8.795800 0.000000
-8.778400 0.000000
-8.761100 0.000000
-8.743800 0.000000
-8.726500 0.000000
-8.709100 0.000000
-8.691800 0.000000
-8.674500 0.000000
-8.657200 0.000000
-8.639800 0.000000
-8.622500 0.000000
-8.605200 0.000000
-8.587900 0.000000
-8.570500 0.000000
-8.553200 0.000000
-8.535900 0.000000
-8.518600 0.000000
-8.501200 0.000000
-8.483900 0.000000
-8.466600 0.000000
-8.449300 0.000000
-8.431900 0.000000
-8.414600 0.000000
-8.397300 0.000000
-8.380000 0.000000
-8.362600 0.000000
-8.345300 0.000000
-8.328000 0.000000
-8.310700 0.000000
-8.293300 0.000000
-8.276000 0.000000
-8.258700 0.000000
-8.241400 0.000000
-8.224000 0.000000
-8.206700 0.000000
-8.189400 0.000000
-8.172100 0.000000
-8.154700 0.000000
-8.137400 0.000000
-8.120100 0.000000
-8.102800 0.000000
-8.085400 0.000000
-8.068100 0.000000
-8.050800 0.000000
-8.033500 0.000000
-8.016100 0.000000
-7.998800 0.000000
-7.981500 0.000000
-7.964200 0.000000
-7.946800 0.000000
-7.929500 0.000000
-7.912200 0.000000
-7.894900 0.000000
-7.877500 0.000000
-7.860200 0.000000
-7.842900 0.000000
-7.825600 0.000000
-7.808200 0.000000
-7.790900 0.000000
-7.773600 0.000000
-7.756300 0.000000
-7.738900 0.000000
-7.721600 0.000000
-7.704300 0.000000
-7.687000 0.000000
-7.669600 0.000000
-7.652300 0.000000
-7.635000 0.000000
-7.617700 0.000000
-7.600300 0.000000
-7.583000 0.000000
-7.565700 0.000000
-7.548400 0.000000
-7.531000 0.000000
-7.513700 0.000000
-7.496400 0.000000
-7.479100 0.000000
-7.461700 0.000000
-7.444400 0.000000
-7.427100 0.000000
-7.409800 0.000000
-7.392400 0.000000
-7.375100 0.000000
-7.357800 0.000000
-7.340500 0.005200
-7.323200 0.062500
-7.305800 0.119800
-7.288500 0.177000
-7.271200 0.234300
-7.253900 0.291600
-7.236500 0.380500
-7.219200 0.552800
-7.201900 0.725200
-7.184600 0.897600
-7.167200 1.069900
-7.149900 1.242300
-7.132600 1.414600
-7.115300 1.195400
-7.097900 1.315400
-7.080600 1.435500
-7.063300 1.555500
-7.046000 1.675600
-7.028600 1.438800
-7.011300 1.108300
-6.994000 1.123300
-6.976700 1.138300
-6.959300 1.162300
-6.942000 1.235800
-6.924700 1.333100
-6.907400 1.464900
-6.890000 1.596600
-6.872700 1.728400
-6.855400 1.860200
-6.838100 1.991900
-6.820700 2.123700
-6.803400 2.255500
-6.786100 2.387200
-6.768800 2.519000
-6.751400 2.297900
-6.734100 2.376200
-6.716800 2.090400
-6.699500 2.108300
-6.682100 2.123100
-6.664800 2.137900
-6.647500 2.152800
-6.630200 2.167600
-6.612800 2.181500
-6.595500 2.176900
-6.578200 2.171000
-6.560900 2.165100
-6.543500 2.159200
-6.526200 2.153300
-6.508900 2.147400
-6.491600 2.147200
-6.474200 2.148600
-6.456900 2.203600
-6.439600 2.325000
-6.422300 2.446400
-6.404900 2.569400
-6.387600 2.705400
-6.370300 2.841500
-6.353000 2.977600
-6.335600 3.111700
-6.318300 3.237300
-6.301000 3.359100
-6.283700 3.474300
-6.266300 3.589500
-6.249000 2.943600
-6.231700 2.949400
-6.214400 2.955100
-6.197000 2.960900
-6.179700 2.966700
-6.162400 2.972400
-6.145100 2.978200
-6.127700 2.987300
-6.110400 3.000600
-6.093100 3.018100
-6.075800 3.038700
-6.058400 3.059300
-6.041100 3.079900
-6.023800 3.100500
-6.006500 3.121200
-5.989100 3.141800
-5.971800 3.162400
-5.954500 3.183000
-5.937200 3.203700
-5.919800 3.224300
-5.902500 3.244900
-5.885200 3.236400
-5.867900 3.255400
-5.850500 3.271800
-5.833200 3.272600
-5.815900 3.270400
-5.798600 3.306200
-5.781200 3.426200
-5.763900 3.546200
-5.746600 3.666200
-5.729300 3.786300
-5.711900 3.906300
-5.694600 4.026300
-5.677300 4.146300
-5.660000 4.266400
-5.642600 4.392900
-5.625300 4.528100
-5.608000 4.285400
-5.590700 3.957400
-5.573300 3.978300
-5.556000 3.999200
-5.538700 4.020200
-5.521400 4.013000
-5.504000 4.032800
-5.486700 4.025100
-5.469400 4.044200
-5.452100 4.063400
-5.434700 4.082600
-5.417400 4.101700
-5.400100 4.122800
-5.382800 4.144400
-5.365400 4.166000
-5.348100 4.187500
-5.330800 4.209100
-5.313500 4.230700
-5.296200 4.252300
-5.278800 4.273900
-5.261500 4.295400
-5.244200 4.317000
-5.226900 4.338600
-5.209500 4.355800
-5.192200 4.356900
-5.174900 4.356800
-5.157600 4.356900
-5.140200 4.358100
-5.122900 4.359300
-5.105600 4.361700
-5.088300 4.364100
-5.070900 4.366500
-5.053600 4.318400
-5.036300 4.330900
-5.019000 4.400000
-5.001600 4.534300
-4.984300 4.684300
-4.967000 4.834400
-4.949700 4.984400
-4.932300 5.134400
-4.915000 5.283800
-4.897700 5.433200
-4.880400 5.582600
-4.863000 5.732000
-4.845700 5.881400
-4.828400 5.604200
-4.811100 5.290400
-4.793700 5.317000
-4.776400 5.343500
-4.759100 5.371400
-4.741800 5.401900
-4.724400 5.432400
-4.707100 5.462900
-4.689800 5.495000
-4.672500 5.530700
-4.655100 5.572700
-4.637800 5.614700
-4.620500 5.656600
-4.603200 5.698700
-4.585800 5.741700
-4.568500 5.784600
-4.551200 5.828000
-4.533900 5.871600
-4.516500 5.915200
-4.499200 5.958800
-4.481900 6.002400
-4.464600 6.046000
-4.447200 6.040300
-4.429900 6.072400
-4.412600 6.099100
-4.395300 6.127500
-4.377900 6.158700
-4.360600 6.189900
-4.343300 6.221100
-4.326000 6.252300
-4.308600 6.283500
-4.291300 6.594100
-4.274000 6.605600
-4.256700 6.622600
-4.239300 6.646500
-4.222000 7.078800
-4.204700 7.514200
-4.187400 7.638600
-4.170000 7.763200
-4.152700 7.893200
-4.135400 8.025900
-4.118100 8.158700
-4.100700 8.294200
-4.083400 8.430900
-4.066100 8.567600
-4.048800 8.314500
-4.031400 8.305700
-4.014100 8.274400
-3.996800 8.251200
-3.979500 8.228000
-3.962100 8.529700
-3.944800 8.475800
-3.927500 8.421800
-3.910200 8.367900
-3.892800 8.314000
-3.875500 8.260100
-3.858200 8.206200
-3.840900 8.152300
-3.823500 8.101200
-3.806200 8.128900
-3.788900 8.156600
-3.771600 8.102000
-3.754200 8.133400
-3.736900 9.390700
-3.719600 13.015400
-3.702300 8.166200
-3.684900 8.741900
-3.667600 8.724900
-3.650300 9.290700
-3.633000 8.885300
-3.615600 8.872600
-3.598300 8.881400
-3.581000 8.893400
-3.563700 8.905400
-3.546300 8.917400
-3.529000 8.283300
-3.511700 8.876000
-3.494400 9.507500
-3.477000 7.795500
-3.459700 7.765600
-3.442400 7.737500
-3.425100 7.712200
-3.407700 7.709200
-3.390400 7.783100
-3.373100 7.857100
-3.355800 7.948700
-3.338500 8.138600
-3.321100 8.328500
-3.303800 8.516200
-3.286500 9.655200
-3.269200 9.600800
-3.251800 10.331700
-3.234500 10.079500
-3.217200 9.432800
-3.199900 8.566300
-3.182500 8.161000
-3.165200 7.755700
-3.147900 7.350500
-3.130600 7.007800
-3.113200 6.799600
-3.095900 6.591300
-3.078600 6.543900
-3.061300 6.502200
-3.043900 6.517300
-3.026600 6.495000
-3.009300 6.533900
-2.992000 6.633200
-2.974600 6.807700
-2.957300 6.982200
-2.940000 7.555700
-2.922700 8.350400
-2.905300 9.211100
-2.888000 11.039600
-2.870700 14.163200
-2.853400 11.507800
-2.836000 11.161000
-2.818700 9.946900
-2.801400 8.736700
-2.784100 7.563300
-2.766700 6.389800
-2.749400 5.586600
-2.732100 5.319300
-2.714800 5.421300
-2.697400 6.079100
-2.680100 6.837700
-2.662800 7.625800
-2.645500 8.429900
-2.628100 9.234100
-2.610800 10.038300
-2.593500 7.318600
-2.576200 7.793900
-2.558800 4.746500
-2.541500 4.975100
-2.524200 5.203800
-2.506900 15.392000
-2.489500 12.607600
-2.472200 9.951200
-2.454900 13.324400
-2.437600 12.515000
-2.420200 11.705500
-2.402900 10.896100
-2.385600 13.749000
-2.368300 10.287900
-2.350900 5.869200
-2.333600 5.820800
-2.316300 5.772400
-2.299000 5.724000
-2.281600 7.318300
-2.264300 7.686100
-2.247000 1.979000
-2.229700 0.000000
-2.212300 0.000000
-2.195000 0.000000
-2.177700 0.000000
-2.160400 0.000000
-2.143000 0.000000
-2.125700 0.000000
-2.108400 0.000000
-2.091100 0.000000
-2.073700 0.000000
-2.056400 0.000000
-2.039100 0.000000
-2.021800 0.000000
-2.004400 0.000000
-1.987100 0.000000
-1.969800 0.000000
-1.952500 0.000000
-1.935100 0.000000
-1.917800 0.000000
-1.900500 0.000000
-1.883200 0.000000
-1.865800 0.000000
-1.848500 0.000000
-1.831200 0.000000
-1.813900 0.000000
-1.796500 0.000000
-1.779200 0.000000
-1.761900 0.000000
-1.744600 0.000000
-1.727200 0.000000
-1.709900 0.000000
-1.692600 0.000000
-1.675300 0.000000
-1.657900 0.000000
-1.640600 0.000000
-1.623300 0.000000
-1.606000 0.000000
-1.588600 0.000000
-1.571300 0.000000
-1.554000 0.000000
-1.536700 0.000000
-1.519300 0.000000
-1.502000 0.000000
-1.484700 0.000000
-1.467400 0.000000
-1.450000 0.000000
-1.432700 0.000000
-1.415400 0.000000
-1.398100 0.000000
-1.380700 0.000000
-1.363400 0.000000
-1.346100 0.000000
-1.328800 0.000000
-1.311500 0.000000
-1.294100 0.000000
-1.276800 0.000000
-1.259500 0.000000
-1.242200 0.000000
-1.224800 0.000000
-1.207500 0.000000
-1.190200 0.000000
-1.172900 0.000000
-1.155500 0.000000
-1.138200 0.000000
-1.120900 0.000000
-1.103600 0.000000
-1.086200 0.000000
-1.068900 0.000000
-1.051600 0.000000
-1.034300 0.000000
-1.016900 0.000000
-0.999600 0.000000
-0.982300 0.000000
-0.965000 0.000000
-0.947600 0.000000
-0.930300 0.000000
-0.913000 0.000000
-0.895700 0.000000
-0.878300 0.000000
-0.861000 0.000000
-0.843700 0.000000
-0.826400 0.000000
-0.809000 0.000000
-0.791700 0.000000
-0.774400 0.000000
-0.757100 0.000000
-0.739700 0.000000
-0.722400 0.000000
-0.705100 0.000000
-0.687800 0.000000
-0.670400 0.000000
-0.653100 0.000000
-0.635800 0.000000
-0.618500 0.000000
-0.601100 0.000000
-0.583800 0.000000
-0.566500 0.000000
-0.549200 0.000000
-0.531800 0.000000
-0.514500 0.000000
-0.497200 0.022200
-0.479900 0.091900
-0.462500 0.161600
-0.445200 0.231200
-0.427900 0.300900
-0.410600 0.370600
-0.393200 0.440300
-0.375900 0.509900
-0.358600 0.579600
-0.341300 0.649300
-0.323900 0.719000
-0.306600 0.405600
-0.289300 0.412700
-0.272000 1.498400
-0.254600 4.618300
-0.237300 0.948900
-0.220000 0.975300
-0.202700 1.476800
-0.185300 3.380200
-0.168000 7.474500
-0.150700 2.114000
-0.133400 2.178200
-0.116000 2.242300
-0.098700 2.306500
-0.081400 2.370600
-0.064100 2.434800
-0.046700 2.935200
-0.029400 4.685500
-0.012100 6.435700
0.005200 3.287300
0.022600 3.372000
0.039900 3.456600
0.057200 3.540800
0.074500 3.689500
0.091900 3.930300
0.109200 4.171100
0.126500 4.412000
0.143800 4.652800
0.161200 4.893600
0.178500 5.134500
0.195800 5.375300
0.213100 5.616100
0.230500 6.797100
0.247800 8.385500
0.265100 7.060300
0.282400 8.501700
0.299800 8.421400
0.317100 8.341100
0.334400 9.522300
0.351700 10.589700
0.369100 10.268100
0.386400 9.986700
0.403700 9.873700
0.421000 10.307100
0.438400 11.421100
0.455700 14.901500
0.473000 12.238400
0.490300 11.800900
0.507700 11.363300
0.525000 13.609800
0.542300 11.086700
0.559600 10.725400
0.577000 10.611000
0.594300 10.844000
0.611600 11.077100
0.628900 11.310200
0.646200 11.543300
0.663600 25.930900
0.680900 11.210300
0.698200 10.693400
0.715500 13.847500
0.732900 12.323700
0.750200 10.801900
0.767500 10.323000
0.784800 12.170200
0.802200 16.265600
0.819500 19.763900
0.836800 15.060100
0.854100 18.281700
0.871500 13.890200
0.888800 13.367000
0.906100 12.843800
0.923400 12.738200
0.940800 13.022300
0.958100 13.380000
0.975400 14.611600
0.992700 13.937300
1.010100 16.068100
1.027400 6.720000
1.044700 6.681500
1.062000 6.643000
1.079400 6.604500
1.096700 6.572700
1.114000 6.544100
1.131300 6.515400
1.148700 6.546500
1.166000 14.967800
1.183300 6.264600
1.200600 5.796300
1.218000 5.836400
1.235300 5.882500
1.252600 6.006500
1.269900 6.188600
1.287300 6.447900
1.304600 6.732800
1.321900 7.046300
1.339200 7.453000
1.356600 7.932600
1.373900 8.479300
1.391200 9.026100
1.408500 9.573900
1.425900 10.123600
1.443200 10.685700
1.460500 11.310600
1.477800 10.081300
1.495200 10.113500
1.512500 8.671000
1.529800 8.477300
1.547100 8.094400
1.564500 8.202500
1.581800 8.310600
1.599100 8.418600
1.616400 8.533500
1.633800 8.655600
1.651100 8.779500
1.668400 12.058400
1.685700 11.816400
1.703100 11.584700
1.720400 18.413700
1.737700 11.588500
1.755000 8.853900
1.772400 6.443500
1.789700 4.818500
1.807000 4.817300
1.824300 4.816200
1.841700 4.815100
1.859000 4.814000
1.876300 4.814400
1.893600 4.470700
1.911000 4.448700
1.928300 4.426700
1.945600 4.404600
1.962900 4.386600
1.980300 4.375900
1.997600 4.369900
2.014900 4.363900
2.032200 4.357800
2.049600 4.351800
2.066900 4.345800
2.084200 4.339800
2.101500 4.333700
2.118900 4.327700
2.136200 4.324700
2.153500 4.327700
2.170800 4.342600
2.188200 4.380500
2.205500 4.411200
2.222800 4.441900
2.240100 4.472500
2.257500 4.531700
2.274800 4.583400
2.292100 4.637600
2.309400 4.691800
2.326800 4.744500
2.344100 4.797200
2.361400 4.849900
2.378700 4.902600
2.396100 4.955300
2.413400 5.008000
2.430700 5.060700
2.448000 5.113200
2.465400 5.173700
2.482700 5.238300
2.500000 5.298900
2.517300 5.359500
2.534700 5.420100
2.552000 5.489600
2.569300 5.559400
2.586600 5.629100
2.604000 5.698900
2.621300 5.768700
2.638600 11.011700
2.655900 10.098900
2.673200 9.144600
2.690600 8.232400
2.707900 7.320300
2.725200 6.848300
2.742500 7.180500
2.759900 7.333400
2.777200 7.491100
2.794500 7.943100
2.811800 7.959700
2.829200 8.131800
2.846500 8.302000
2.863800 8.531200
2.881100 9.162900
2.898500 10.387500
2.915800 11.746600
2.933100 13.378000
2.950400 14.612700
2.967800 16.407400
2.985100 15.498400
3.002400 12.783700
3.019700 9.901400
3.037100 8.385500
3.054400 7.861500
3.071700 7.842100
3.089000 8.042700
3.106400 8.191800
3.123700 8.392500
3.141000 8.429900
3.158300 8.502100
3.175700 8.719200
3.193000 8.878400
3.210300 8.878400
3.227600 8.905900
3.245000 8.938600
3.262300 8.971300
3.279600 9.003900
3.296900 8.962600
3.314300 8.999000
3.331600 9.030500
3.348900 8.964400
3.366200 8.833200
3.383600 8.906100
3.400900 8.985600
3.418200 10.244400
3.435500 10.076400
3.452900 9.908400
3.470200 9.740400
3.487500 9.572400
3.504800 9.404400
3.522200 9.236400
3.539500 9.068500
3.556800 8.920900
3.574100 8.804200
3.591500 8.691000
3.608800 8.381900
3.626100 8.385800
3.643400 8.392200
3.660800 8.418100
3.678100 8.444100
3.695400 8.470200
3.712700 8.535400
3.730100 8.810700
3.747400 9.131500
3.764700 9.452200
3.782000 9.772800
3.799400 10.067100
3.816700 10.384200
3.834000 10.786000
3.851300 11.226000
3.868700 11.946900
3.886000 12.749800
3.903300 13.251500
3.920600 12.469000
3.938000 12.158600
3.955300 12.090100
3.972600 12.067100
3.989900 12.081800
4.007300 12.096500
4.024600 12.123600
4.041900 12.215300
4.059200 11.681600
4.076600 11.704100
4.093900 11.253200
4.111200 10.802200
4.128500 10.486100
4.145900 10.575200
4.163200 10.664600
4.180500 11.090100
4.197800 11.098600
4.215200 11.110000
4.232500 11.121400
4.249800 11.132800
4.267100 11.155400
4.284500 11.178200
4.301800 11.210100
4.319100 11.243100
4.336400 11.276100
4.353800 11.309100
4.371100 11.342100
4.388400 11.067400
4.405700 12.750700
4.423100 12.729800
4.440400 14.508700
4.457700 14.396700
4.475000 14.282100
4.492400 14.167500
4.509700 38.042900
4.527000 13.045300
4.544300 12.916900
4.561700 12.788100
4.579000 12.664800
4.596300 12.564400
4.613600 12.476700
4.630900 12.367400
4.648300 12.325000
4.665600 12.239900
4.682900 12.278800
4.700200 12.312500
4.717600 18.339500
4.734900 17.591400
4.752200 16.840700
4.769500 15.792400
4.786900 14.852300
4.804200 14.141200
4.821500 13.926500
4.838800 13.856400
4.856200 13.560800
4.873500 13.472000
4.890800 13.384000
4.908100 13.319200
4.925500 12.631500
4.942800 12.630500
4.960100 12.688100
4.977400 12.685000
4.994800 12.687000
5.012100 12.670000
5.029400 12.636700
5.046700 12.612400
5.064100 12.704800
5.081400 12.716600
5.098700 12.729100
5.116000 21.419600
5.133400 15.780800
5.150700 13.827500
5.168000 16.698000
5.185300 16.318200
5.202700 15.939700
5.220000 15.560100
5.237300 15.158700
5.254600 14.753900
5.272000 14.066200
5.289300 13.813700
5.306600 13.664300
5.323900 13.670600
5.341300 13.947900
5.358600 14.371300
5.375900 14.833000
5.393200 15.257800
5.410600 15.651300
5.427900 17.841600
5.445200 21.769600
5.462500 14.964700
5.479900 14.730800
5.497200 14.439500
5.514500 14.053000
5.531800 14.097200
5.549200 14.154300
5.566500 14.211400
5.583800 14.321200
5.601100 14.325600
5.618500 14.350500
5.635800 14.399600
5.653100 14.432300
5.670400 14.464200
5.687800 14.489800
5.705100 14.503200
5.722400 14.618900
5.739700 15.274200
5.757100 15.630200
5.774400 16.011900
5.791700 16.757600
5.809000 17.110700
5.826400 17.440700
5.843700 15.917100
5.861000 15.908300
5.878300 15.904600
5.895700 16.019700
5.913000 16.196100
5.930300 16.378300
5.947600 16.011400
5.965000 16.214800
5.982300 16.449400
5.999600 16.657300
6.016900 16.855400
6.034300 16.627800
6.051600 16.760500
6.068900 16.046200
6.086200 16.045400
6.103600 16.052800
6.120900 16.116000
6.138200 16.174200
6.155500 16.227900
6.172900 16.281500
6.190200 16.330800
6.207500 16.124100
6.224800 16.176000
6.242200 16.243300
6.259500 16.328200
6.276800 16.415000
6.294100 16.503500
6.311500 16.592000
6.328800 16.602600
6.346100 16.340000
6.363400 16.368100
6.380800 17.102500
6.398100 16.966100
6.415400 17.085200
6.432700 15.990100
6.450100 15.952300
6.467400 15.932900
6.484700 16.030200
6.502000 15.979700
6.519400 15.971600
6.536700 16.117500
6.554000 16.166300
6.571300 16.043000
6.588700 15.384400
6.606000 15.450000
6.623300 15.512800
6.640600 15.411800
6.657900 15.294800
6.675300 15.256000
6.692600 15.180000
6.709900 15.094100
6.727200 14.942800
6.744600 14.970200
6.761900 14.819000
6.779200 14.696800
6.796500 13.713100
6.813900 13.533300
6.831200 13.338900
6.848500 13.121600
6.865800 12.905200
6.883200 12.452000
6.900500 12.164600
6.917800 11.874500
6.935100 11.595100
6.952500 11.055500
6.969800 10.907900
6.987100 10.613600
7.004400 10.358300
7.021800 10.087300
7.039100 9.836900
7.056400 9.660100
7.073700 9.590500
7.091100 9.443800
7.108400 9.302200
7.125700 9.159300
7.143000 8.996700
7.160400 8.899800
7.177700 8.685200
7.195000 8.572800
7.212300 8.521500
7.229700 8.352200
7.247000 8.156900
7.264300 8.026400
7.281600 7.859000
7.299000 7.605100
7.316300 7.461400
7.333600 7.236800
7.350900 7.012300
7.368300 6.787700
7.385600 6.563200
7.402900 6.338600
7.420200 6.115800
7.437600 5.913900
7.454900 5.710500
7.472200 5.477800
7.489500 5.261900
7.506900 5.052100
7.524200 4.866700
7.541500 5.044900
7.558800 5.040000
7.576200 4.831400
7.593500 4.648000
7.610800 4.523700
7.628100 4.334500
7.645500 4.145400
7.662800 3.956200
7.680100 3.767100
7.697400 3.578000
7.714800 3.396900
7.732100 3.225400
7.749400 3.045700
7.766700 2.866600
7.784100 2.746000
7.801400 2.625400
7.818700 3.957400
7.836000 3.562800
7.853400 3.499600
7.870700 3.025900
7.888000 2.552100
7.905300 2.078400
7.922700 2.144000
7.940000 1.555100
7.957300 1.052900
7.974600 0.590500
7.992000 0.199200
8.009300 0.000000
8.026600 0.000000
8.043900 0.000000
8.061300 0.000000
8.078600 0.000000
8.095900 0.000000
8.113200 0.000000
8.130600 0.000000
8.147900 0.000000
8.165200 0.000000
8.182500 0.000000
8.199900 0.000000
8.217200 0.000000
8.234500 0.000000
8.251800 0.000000
8.269200 0.000000
8.286500 0.000000
8.303800 0.000000
8.321100 0.000000
8.338500 0.000000
8.355800 0.000000
8.373100 0.000000
8.390400 0.000000
8.407800 0.000000
8.425100 0.000000
8.442400 0.000000
8.459700 0.000000
8.477100 0.000000
8.494400 0.000000
8.511700 0.000000
8.529000 0.000000
8.546400 0.000000
8.563700 0.000000
8.581000 0.000000
8.598300 0.000000
8.615700 0.000000
8.633000 0.000000
8.650300 0.000000
8.667600 0.000000
8.684900 0.000000
8.702300 0.000000
8.719600 0.000000
8.736900 0.000000
8.754200 0.000000
8.771600 0.000000
8.788900 0.000000
8.806200 0.000000
8.823500 0.000000
8.840900 0.000000
8.858200 0.000000
8.875500 0.000000
8.892800 0.000000
8.910200 0.000000
8.927500 0.000000
8.944800 0.000000
8.962100 0.000000
8.979500 0.000000
8.996800 0.000000
9.014100 0.000000
9.031400 0.000000
9.048800 0.000000
9.066100 0.000000
9.083400 0.000000
9.100700 0.000000
9.118100 0.000000
9.135400 0.000000
9.152700 0.000000
9.170000 0.000000
9.187400 0.000000
9.204700 0.000000
9.222000 0.000000
9.239300 0.000000
9.256700 0.000000
9.274000 0.000000
9.291300 0.000000
9.308600 0.000000
9.326000 0.000000
9.343300 0.000000
9.360600 0.000000
9.377900 0.000000
9.395300 0.000000
9.412600 0.000000
9.429900 0.000000
9.447200 0.000000
9.464600 0.000000
9.481900 0.000000
9.499200 0.000000
9.516500 0.000000
9.533900 0.000000
9.551200 0.000000
9.568500 0.000000
9.585800 0.000000
9.603200 0.000000
9.620500 0.000000
9.637800 0.000000
9.655100 0.000000
9.672500 0.000000
9.689800 0.000000
9.707100 0.000000
9.724400 0.000000
9.741800 0.000000
9.759100 0.000000
9.776400 0.000000
9.793700 0.000000
9.811100 0.000000
9.828400 0.000000
9.845700 0.000000
9.863000 0.000000
9.880400 0.000000
9.897700 0.000000
9.915000 0.000000
9.932300 0.304600
9.949700 0.313100
9.967000 0.321600
9.984300 0.330200
10.001600 0.338700
10.019000 0.611300
10.036300 0.628700
10.053600 0.646100
10.070900 0.663500
10.088300 0.680900
10.105600 0.698300
10.122900 0.715700
10.140200 0.733100
10.157600 1.036400
10.174900 1.063500
10.192200 1.090600
10.209500 1.117700
10.226900 1.144900
10.244200 1.392600
10.261500 1.429400
10.278800 1.466100
10.296200 1.502900
10.313500 1.539600
10.330800 1.576400
10.348100 1.613100
10.365500 1.649900
10.382800 1.686600
10.400100 1.723400
10.417400 1.760400
10.434800 1.802700
10.452100 1.845000
10.469400 1.887300
10.486700 1.929600
10.504100 1.972000
10.521400 2.014300
10.538700 2.056600
10.556000 2.098900
10.573400 2.141200
10.590700 2.185600
10.608000 2.231800
10.625300 2.278100
10.642600 2.324300
10.660000 2.370500
10.677300 2.417100
10.694600 2.468600
10.711900 2.504500
10.729300 2.537500
10.746600 2.562500
10.763900 2.585300
10.781200 2.608100
10.798600 2.631000
10.815900 2.654000
10.833200 2.684700
10.850500 2.707100
10.867900 2.725600
10.885200 2.744200
10.902500 2.757600
10.919800 2.965000
10.937200 2.991500
10.954500 3.018400
10.971800 3.045800
10.989100 3.074800
11.006500 3.103800
11.023800 3.132800
11.041100 3.370200
11.058400 3.412200
11.075800 3.455000
11.093100 3.497900
11.110400 3.540800
11.127700 3.583600
11.145100 3.626500
11.162400 3.669400
11.179700 3.712300
11.197000 5.658500
11.214400 5.442300
11.231700 5.226100
11.249000 5.009900
11.266300 4.795200
11.283700 4.580600
11.301000 4.366000
11.318300 4.151500
11.335600 4.025200
11.353000 4.057700
11.370300 4.277000
11.387600 4.322200
11.404900 4.367400
11.422300 4.405600
11.439600 6.575500
11.456900 7.976500
11.474200 7.515200
11.491600 7.053900
11.508900 6.592600
11.526200 6.131200
11.543500 5.669900
11.560900 5.213600
11.578200 5.046600
11.595500 4.874700
11.612800 4.702800
11.630200 4.616100
11.647500 4.617100
11.664800 4.618100
11.682100 4.879300
11.699500 4.922800
11.716800 4.972600
11.734100 5.022400
11.751400 5.072200
11.768800 5.139500
11.786100 5.210500
11.803400 5.281400
11.820700 16.884400
11.838100 5.614600
11.855400 5.653000
11.872700 5.725600
11.890000 6.058400
11.907400 6.391300
11.924700 6.724400
11.942000 7.059000
11.959300 7.393200
11.976700 6.145200
11.994000 6.260600
12.011300 6.399500
12.028600 6.538300
12.046000 6.764400
12.063300 6.982700
12.080600 7.201000
12.097900 7.259900
12.115300 7.485900
12.132600 7.711800
12.149900 7.937800
12.167200 10.054800
12.184600 9.118900
12.201900 8.576200
12.219200 8.028200
12.236500 8.198100
12.253900 8.370400
12.271200 8.909900
12.288500 9.162700
12.305800 9.415500
12.323200 9.254600
12.340500 9.564000
12.357800 8.172200
12.375100 7.917900
12.392500 7.853300
12.409800 7.789100
12.427100 7.725000
12.444400 7.660900
12.461800 7.596800
12.479100 7.535200
12.496400 7.495100
12.513700 7.455000
12.531100 7.414900
12.548400 7.417900
12.565700 7.563500
12.583000 7.962400
12.600400 20.324700
12.617700 8.938800
12.635000 8.908400
12.652300 9.198100
12.669600 8.127000
12.687000 7.981800
12.704300 7.836500
12.721600 8.023400
12.738900 7.901200
12.756300 7.827600
12.773600 7.786100
12.790900 7.774300
12.808200 7.762500
12.825600 7.750700
12.842900 7.795100
12.860200 7.845900
12.877500 7.896600
12.894900 7.947300
12.912200 7.812700
12.929500 8.120700
12.946800 8.257600
12.964200 8.394500
12.981500 8.531400
12.998800 8.770100
13.016100 9.385800
13.033500 10.001500
13.050800 10.876400
13.068100 11.604600
13.085400 12.438400
13.102800 13.377000
13.120100 8.253200
13.137400 8.379800
13.154700 8.506400
13.172100 8.942200
13.189400 9.128500
13.206700 9.333900
13.224000 9.541500
13.241400 9.746000
13.258700 9.950400
13.276000 11.228000
13.293300 12.883600
13.310700 10.895000
13.328000 12.176300
13.345300 13.412100
13.362600 14.331000
13.380000 10.147000
13.397300 10.608900
13.414600 10.631600
13.431900 10.756300
13.449300 10.924700
13.466600 11.093200
13.483900 11.205600
13.501200 11.307700
13.518600 10.702900
13.535900 10.825400
13.553200 11.011300
13.570500 11.267300
13.587900 11.566500
13.605200 11.768300
13.622500 9.949800
13.639800 9.876900
13.657200 9.876900
13.674500 10.534900
13.691800 10.867700
13.709100 14.112800
13.726500 17.468400
13.743800 10.638500
13.761100 11.252800
13.778400 11.951000
13.795800 12.706300
13.813100 12.108300
13.830400 10.645400
13.847700 11.978400
13.865100 13.208700
13.882400 13.344300
13.899700 13.545700
13.917000 12.523200
13.934400 12.546200
13.951700 11.223400
13.969000 11.028000
13.986300 10.924500
14.003700 10.971200
14.021000 11.017900
14.038300 11.064600
14.055600 11.648900
14.073000 12.957400
14.090300 12.513300
14.107600 8.703500
14.124900 8.432800
14.142300 8.162200
14.159600 7.945000
14.176900 7.766800
14.194200 8.638000
14.211600 8.554600
14.228900 9.748600
14.246200 10.413800
14.263500 11.070600
14.280900 11.169700
14.298200 12.542200
14.315500 12.501600
14.332800 11.994300
14.350200 11.836800
14.367500 11.679300
14.384800 11.521800
14.402100 11.364300
14.419500 11.206800
14.436800 9.919900
14.454100 10.863900
14.471400 12.059600
14.488800 12.824000
14.506100 13.589400
14.523400 8.526400
14.540700 8.180000
14.558100 7.915100
14.575400 13.654500
14.592700 7.595900
14.610000 7.617200
14.627300 10.921600
14.644700 15.188200
14.662000 12.314700
14.679300 11.930000
14.696600 11.545300
14.714000 11.199900
14.731300 10.871900
14.748600 10.544000
14.765900 10.833100
14.783300 11.161300
14.800600 16.393500
14.817900 13.532400
14.835200 10.029600
14.852600 10.625100
14.869900 20.248300
14.887200 14.830000
14.904500 10.433000
14.921900 12.861200
14.939200 12.282500
14.956500 11.836800
14.973800 11.407600
14.991200 10.323200
15.008500 9.172700
15.025800 8.478400
15.043100 8.760800
15.060500 9.627800
15.077800 10.598100
15.095100 10.710700
15.112400 10.753100
15.129800 10.795500
15.147100 14.521200
15.164400 14.583600
15.181700 13.664300
15.199100 13.763600
15.216400 14.952700
15.233700 16.083600
15.251000 19.102100
15.268400 17.428400
15.285700 19.002600
15.303000 18.678900
15.320300 16.834100
15.337700 17.165500
15.355000 20.440000
15.372300 17.676300
15.389600 20.717300
15.407000 20.420200
15.424300 22.847300
15.441600 21.153800
15.458900 21.334900
15.476300 20.272200
15.493600 22.341300
15.510900 24.316700
15.528200 20.824500
15.545600 20.350600
15.562900 19.098800
15.580200 18.990900
15.597500 19.014300
15.614900 18.934400
15.632200 19.013500
15.649500 18.775900
15.666800 18.882600
15.684200 18.593500
15.701500 18.409300
15.718800 18.283700
15.736100 19.437200
15.753500 18.759000
15.770800 18.471700
15.788100 17.897900
15.805400 16.270600
15.822800 14.879800
15.840100 13.126600
15.857400 12.226000
15.874700 12.408400
15.892100 26.796900
15.909400 16.844500
15.926700 16.275100
15.944000 15.892600
15.961400 15.167600
15.978700 15.018900
15.996000 15.402000
16.013300 15.874100
16.030700 20.893300
16.048000 16.417500
16.065300 15.887200
16.082600 15.707600
16.100000 15.651900
16.117300 14.714800
16.134600 14.181600
16.151900 14.267600
16.169300 14.463900
16.186600 14.660200
16.203900 14.890100
16.221200 15.170400
16.238600 15.586400
16.255900 16.225700
16.273200 16.336800
16.290500 17.121700
16.307900 17.336400
16.325200 17.896000
16.342500 18.284800
16.359800 18.564400
16.377200 18.340300
16.394500 19.400800
16.411800 23.038900
16.429100 21.688100
16.446500 20.060500
16.463800 18.959600
16.481100 18.556700
16.498400 18.066000
16.515800 16.492500
16.533100 15.279300
16.550400 14.898100
16.567700 14.526500
16.585100 14.171700
16.602400 13.944500
16.619700 13.717400
16.637000 13.678700
16.654300 13.746100
16.671700 13.898100
16.689000 13.874500
16.706300 13.884800
16.723600 12.543000
16.741000 12.595100
16.758300 12.512100
16.775600 12.560500
16.792900 12.609000
16.810300 12.661500
16.827600 12.714100
16.844900 12.766600
16.862200 12.949000
16.879600 13.074700
16.896900 13.140800
16.914200 13.187300
16.931500 12.943600
16.948900 11.944600
16.966200 11.887300
16.983500 11.830100
17.000800 11.419400
17.018200 11.520700
17.035500 11.622100
17.052800 11.727300
17.070100 11.848800
17.087500 12.702800
17.104800 12.719900
17.122100 12.268700
17.139400 12.745900
17.156800 12.753500
17.174100 12.781800
17.191400 12.830400
17.208700 12.878900
17.226100 12.719000
17.243400 12.586800
17.260700 12.454600
17.278000 12.293600
17.295400 13.369600
17.312700 12.991200
17.330000 16.097400
17.347300 14.402500
17.364700 12.566100
17.382000 12.536900
17.399300 13.481400
17.416600 13.581700
17.434000 13.667700
17.451300 13.750200
17.468600 13.832800
17.485900 18.863900
17.503300 15.590700
17.520600 14.277000
17.537900 13.976100
17.555200 12.274500
17.572600 12.368600
17.589900 14.851300
17.607200 17.028500
17.624500 17.321800
17.641900 16.858600
17.659200 17.942900
17.676500 12.435200
17.693800 12.401200
17.711200 12.367100
17.728500 12.333000
17.745800 12.332200
17.763100 20.635900
17.780500 11.369400
17.797800 11.575600
17.815100 13.821400
17.832400 14.959700
17.849800 12.582500
17.867100 15.351600
17.884400 12.518200
17.901700 12.514000
17.919100 12.480800
17.936400 13.143300
17.953700 18.038800
17.971000 13.981800
17.988400 13.600700
18.005700 15.319900
18.023000 14.843200
18.040300 14.369200
18.057700 13.896100
18.075000 13.423000
18.092300 13.234200
18.109600 18.195100
18.127000 15.326700
18.144300 15.882500
18.161600 15.313600
18.178900 15.626300
18.196300 15.518600
18.213600 13.244300
18.230900 12.767800
18.248200 13.492800
18.265600 13.240000
18.282900 14.028100
18.300200 13.650000
18.317500 13.284100
18.334900 12.918300
18.352200 12.708200
18.369500 14.857500
18.386800 14.125800
18.404200 13.683300
18.421500 13.247500
18.438800 13.493600
18.456100 17.692800
18.473500 16.809800
18.490800 18.330500
18.508100 18.195000
18.525400 17.105600
18.542800 15.822600
18.560100 21.660500
18.577400 14.941200
18.594700 12.020900
18.612000 11.127200
18.629400 11.127600
18.646700 14.425900
18.664000 14.477200
18.681300 18.537500
18.698700 12.930700
18.716000 12.777400
18.733300 12.118600
18.750600 11.610100
18.768000 17.209500
18.785300 13.403100
18.802600 12.114900
18.819900 11.019400
18.837300 11.087900
18.854600 11.056300
18.871900 14.482400
18.889200 13.985200
18.906600 13.081700
18.923900 16.160500
18.941200 9.065900
18.958500 9.686500
18.975900 10.480400
18.993200 10.311000
19.010500 12.510000
19.027800 11.654900
19.045200 10.799800
19.062500 19.578200
19.079800 11.928900
19.097100 9.324300
19.114500 8.625000
19.131800 8.680700
19.149100 9.683700
19.166400 11.442900
19.183800 8.995500
19.201100 9.302300
19.218400 11.303500
19.235700 14.531700
19.253100 16.638900
19.270400 10.352000
19.287700 10.641500
19.305000 11.263600
19.322400 12.656200
19.339700 13.800300
19.357000 14.455100
19.374300 12.074600
19.391700 12.361300
19.409000 13.355300
19.426300 14.349300
19.443600 14.982200
19.461000 14.032100
19.478300 14.482800
19.495600 12.001100
19.512900 11.134700
19.530300 10.268400
19.547600 9.657400
19.564900 9.380500
19.582200 9.102000
19.599600 8.838600
19.616900 9.486100
19.634200 9.955400
19.651500 10.793700
19.668900 11.632100
19.686200 9.485400
19.703500 9.435700
19.720800 9.385900
19.738200 9.336200
19.755500 9.627200
19.772800 10.976000
19.790100 17.733800
19.807500 21.511500
19.824800 11.158900
19.842100 9.909800
19.859400 9.931000
19.876800 9.952300
19.894100 9.973500
19.911400 16.134100
19.928700 10.051400
19.946100 10.416000
19.963400 10.976000
19.980700 11.457500
19.998000 11.956800
20.015400 13.027500
20.032700 14.471000
20.050000 15.914600
20.067300 15.311400
20.084700 14.509300
20.102000 11.418800
20.119300 10.388800
20.136600 9.975300
20.154000 9.952800
20.171300 11.369400
20.188600 11.315200
20.205900 11.260900
20.223300 11.206700
20.240600 11.147600
20.257900 11.086100
20.275200 11.024700
20.292600 10.960700
20.309900 10.897100
20.327200 11.030400
20.344500 11.657600
20.361900 12.341800
20.379200 9.915100
20.396500 10.013100
20.413800 10.125200
20.431200 11.338700
20.448500 11.584800
20.465800 11.186900
20.483100 11.574000
20.500500 11.981300
20.517800 12.415600
20.535100 12.605200
20.552400 12.632800
20.569800 12.674100
20.587100 12.876600
20.604400 11.291800
20.621700 11.365600
20.639000 11.074600
20.656400 11.345500
20.673700 11.623500
20.691000 11.915400
20.708300 12.045000
20.725700 12.156300
20.743000 12.451400
20.760300 11.502500
20.777600 11.557400
20.795000 11.713400
20.812300 11.781600
20.829600 11.974500
20.846900 12.298800
20.864300 12.619500
20.881600 12.973500
20.898900 13.237900
20.916200 11.187100
20.933600 11.210200
20.950900 11.247000
20.968200 12.667500
20.985500 14.611200
21.002900 16.582200
21.020200 18.553200
21.037500 17.153600
21.054800 14.367500
21.072200 17.993700
21.089500 17.619900
21.106800 13.027100
21.124100 12.788100
21.141500 12.815200
21.158800 17.291300
21.176100 17.594300
21.193400 17.939500
21.210800 18.807400
21.228100 17.890400
21.245400 18.401200
21.262700 19.223500
21.280100 19.900400
21.297400 18.225600
21.314700 16.863900
21.332000 20.400600
21.349400 14.734100
21.366700 14.667900
21.384000 14.615300
21.401300 14.562700
21.418700 14.505900
21.436000 14.452600
21.453300 17.439500
21.470600 17.070100
21.488000 19.389900
21.505300 18.762900
21.522600 17.674000
21.539900 17.097800
21.557300 15.897000
21.574600 15.665800
21.591900 15.654100
21.609200 15.642400
21.626600 15.828900
21.643900 13.619600
21.661200 14.938800
21.678500 13.205600
21.695900 13.100000
21.713200 12.859900
21.730500 12.580800
21.747800 12.326800
21.765200 12.081400
21.782500 11.837700
21.799800 13.397900
21.817100 14.464600
21.834500 11.698100
21.851800 11.192600
21.869100 11.214700
21.886400 11.993000
21.903800 13.031100
21.921100 13.302100
21.938400 13.870600
21.955700 13.757300
21.973100 12.629900
21.990400 9.743900
22.007700 9.774900
22.025000 9.235000
22.042400 11.152300
22.059700 12.203600
22.077000 8.140400
22.094300 7.651400
22.111700 7.162500
22.129000 8.264900
22.146300 8.634500
22.163600 7.620300
22.181000 6.773600
22.198300 5.446400
22.215600 5.208000
22.232900 4.140500
22.250300 3.943600
22.267600 3.804100
22.284900 3.714600
22.302200 3.650600
22.319600 3.599100
22.336900 3.547700
22.354200 3.522400
22.371500 3.509400
22.388900 3.514000
22.406200 3.524600
22.423500 3.535300
22.440800 3.545900
22.458200 3.556600
22.475500 3.567200
22.492800 3.577900
22.510100 3.591500
22.527500 3.607000
22.544800 3.620100
22.562100 3.629800
22.579400 3.637700
22.596700 3.645600
22.614100 3.614600
22.631400 3.453500
22.648700 3.434800
22.666000 3.440200
22.683400 3.449900
22.700700 3.455700
22.718000 3.388000
22.735300 3.304300
22.752700 3.294300
22.770000 3.303700
22.787300 3.328900
22.804600 3.115400
22.822000 3.157100
22.839300 2.740500
22.856600 2.786000
22.873900 2.831400
22.891300 2.876800
22.908600 2.922200
22.925900 2.967700
22.943200 3.013100
22.960600 3.058500
22.977900 3.103900
22.995200 2.370300
23.012500 2.378600
23.029900 2.386900
23.047200 2.395300
23.064500 2.403600
23.081800 2.411900
23.099200 2.420300
23.116500 2.428600
23.133800 2.436900
23.151100 2.445300
23.168500 2.453600
23.185800 2.461900
23.203100 2.470200
23.220400 2.531100
23.237800 2.568000
23.255100 2.582600
23.272400 2.597300
23.289700 2.612000
23.307100 2.626700
23.324400 2.641400
23.341700 2.656100
23.359000 2.672000
23.376400 2.695200
23.393700 2.724900
23.411000 2.760200
23.428300 2.795500
23.445700 2.830800
23.463000 2.866200
23.480300 2.901500
23.497600 2.936800
23.515000 2.972100
23.532300 2.999500
23.549600 2.964700
23.566900 2.906500
23.584300 2.844800
23.601600 2.783000
23.618900 2.721300
23.636200 2.659600
23.653600 2.614300
23.670900 2.618600
23.688200 2.651200
23.705500 2.693500
23.722900 2.742400
23.740200 2.798200
23.757500 2.601900
23.774800 2.518200
23.792200 2.177900
23.809500 2.201700
23.826800 2.118900
23.844100 1.766500
23.861500 1.598500
23.878800 1.599100
23.896100 1.641000
23.913400 1.683000
23.930800 1.724900
23.948100 1.766800
23.965400 1.808700
23.982700 1.850700
24.000100 1.703600
24.017400 1.576300
24.034700 1.450400
24.052000 1.476300
24.069400 1.504400
24.086700 1.440300
24.104000 1.727600
24.121300 0.882400
24.138700 0.951400
24.156000 0.432300
24.173300 0.000000
24.190600 0.000000
24.208000 0.000000
24.225300 0.000000
24.242600 0.000000
24.259900 0.000000
24.277300 0.000000
24.294600 0.000000
24.311900 0.000000
24.329200 0.000000
24.346600 0.000000
24.363900 0.000000
24.381200 0.000000
24.398500 0.000000
24.415900 0.000000
24.433200 0.000000
24.450500 0.000000
24.467800 0.000000
24.485200 0.000000
24.502500 0.000000
24.519800 0.000000
24.537100 0.000000
24.554500 0.000000
24.571800 0.000000
24.589100 0.000000
24.606400 0.000000
24.623700 0.000000
24.641100 0.000000
24.658400 0.000000
24.675700 0.000000
24.693000 0.000000
24.710400 0.000000
24.727700 0.000000
24.745000 0.000000
24.762300 0.000000
24.779700 0.000000
24.797000 0.000000
24.814300 0.000000
24.831600 0.000000
24.849000 0.000000
24.866300 0.000000
24.883600 0.000000
24.900900 0.000000
24.918300 0.000000
24.935600 0.000000
24.952900 0.000000
24.970200 0.000000
24.987600 0.000000
25.004900 0.000000
25.022200 0.000000
25.039500 0.000000
25.056900 0.000000
25.074200 0.000000
25.091500 0.000000
25.108800 0.000000
25.126200 0.000000
25.143500 0.000000
25.160800 0.000000
25.178100 0.000000
25.195500 0.000000
25.212800 0.000000
25.230100 0.000000
25.247400 0.000000
25.264800 0.000000
25.282100 0.000000
25.299400 0.000000
25.316700 0.000000
25.334100 0.000000
25.351400 0.000000
25.368700 0.000000
25.386000 0.000000
25.403400 0.000000
25.420700 0.000000
25.438000 0.000000
25.455300 0.000000
25.472700 0.000000
25.490000 0.000000
25.507300 0.000000
25.524600 0.000000
25.542000 0.000000
25.559300 0.000000
25.576600 0.000000
25.593900 0.000000
25.611300 0.000000
25.628600 0.000000
25.645900 0.000000
25.663200 0.000000
25.680600 0.000000
25.697900 0.000000
25.715200 0.000000
25.732500 0.000000
e
