set title 'mp-1841 - Density of States'
set xlabel 'Energy (eV)'
set ylabel 'DOS (states/eV)'
set grid
set xrange [-10:10]
set yrange [0:18.561]
set xzeroaxis lt -1
set terminal png size 800,600
set output 'mp-1841_dos_gnuplot.png'
plot '-' using 1:2 with lines title 'DOS'
-3.277900 0.000000
-3.265300 0.000000
-3.252700 0.000000
-3.240100 0.000000
-3.227500 0.000000
-3.214800 0.000000
-3.202200 0.000000
-3.189600 0.000000
-3.177000 0.000000
-3.164400 0.000000
-3.151800 0.000000
-3.139200 0.000000
-3.126600 0.000000
-3.114000 0.000000
-3.101400 0.000000
-3.088800 0.000000
-3.076200 0.000000
-3.063600 0.000000
-3.051000 0.000000
-3.038300 0.000000
-3.025700 0.000000
-3.013100 0.000000
-3.000500 0.000000
-2.987900 0.000000
-2.975300 0.000000
-2.962700 0.000000
-2.950100 0.000000
-2.937500 0.000000
-2.924900 0.000000
-2.912300 0.000000
-2.899700 0.000000
-2.887100 0.000000
-2.874500 0.000000
-2.861800 0.000000
-2.849200 0.000000
-2.836600 0.000000
-2.824000 0.000000
-2.811400 0.000000
-2.798800 0.000000
-2.786200 0.000000
-2.773600 0.000000
-2.761000 0.000000
-2.748400 0.000000
-2.735800 0.000000
-2.723200 0.000000
-2.710600 0.000000
-2.698000 0.000000
-2.685300 0.000000
-2.672700 0.000000
-2.660100 0.000000
-2.647500 0.000000
-2.634900 0.000000
-2.622300 0.000000
-2.609700 0.000000
-2.597100 0.000000
-2.584500 0.000000
-2.571900 0.000000
-2.559300 0.000000
-2.546700 0.000000
-2.534100 0.000000
-2.521500 0.000000
-2.508800 0.000000
-2.496200 0.000000
-2.483600 0.000000
-2.471000 0.000000
-2.458400 0.000000
-2.445800 0.000000
-2.433200 0.000000
-2.420600 0.000000
-2.408000 0.000000
-2.395400 0.000000
-2.382800 0.000000
-2.370200 0.000000
-2.357600 0.000000
-2.345000 0.000000
-2.332300 0.000000
-2.319700 0.000000
-2.307100 0.000000
-2.294500 0.000000
-2.281900 0.000000
-2.269300 0.000000
-2.256700 0.000000
-2.244100 0.000000
-2.231500 0.000000
-2.218900 0.000000
-2.206300 0.000000
-2.193700 0.000000
-2.181100 0.000000
-2.168500 0.000000
-2.155800 0.000000
-2.143200 0.000000
-2.130600 0.000100
-2.118000 0.007400
-2.105400 0.027100
-2.092800 0.059200
-2.080200 0.103600
-2.067600 0.151600
-2.055000 0.133300
-2.042400 0.144400
-2.029800 0.157300
-2.017200 0.171800
-2.004600 0.187900
-1.992000 0.205500
-1.979300 0.224600
-1.966700 0.240500
-1.954100 0.250900
-1.941500 0.255800
-1.928900 0.256200
-1.916300 0.263600
-1.903700 0.270200
-1.891100 0.278500
-1.878500 0.287400
-1.865900 0.296600
-1.853300 0.305900
-1.840700 0.315400
-1.828100 0.325100
-1.815500 0.335400
-1.802800 0.346200
-1.790200 0.357700
-1.777600 0.367500
-1.765000 0.371000
-1.752400 0.376700
-1.739800 0.382900
-1.727200 0.388900
-1.714600 0.394800
-1.702000 0.400300
-1.689400 0.405700
-1.676800 0.411200
-1.664200 0.416800
-1.651600 0.422900
-1.639000 0.430500
-1.626300 0.438900
-1.613700 0.446800
-1.601100 0.454900
-1.588500 0.463100
-1.575900 0.471500
-1.563300 0.479900
-1.550700 0.488500
-1.538100 0.496700
-1.525500 0.503800
-1.512900 0.509200
-1.500300 0.513400
-1.487700 0.517700
-1.475100 0.522400
-1.462500 0.527600
-1.449800 0.533200
-1.437200 0.539300
-1.424600 0.545600
-1.412000 0.552200
-1.399400 0.558700
-1.386800 0.565200
-1.374200 0.571700
-1.361600 0.578200
-1.349000 0.584800
-1.336400 0.591400
-1.323800 0.598200
-1.311200 0.605100
-1.298600 0.612100
-1.286000 0.619200
-1.273300 0.626400
-1.260700 0.633600
-1.248100 0.640900
-1.235500 0.648100
-1.222900 0.656100
-1.210300 0.662600
-1.197700 0.668500
-1.185100 0.674300
-1.172500 0.680200
-1.159900 0.686100
-1.147300 0.692000
-1.134700 0.698100
-1.122100 0.704500
-1.109400 0.711000
-1.096800 0.717600
-1.084200 0.724200
-1.071600 0.730800
-1.059000 0.737500
-1.046400 0.744300
-1.033800 0.751100
-1.021200 0.758000
-1.008600 0.764800
-0.996000 0.771900
-0.983400 0.779300
-0.970800 0.787000
-0.958200 0.795000
-0.945600 0.803200
-0.932900 0.811300
-0.920300 0.819600
-0.907700 0.827800
-0.895100 0.836000
-0.882500 0.844100
-0.869900 0.851900
-0.857300 0.859800
-0.844700 0.867500
-0.832100 0.874700
-0.819500 0.882100
-0.806900 0.889600
-0.794300 0.897200
-0.781700 0.904800
-0.769100 0.912500
-0.756400 0.920200
-0.743800 0.928100
-0.731200 0.936200
-0.718600 0.946400
-0.706000 0.955500
-0.693400 0.964700
-0.680800 0.974100
-0.668200 0.983700
-0.655600 0.993600
-0.643000 1.003700
-0.630400 1.014100
-0.617800 1.024700
-0.605200 1.035400
-0.592600 1.046100
-0.579900 1.057000
-0.567300 1.068200
-0.554700 1.079900
-0.542100 1.092400
-0.529500 1.105700
-0.516900 1.120000
-0.504300 1.135300
-0.491700 1.151600
-0.479100 1.169100
-0.466500 1.188100
-0.453900 1.208700
-0.441300 1.227600
-0.428700 1.249600
-0.416100 1.274500
-0.403400 1.299800
-0.390800 1.325900
-0.378200 1.355800
-0.365600 1.389900
-0.353000 1.423800
-0.340400 1.455500
-0.327800 1.496900
-0.315200 1.513500
-0.302600 1.510300
-0.290000 1.489900
-0.277400 1.460100
-0.264800 1.445100
-0.252200 1.449800
-0.239600 1.451600
-0.226900 1.436500
-0.214300 1.443500
-0.201700 1.452300
-0.189100 1.463200
-0.176500 1.484400
-0.163900 1.521500
-0.151300 1.527200
-0.138700 1.545900
-0.126100 1.595700
-0.113500 1.631000
-0.100900 1.641700
-0.088300 1.654100
-0.075700 1.740500
-0.063100 1.792300
-0.050400 1.827100
-0.037800 1.911000
-0.025200 1.975300
-0.012600 2.028900
-0.000000 2.147900
0.012600 2.155300
0.025200 2.176900
0.037800 2.177900
0.050400 2.185600
0.063000 2.211800
0.075600 2.232700
0.088200 2.301500
0.100800 2.792200
0.113400 2.324000
0.126100 2.353500
0.138700 2.339000
0.151300 2.357100
0.163900 2.321600
0.176500 2.242500
0.189100 2.138300
0.201700 2.181100
0.214300 2.359600
0.226900 2.347000
0.239500 2.624400
0.252100 2.834000
0.264700 2.856700
0.277300 3.058600
0.289900 3.361300
0.302600 3.684800
0.315200 4.322100
0.327800 4.591500
0.340400 4.701800
0.353000 5.109900
0.365600 5.740200
0.378200 6.420600
0.390800 6.424300
0.403400 6.357700
0.416000 6.263800
0.428600 6.080000
0.441200 5.268200
0.453800 4.786600
0.466400 4.401900
0.479100 4.093000
0.491700 3.750800
0.504300 3.251400
0.516900 2.919100
0.529500 2.696300
0.542100 2.504900
0.554700 2.335400
0.567300 2.178600
0.579900 2.047800
0.592500 1.914300
0.605100 1.818800
0.617700 1.682300
0.630300 1.560400
0.642900 1.452800
0.655600 1.338000
0.668200 1.233100
0.680800 1.244300
0.693400 0.988700
0.706000 0.879600
0.718600 0.812400
0.731200 0.771000
0.743800 0.729100
0.756400 0.676700
0.769000 0.640600
0.781600 0.603600
0.794200 0.567300
0.806800 0.529200
0.819400 0.493900
0.832100 0.462200
0.844700 0.435000
0.857300 0.398700
0.869900 0.369000
0.882500 0.361800
0.895100 0.276900
0.907700 0.230600
0.920300 0.190300
0.932900 0.180100
0.945500 0.167700
0.958100 0.013300
0.970700 0.000000
0.983300 0.000000
0.995900 0.000000
1.008600 0.000000
1.021200 0.000000
1.033800 0.000000
1.046400 0.000000
1.059000 0.000000
1.071600 0.000000
1.084200 0.000000
1.096800 0.000000
1.109400 0.000000
1.122000 0.000000
1.134600 0.000000
1.147200 0.000000
1.159800 0.000200
1.172400 0.001700
1.185100 0.004500
1.197700 0.008600
1.210300 0.014100
1.222900 0.020900
1.235500 0.032700
1.248100 0.052400
1.260700 0.080000
1.273300 0.106900
1.285900 0.096200
1.298500 0.091900
1.311100 0.096900
1.323700 0.102100
1.336300 0.107500
1.348900 0.113200
1.361600 0.119000
1.374200 0.125100
1.386800 0.131300
1.399400 0.137600
1.412000 0.179300
1.424600 0.182300
1.437200 0.175800
1.449800 0.179300
1.462400 0.183100
1.475000 0.187000
1.487600 0.191200
1.500200 0.195600
1.512800 0.200200
1.525400 0.204900
1.538100 0.209800
1.550700 0.214900
1.563300 0.220400
1.575900 0.226300
1.588500 0.232400
1.601100 0.238700
1.613700 0.245100
1.626300 0.251600
1.638900 0.258300
1.651500 0.265200
1.664100 0.283800
1.676700 0.294000
1.689300 0.299600
1.701900 0.304700
1.714600 0.309300
1.727200 0.313600
1.739800 0.317800
1.752400 0.322600
1.765000 0.327800
1.777600 0.333300
1.790200 0.339100
1.802800 0.347200
1.815400 0.403100
1.828000 0.433800
1.840600 0.472000
1.853200 0.515900
1.865800 0.557800
1.878400 0.567600
1.891100 0.598300
1.903700 0.628900
1.916300 0.653200
1.928900 0.680000
1.941500 0.735300
1.954100 0.752200
1.966700 0.773400
1.979300 0.799500
1.991900 0.831600
2.004500 0.858300
2.017100 0.885000
2.029700 0.910300
2.042300 0.937900
2.054900 0.967200
2.067600 0.997100
2.080200 1.030000
2.092800 1.069400
2.105400 1.136500
2.118000 1.227500
2.130600 1.208500
2.143200 1.224700
2.155800 1.253700
2.168400 1.265800
2.181000 1.272200
2.193600 1.281000
2.206200 1.294800
2.218800 1.315200
2.231400 1.344800
2.244100 1.384000
2.256700 1.413400
2.269300 1.435000
2.281900 1.458600
2.294500 1.488900
2.307100 1.524200
2.319700 1.563200
2.332300 1.617100
2.344900 1.678700
2.357500 1.748200
2.370100 1.819300
2.382700 1.883100
2.395300 1.945300
2.407900 2.017900
2.420600 2.123700
2.433200 2.211000
2.445800 2.290600
2.458400 2.371800
2.471000 2.465100
2.483600 2.574400
2.496200 2.693200
2.508800 2.815200
2.521400 2.951200
2.534000 3.107500
2.546600 3.287600
2.559200 3.470100
2.571800 3.720600
2.584400 4.057800
2.597100 4.421200
2.609700 4.898200
2.622300 5.534200
2.634900 6.611700
2.647500 7.225000
2.660100 6.667600
2.672700 6.209900
2.685300 5.768100
2.697900 5.262300
2.710500 4.982500
2.723100 4.708600
2.735700 4.736500
2.748300 5.035200
2.760900 5.341100
2.773600 5.394100
2.786200 5.370900
2.798800 5.284800
2.811400 5.206900
2.824000 5.124800
2.836600 5.080200
2.849200 5.556100
2.861800 5.452100
2.874400 5.468100
2.887000 5.348700
2.899600 5.052600
2.912200 4.679600
2.924800 4.267600
2.937400 4.074600
2.950100 3.788500
2.962700 3.714600
2.975300 3.777800
2.987900 3.847100
3.000500 3.979000
3.013100 4.215100
3.025700 4.404500
3.038300 4.475200
3.050900 4.573500
3.063500 4.722300
3.076100 4.908800
3.088700 5.036300
3.101300 5.078300
3.113900 5.124200
3.126600 5.271400
3.139200 5.416200
3.151800 5.508900
3.164400 5.432800
3.177000 5.074100
3.189600 4.878300
3.202200 4.705700
3.214800 4.710300
3.227400 4.782300
3.240000 4.669700
3.252600 4.781600
3.265200 4.968300
3.277800 5.066200
3.290400 5.087700
3.303100 5.178600
3.315700 5.578100
3.328300 6.088900
3.340900 6.236100
3.353500 6.579000
3.366100 6.939800
3.378700 6.538400
3.391300 6.269800
3.403900 5.698400
3.416500 5.186000
3.429100 4.963800
3.441700 4.492000
3.454300 4.363800
3.466900 4.099200
3.479600 4.064700
3.492200 3.815700
3.504800 3.212600
3.517400 2.963500
3.530000 2.785300
3.542600 2.596400
3.555200 2.466300
3.567800 2.426000
3.580400 2.425400
3.593000 2.505700
3.605600 2.648000
3.618200 2.850900
3.630800 3.094300
3.643400 3.415400
3.656100 3.799700
3.668700 4.375500
3.681300 5.046300
3.693900 5.924700
3.706500 6.761300
3.719100 7.594500
3.731700 7.450900
3.744300 7.379900
3.756900 7.551200
3.769500 8.008500
3.782100 7.941000
3.794700 7.616800
3.807300 5.627800
3.819900 3.760200
3.832600 3.503500
3.845200 3.622800
3.857800 4.464600
3.870400 4.466000
3.883000 4.527000
3.895600 5.027000
3.908200 5.649700
3.920800 6.214200
3.933400 6.452400
3.946000 6.525100
3.958600 6.510500
3.971200 6.748100
3.983800 6.956400
3.996400 7.316600
4.009100 7.885600
4.021700 8.501600
4.034300 8.692500
4.046900 8.774300
4.059500 9.159700
4.072100 9.749900
4.084700 11.099800
4.097300 11.375000
4.109900 11.063000
4.122500 10.825000
4.135100 10.802500
4.147700 9.474700
4.160300 8.178000
4.172900 7.413800
4.185600 6.773800
4.198200 6.313900
4.210800 5.909000
4.223400 5.670100
4.236000 5.347000
4.248600 5.374100
4.261200 5.436600
4.273800 5.324000
4.286400 5.339400
4.299000 5.361800
4.311600 5.537000
4.324200 5.606500
4.336800 5.721900
4.349400 6.107900
4.362100 6.809200
4.374700 6.403400
4.387300 5.826400
4.399900 5.567100
4.412500 5.367900
4.425100 4.987000
4.437700 4.641200
4.450300 4.577400
4.462900 4.572800
4.475500 4.734100
4.488100 4.876000
4.500700 5.141800
4.513300 5.376800
4.525900 5.579500
4.538600 5.857800
4.551200 6.374500
4.563800 7.427100
4.576400 7.655300
4.589000 8.590700
4.601600 9.285200
4.614200 9.801900
4.626800 10.573900
4.639400 11.225800
4.652000 11.269200
4.664600 11.058100
4.677200 11.049200
4.689800 10.041800
4.702400 8.941900
4.715100 7.853800
4.727700 7.284800
4.740300 7.183400
4.752900 7.273600
4.765500 6.985900
4.778100 7.270900
4.790700 7.599200
4.803300 7.910800
4.815900 8.314600
4.828500 9.002700
4.841100 10.270800
4.853700 9.654500
4.866300 8.267400
4.878900 7.689400
4.891600 7.009500
4.904200 6.183300
4.916800 5.708600
4.929400 5.377300
4.942000 5.158500
4.954600 5.024300
4.967200 5.037300
4.979800 5.252000
4.992400 5.334500
5.005000 5.354700
5.017600 5.573000
5.030200 6.144000
5.042800 5.888500
5.055400 6.101600
5.068100 6.252200
5.080700 6.234000
5.093300 5.996800
5.105900 5.888500
5.118500 5.727400
5.131100 5.786200
5.143700 6.175300
5.156300 6.530000
5.168900 6.945800
5.181500 7.364200
5.194100 7.711500
5.206700 7.966700
5.219300 7.850600
5.231900 8.149600
5.244600 8.251500
5.257200 8.159400
5.269800 7.936800
5.282400 7.775800
5.295000 6.949900
5.307600 6.522000
5.320200 6.486900
5.332800 6.796100
5.345400 7.102200
5.358000 8.992100
5.370600 10.430600
5.383200 9.767400
5.395800 9.605000
5.408400 9.842800
5.421100 10.554800
5.433700 10.873300
5.446300 11.261400
5.458900 11.307900
5.471500 11.827500
5.484100 11.742900
5.496700 11.448400
5.509300 10.932600
5.521900 10.609000
5.534500 10.702200
5.547100 12.347600
5.559700 12.695500
5.572300 12.954300
5.584900 12.481100
5.597600 11.778900
5.610200 11.033100
5.622800 10.396400
5.635400 10.214700
5.648000 10.098800
5.660600 9.833400
5.673200 9.383200
5.685800 6.551300
5.698400 6.020700
5.711000 6.086800
5.723600 6.520500
5.736200 7.113300
5.748800 7.821500
5.761400 8.821900
5.774100 9.183100
5.786700 9.726500
5.799300 10.736400
5.811900 10.939200
5.824500 10.104800
5.837100 9.030100
5.849700 8.051100
5.862300 7.654100
5.874900 8.208600
5.887500 9.634600
5.900100 11.634100
5.912700 13.856300
5.925300 16.873200
5.937900 16.768800
5.950600 15.502400
5.963200 14.575800
5.975800 13.900200
5.988400 12.578900
6.001000 10.986900
6.013600 9.971000
6.026200 11.362300
6.038800 10.497800
6.051400 11.173700
6.064000 10.777400
6.076600 10.771600
6.089200 10.604400
6.101800 10.677100
6.114400 10.548800
6.127100 9.891700
6.139700 9.300200
6.152300 9.172700
6.164900 9.317300
6.177500 9.793600
6.190100 9.698400
6.202700 8.732600
6.215300 7.296100
6.227900 6.243400
6.240500 5.636700
6.253100 5.218700
6.265700 5.000100
6.278300 4.899700
6.290900 4.749600
6.303600 4.455800
6.316200 4.222600
6.328800 3.951000
6.341400 3.848400
6.354000 3.855900
6.366600 4.007400
6.379200 4.455600
6.391800 4.560200
6.404400 4.853700
6.417000 5.527600
6.429600 6.593100
6.442200 8.247400
6.454800 9.356800
6.467400 11.453500
6.480100 12.822800
6.492700 12.577600
6.505300 11.855300
6.517900 10.378800
6.530500 9.461900
6.543100 9.086400
6.555700 8.948000
6.568300 9.014100
6.580900 8.783100
6.593500 8.305400
6.606100 7.794700
6.618700 7.465900
6.631300 7.353600
6.643900 7.542000
6.656600 7.737900
6.669200 7.928200
6.681800 8.210600
6.694400 8.396200
6.707000 8.951900
6.719600 9.129000
6.732200 9.145400
6.744800 8.904600
6.757400 8.519200
6.770000 8.154200
6.782600 7.776300
6.795200 7.122500
6.807800 6.609400
6.820400 6.141800
6.833100 5.707300
6.845700 5.245500
6.858300 4.982800
6.870900 4.643200
6.883500 4.488400
6.896100 4.429600
6.908700 4.396400
6.921300 4.901900
6.933900 5.693700
6.946500 6.683800
6.959100 7.992200
6.971700 8.757700
6.984300 8.908600
6.996900 9.109900
7.009600 9.473600
7.022200 9.680900
7.034800 10.727400
7.047400 12.221300
7.060000 14.065600
7.072600 13.867600
7.085200 13.404500
7.097800 13.438500
7.110400 14.377900
7.123000 15.530600
7.135600 15.484800
7.148200 14.920500
7.160800 14.485200
7.173400 12.661300
7.186100 10.544300
7.198700 9.211400
7.211300 8.231200
7.223900 7.416500
7.236500 6.999700
7.249100 6.048700
7.261700 4.874400
7.274300 4.453400
7.286900 4.644000
7.299500 5.002400
7.312100 5.601800
7.324700 6.197800
7.337300 6.692600
7.350000 7.192300
7.362600 7.924600
7.375200 8.345000
7.387800 8.533000
7.400400 8.342500
7.413000 8.248000
7.425600 8.357000
7.438200 8.483300
7.450800 8.550600
7.463400 8.404800
7.476000 8.200300
7.488600 8.138400
7.501200 8.315100
7.513800 8.561000
7.526500 8.516700
7.539100 8.431100
7.551700 8.373200
7.564300 9.074600
7.576900 10.434000
7.589500 12.585700
7.602100 14.600000
7.614700 15.698200
7.627300 16.254000
7.639900 15.221600
7.652500 12.567500
7.665100 11.293700
7.677700 9.979300
7.690300 9.552000
7.703000 9.677600
7.715600 9.748800
7.728200 8.566700
7.740800 8.653700
7.753400 8.543100
7.766000 8.607800
7.778600 8.399100
7.791200 8.318200
7.803800 8.402100
7.816400 9.115300
7.829000 10.224700
7.841600 10.598200
7.854200 11.215900
7.866800 11.044100
7.879500 9.450300
7.892100 8.843400
7.904700 8.105100
7.917300 7.922400
7.929900 7.839000
7.942500 8.194300
7.955100 8.639200
7.967700 9.211300
7.980300 10.216800
7.992900 9.634600
8.005500 8.898200
8.018100 8.591900
8.030700 8.006200
8.043300 7.529000
8.056000 7.449200
8.068600 7.604900
8.081200 7.192400
8.093800 6.410500
8.106400 6.074200
8.119000 5.709100
8.131600 5.583900
8.144200 5.737500
8.156800 5.924000
8.169400 6.664900
8.182000 7.463900
8.194600 8.271400
8.207200 8.645700
8.219800 9.349700
8.232500 10.016200
8.245100 9.955200
8.257700 9.316000
8.270300 8.737300
8.282900 7.785100
8.295500 7.294700
8.308100 7.443900
8.320700 7.652200
8.333300 8.143300
8.345900 8.594000
8.358500 9.367600
8.371100 10.018200
8.383700 10.464400
8.396300 9.219600
8.409000 8.991500
8.421600 8.978800
8.434200 9.064800
8.446800 8.639600
8.459400 9.008600
8.472000 8.747400
8.484600 8.191500
8.497200 7.936100
8.509800 7.738800
8.522400 7.617800
8.535000 7.693900
8.547600 8.315300
8.560200 8.555500
8.572800 8.814500
8.585500 9.411500
8.598100 9.869400
8.610700 9.545100
8.623300 8.819800
8.635900 7.969900
8.648500 6.322200
8.661100 5.850900
8.673700 4.476600
8.686300 3.885400
8.698900 3.534400
8.711500 3.579100
8.724100 4.076400
8.736700 4.968500
8.749300 6.092600
8.762000 7.971400
8.774600 10.225100
8.787200 12.168900
8.799800 13.776400
8.812400 12.681100
8.825000 11.704600
8.837600 10.228100
8.850200 9.279100
8.862800 8.735400
8.875400 8.174400
8.888000 7.699000
8.900600 7.398900
8.913200 7.236100
8.925800 7.165900
8.938500 6.948400
8.951100 6.851700
8.963700 6.856600
8.976300 6.935100
8.988900 7.218800
9.001500 7.463000
9.014100 6.690500
9.026700 6.194800
9.039300 5.903900
9.051900 5.767800
9.064500 5.756800
9.077100 5.916000
9.089700 6.476400
9.102300 7.099800
9.115000 7.645700
9.127600 8.306100
9.140200 8.791500
9.152800 9.219100
9.165400 9.708000
9.178000 10.280500
9.190600 10.085300
9.203200 9.813300
9.215800 9.490100
9.228400 9.372900
9.241000 9.567500
9.253600 9.745600
9.266200 9.876000
9.278800 9.715500
9.291500 9.627000
9.304100 9.780100
9.316700 9.803100
9.329300 10.526700
9.341900 10.415100
9.354500 9.646000
9.367100 8.948900
9.379700 7.347700
9.392300 6.166400
9.404900 5.741100
9.417500 6.867000
9.430100 8.156900
9.442700 10.173200
9.455300 11.442900
9.468000 10.093900
9.480600 9.866300
9.493200 9.753900
9.505800 9.489100
9.518400 9.320200
9.531000 9.286300
9.543600 9.187700
9.556200 8.557000
9.568800 8.314200
9.581400 7.596600
9.594000 7.568400
9.606600 8.165000
9.619200 8.246700
9.631800 7.593000
9.644500 6.899500
9.657100 5.602700
9.669700 4.861800
9.682300 4.577500
9.694900 4.503800
9.707500 4.820100
9.720100 4.843400
9.732700 5.344200
9.745300 7.385800
9.757900 7.194700
9.770500 8.235100
9.783100 7.803500
9.795700 5.875000
9.808300 5.124100
9.821000 4.753000
9.833600 4.569800
9.846200 4.405200
9.858800 4.289500
9.871400 4.270900
9.884000 4.410100
9.896600 4.549700
9.909200 4.753700
9.921800 4.871800
9.934400 4.976900
9.947000 5.056400
9.959600 5.004700
9.972200 5.330500
9.984800 5.519300
9.997500 6.213300
10.010100 6.992300
10.022700 5.859200
10.035300 4.355400
10.047900 3.758900
10.060500 3.886800
10.073100 3.760700
10.085700 3.661500
10.098300 4.068700
10.110900 4.011400
10.123500 3.881400
10.136100 3.821400
10.148700 3.743400
10.161300 3.527300
10.174000 3.427100
10.186600 3.374400
10.199200 3.381400
10.211800 3.390300
10.224400 3.391900
10.237000 3.415500
10.249600 3.473500
10.262200 3.562300
10.274800 3.623500
10.287400 3.683900
10.300000 3.767100
10.312600 3.873100
10.325200 4.032400
10.337800 4.216800
10.350500 4.425400
10.363100 4.763200
10.375700 5.049800
10.388300 5.419800
10.400900 5.977300
10.413500 5.467900
10.426100 4.141600
10.438700 3.469900
10.451300 3.058600
10.463900 2.750700
10.476500 2.533000
10.489100 2.402000
10.501700 2.351800
10.514300 2.341800
10.527000 2.360500
10.539600 2.415800
10.552200 2.596100
10.564800 2.599300
10.577400 2.700200
10.590000 2.677900
10.602600 2.726500
10.615200 2.588000
10.627800 2.601200
10.640400 2.622200
10.653000 2.663100
10.665600 2.763600
10.678200 2.873800
10.690800 2.973100
10.703500 3.063900
10.716100 3.175300
10.728700 3.294600
10.741300 3.402600
10.753900 3.512000
10.766500 3.626700
10.779100 3.769000
10.791700 3.914400
10.804300 4.054500
10.816900 4.206200
10.829500 4.314700
10.842100 4.452300
10.854700 4.659400
10.867300 5.078300
10.880000 5.661300
10.892600 6.042500
10.905200 6.289500
10.917800 6.578900
10.930400 6.598100
10.943000 6.621700
10.955600 6.926500
10.968200 7.080800
10.980800 9.391100
10.993400 10.518500
11.006000 10.447400
11.018600 8.351400
11.031200 7.640900
11.043800 7.570100
11.056500 7.448300
11.069100 7.386600
11.081700 7.417000
11.094300 5.776900
11.106900 5.039800
11.119500 4.698800
11.132100 4.498400
11.144700 4.360600
11.157300 4.523300
11.169900 4.718200
11.182500 4.886300
11.195100 4.622200
11.207700 4.391300
11.220300 4.236700
11.233000 4.101400
11.245600 4.176700
11.258200 3.960400
11.270800 3.828400
11.283400 3.720700
11.296000 3.639200
11.308600 3.633000
11.321200 3.697200
11.333800 3.565600
11.346400 3.487500
11.359000 3.200100
11.371600 2.873700
11.384200 2.471500
11.396800 2.214200
11.409500 2.047200
11.422100 1.900400
11.434700 1.751800
11.447300 1.596800
11.459900 1.546800
11.472500 1.499500
11.485100 1.432600
11.497700 1.418600
11.510300 1.432200
11.522900 1.442800
11.535500 1.460800
11.548100 1.494300
11.560700 1.549800
11.573300 1.621400
11.586000 1.693900
11.598600 1.754100
11.611200 2.002300
11.623800 1.969500
11.636400 2.032200
11.649000 2.151800
11.661600 2.282100
11.674200 2.464900
11.686800 2.576200
11.699400 2.679900
11.712000 2.780500
11.724600 2.879400
11.737200 2.978400
11.749800 3.112400
11.762500 3.253500
11.775100 3.363900
11.787700 3.451100
11.800300 3.517800
11.812900 3.560900
11.825500 3.594500
11.838100 3.634300
11.850700 3.847900
11.863300 3.807800
11.875900 3.762100
11.888500 3.800300
11.901100 3.896400
11.913700 4.026300
11.926300 4.188100
11.939000 4.374500
11.951600 4.654500
11.964200 4.907700
11.976800 5.124700
11.989400 5.758900
12.002000 6.574900
12.014600 6.578800
12.027200 6.196400
12.039800 5.513400
12.052400 5.097100
12.065000 4.773700
12.077600 4.535200
12.090200 4.481100
12.102800 4.548500
12.115500 4.607400
12.128100 4.449900
12.140700 4.291300
12.153300 4.209500
12.165900 4.110200
12.178500 4.142000
12.191100 4.004300
12.203700 3.951600
12.216300 3.816500
12.228900 3.655100
12.241500 3.591300
12.254100 3.589700
12.266700 3.411800
12.279300 3.266000
12.292000 3.118800
12.304600 2.948700
12.317200 2.843100
12.329800 2.776000
12.342400 2.751400
12.355000 2.805500
12.367600 2.860100
12.380200 2.775900
12.392800 2.768400
12.405400 2.786900
12.418000 2.816400
12.430600 2.817000
12.443200 2.820800
12.455800 2.874100
12.468500 2.892600
12.481100 2.945000
12.493700 2.975800
12.506300 3.063500
12.518900 3.231400
12.531500 3.393600
12.544100 3.446100
12.556700 3.541200
12.569300 3.623600
12.581900 3.670700
12.594500 3.677500
12.607100 3.629800
12.619700 3.556500
12.632300 3.532900
12.645000 3.540300
12.657600 3.469000
12.670200 3.405400
12.682800 3.434900
12.695400 3.314700
12.708000 3.252700
12.720600 3.178700
12.733200 3.167300
12.745800 3.135700
12.758400 3.035100
12.771000 2.994800
12.783600 2.971400
12.796200 2.978600
12.808800 3.004300
12.821500 3.051900
12.834100 3.128900
12.846700 3.228100
12.859300 3.324200
12.871900 3.412700
12.884500 3.484300
12.897100 3.538600
12.909700 3.593500
12.922300 3.699600
12.934900 3.938800
12.947500 4.012200
12.960100 4.023200
12.972700 4.077200
12.985300 4.159500
12.998000 4.273100
13.010600 4.396800
13.023200 4.514000
13.035800 4.577600
13.048400 4.654000
13.061000 4.807700
13.073600 4.864700
13.086200 5.001800
13.098800 5.207100
13.111400 5.311600
13.124000 5.329100
13.136600 5.309600
13.149200 5.257400
13.161800 5.422500
13.174500 5.266600
13.187100 5.209900
13.199700 5.160500
13.212300 5.214100
13.224900 5.001900
13.237500 4.870200
13.250100 4.867500
13.262700 4.678100
13.275300 4.625900
13.287900 4.605600
13.300500 4.438400
13.313100 4.271500
13.325700 3.885200
13.338300 3.614600
13.351000 3.463300
13.363600 3.347600
13.376200 3.259800
13.388800 3.210000
13.401400 3.192000
13.414000 3.184500
13.426600 3.167000
13.439200 3.117400
13.451800 3.035000
13.464400 3.010400
13.477000 2.982000
13.489600 2.884600
13.502200 2.869600
13.514800 2.852200
13.527500 2.844500
13.540100 2.852100
13.552700 2.863100
13.565300 2.852500
13.577900 2.835300
13.590500 2.783800
13.603100 2.741800
13.615700 2.721900
13.628300 2.705800
13.640900 2.658100
13.653500 2.575100
13.666100 2.486200
13.678700 2.423700
13.691300 2.384900
13.704000 2.390300
13.716600 2.436400
13.729200 2.462800
13.741800 2.476700
13.754400 2.493700
13.767000 2.504700
13.779600 2.545700
13.792200 2.576600
13.804800 2.588500
13.817400 2.588100
13.830000 2.559000
13.842600 2.504700
13.855200 2.410100
13.867800 2.362900
13.880500 2.344000
13.893100 2.330300
13.905700 2.332900
13.918300 2.350600
13.930900 2.347700
13.943500 2.313000
13.956100 2.304900
13.968700 2.317800
13.981300 2.347600
13.993900 2.402900
14.006500 2.469700
14.019100 2.539400
14.031700 2.597900
14.044300 2.626000
14.057000 2.598200
14.069600 2.597400
14.082200 2.633200
14.094800 2.678900
14.107400 2.718700
14.120000 2.747000
14.132600 2.765500
14.145200 2.753000
14.157800 2.751200
14.170400 2.767500
14.183000 2.794100
14.195600 2.815600
14.208200 2.776500
14.220800 2.663600
14.233500 2.618900
14.246100 2.590600
14.258700 2.559000
14.271300 2.475300
14.283900 2.387300
14.296500 2.315500
14.309100 2.245000
14.321700 2.174500
14.334300 2.135900
14.346900 2.168100
14.359500 2.080100
14.372100 2.043300
14.384700 2.019400
14.397300 2.005600
14.410000 2.003700
14.422600 2.018400
14.435200 2.052800
14.447800 2.119800
14.460400 2.175500
14.473000 2.221500
14.485600 2.276400
14.498200 2.353100
14.510800 2.446000
14.523400 2.569100
14.536000 2.644100
14.548600 2.695600
14.561200 2.731800
14.573800 2.770500
14.586500 2.783700
14.599100 2.791700
14.611700 2.809300
14.624300 2.840500
14.636900 2.854500
14.649500 2.849600
14.662100 2.833600
14.674700 2.819700
14.687300 2.764500
14.699900 2.703100
14.712500 2.636400
14.725100 2.569000
14.737700 2.510500
14.750300 2.455300
14.763000 2.402500
14.775600 2.356500
14.788200 2.324100
14.800800 2.248400
14.813400 2.163000
14.826000 2.103100
14.838600 2.055500
14.851200 2.011800
14.863800 1.982800
14.876400 2.003000
14.889000 1.972000
14.901600 1.908500
14.914200 1.833400
14.926800 1.783300
14.939500 1.756700
14.952100 1.728400
14.964700 1.710400
14.977300 1.694000
14.989900 1.678500
15.002500 1.675100
15.015100 1.679100
15.027700 1.681500
15.040300 1.677600
15.052900 1.657300
15.065500 1.662600
15.078100 1.638400
15.090700 1.591700
15.103300 1.536300
15.116000 1.517000
15.128600 1.526500
15.141200 1.564400
15.153800 1.594400
15.166400 1.605700
15.179000 1.643700
15.191600 1.649900
15.204200 1.650200
15.216800 1.676200
15.229400 1.709700
15.242000 1.691400
15.254600 1.696300
15.267200 1.704100
15.279800 1.701000
15.292500 1.706400
15.305100 1.717700
15.317700 1.733400
15.330300 1.744200
15.342900 1.757700
15.355500 1.771800
15.368100 1.766600
15.380700 1.743200
15.393300 1.708700
15.405900 1.678900
15.418500 1.661700
15.431100 1.654400
15.443700 1.655600
15.456300 1.674200
15.469000 1.699500
15.481600 1.719100
15.494200 1.752600
15.506800 1.813500
15.519400 1.851400
15.532000 1.903700
15.544600 1.961500
15.557200 2.024000
15.569800 2.068300
15.582400 2.131000
15.595000 2.193800
15.607600 2.263900
15.620200 2.319800
15.632900 2.414100
15.645500 2.452600
15.658100 2.481900
15.670700 2.529600
15.683300 2.585800
15.695900 2.649900
15.708500 2.796000
15.721100 2.813900
15.733700 2.816300
15.746300 2.798200
15.758900 2.766300
15.771500 2.749100
15.784100 2.750600
15.796700 2.742600
15.809400 2.765400
15.822000 2.843600
15.834600 2.861500
15.847200 2.863100
15.859800 2.879100
15.872400 2.909800
15.885000 2.937500
15.897600 2.940800
15.910200 2.946900
15.922800 2.949300
15.935400 2.938300
15.948000 2.921500
15.960600 2.923200
15.973200 2.950800
15.985900 2.967300
15.998500 2.944400
16.011100 2.925100
16.023700 2.927200
16.036300 2.934400
16.048900 2.972000
16.061500 3.011900
16.074100 3.060700
16.086700 3.109300
16.099300 3.180800
16.111900 3.215100
16.124500 3.187100
16.137100 3.170900
16.149700 3.193400
16.162400 3.225400
16.175000 3.241600
16.187600 3.261700
16.200200 3.219000
16.212800 3.204500
16.225400 3.198100
16.238000 3.197400
16.250600 3.214500
16.263200 3.225200
16.275800 3.224200
16.288400 3.200000
16.301000 3.202800
16.313600 3.206600
16.326200 3.198200
16.338900 3.170700
16.351500 3.129700
16.364100 3.076900
16.376700 3.004400
16.389300 2.927700
16.401900 2.855400
16.414500 2.784700
16.427100 2.740500
16.439700 2.702900
16.452300 2.677200
16.464900 2.662300
16.477500 2.662900
16.490100 2.623300
16.502700 2.617000
16.515400 2.633400
16.528000 2.658900
16.540600 2.680700
16.553200 2.718800
16.565800 2.778300
16.578400 2.840600
16.591000 2.909800
16.603600 3.010800
16.616200 3.131300
16.628800 3.322700
16.641400 3.349900
16.654000 3.366400
16.666600 3.387700
16.679200 3.425700
16.691900 3.373400
16.704500 3.272100
16.717100 3.188900
16.729700 3.111800
16.742300 3.066300
16.754900 3.050100
16.767500 3.096300
16.780100 3.097000
16.792700 3.076800
16.805300 3.226000
16.817900 3.161000
16.830500 3.001700
16.843100 2.919400
16.855700 2.907600
16.868400 2.998300
16.881000 2.969300
16.893600 2.969300
16.906200 2.992800
16.918800 3.086400
16.931400 3.215500
16.944000 3.434600
16.956600 3.623900
16.969200 3.815200
16.981800 4.014300
16.994400 4.268400
17.007000 4.703900
17.019600 5.184900
17.032200 5.493400
17.044900 5.838100
17.057500 6.080200
17.070100 6.123800
17.082700 6.176500
17.095300 6.183200
17.107900 6.212600
17.120500 6.301400
17.133100 6.362500
17.145700 6.235500
17.158300 5.969500
17.170900 5.626400
17.183500 5.412400
17.196100 5.320700
17.208700 5.035300
17.221400 4.799000
17.234000 4.571800
17.246600 4.378200
17.259200 4.072100
17.271800 3.706500
17.284400 3.379900
17.297000 3.253700
17.309600 3.211100
17.322200 3.220100
17.334800 3.252000
17.347400 3.283500
17.360000 3.300700
17.372600 3.364900
17.385200 3.461300
17.397900 3.571000
17.410500 3.713200
17.423100 3.976200
17.435700 4.225100
17.448300 4.395200
17.460900 4.479700
17.473500 4.471100
17.486100 4.464700
17.498700 4.419400
17.511300 4.373600
17.523900 4.353300
17.536500 4.492400
17.549100 4.461300
17.561700 4.363800
17.574400 4.350600
17.587000 4.238700
17.599600 4.162900
17.612200 4.108100
17.624800 4.016200
17.637400 3.894100
17.650000 3.894300
17.662600 3.918800
17.675200 3.927800
17.687800 3.953500
17.700400 3.846400
17.713000 3.827300
17.725600 3.866600
17.738200 3.838700
17.750900 3.859300
17.763500 3.671500
17.776100 3.532300
17.788700 3.438400
17.801300 3.357700
17.813900 3.156700
17.826500 3.015700
17.839100 2.916500
17.851700 2.860200
17.864300 2.833100
17.876900 2.833500
17.889500 2.859300
17.902100 2.821100
17.914700 2.848200
17.927400 2.909500
17.940000 2.856800
17.952600 2.841900
17.965200 2.851000
17.977800 2.863900
17.990400 2.916200
18.003000 3.040500
18.015600 3.130200
18.028200 3.079300
18.040800 3.141700
18.053400 3.252200
18.066000 3.292800
18.078600 3.290600
18.091200 3.169700
18.103900 3.048800
18.116500 2.975400
18.129100 2.946700
18.141700 2.936400
18.154300 2.936600
18.166900 2.938800
18.179500 2.938100
18.192100 2.957900
18.204700 3.053700
18.217300 3.004900
18.229900 3.036900
18.242500 3.170900
18.255100 3.061600
18.267700 2.981300
18.280400 2.903500
18.293000 2.837000
18.305600 2.770000
18.318200 2.702700
18.330800 2.640700
18.343400 2.587000
18.356000 2.545300
18.368600 2.518100
18.381200 2.498500
18.393800 2.480100
18.406400 2.470400
18.419000 2.471100
18.431600 2.507500
18.444200 2.551000
18.456900 2.593200
18.469500 2.645600
18.482100 2.709400
18.494700 2.762400
18.507300 2.796300
18.519900 2.827800
18.532500 2.870700
18.545100 2.931800
18.557700 3.014900
18.570300 3.120700
18.582900 3.252600
18.595500 3.508500
18.608100 3.622100
18.620700 3.734300
18.633400 3.874300
18.646000 4.027400
18.658600 4.205000
18.671200 4.370500
18.683800 4.489100
18.696400 4.578500
18.709000 4.473800
18.721600 4.518100
18.734200 4.559800
18.746800 4.735200
18.759400 4.629000
18.772000 4.462400
18.784600 4.377000
18.797200 4.327400
18.809900 4.300200
18.822500 4.267200
18.835100 4.255800
18.847700 4.276200
18.860300 4.252900
18.872900 4.201400
18.885500 4.172500
18.898100 4.121100
18.910700 4.090700
18.923300 4.049100
18.935900 3.894600
18.948500 3.672400
18.961100 3.480600
18.973700 3.373000
18.986400 3.331800
18.999000 3.296500
19.011600 3.263100
19.024200 3.237100
19.036800 3.212200
19.049400 3.194000
19.062000 3.190400
19.074600 3.222700
19.087200 3.281300
19.099800 3.350900
19.112400 3.445900
19.125000 3.624700
19.137600 3.780600
19.150200 3.922500
19.162900 4.018800
19.175500 3.948300
19.188100 3.760500
19.200700 3.646300
19.213300 3.566200
19.225900 3.522200
19.238500 3.520500
19.251100 3.542800
19.263700 3.592800
19.276300 3.634200
19.288900 3.638800
19.301500 3.659800
19.314100 3.735700
19.326700 3.854600
19.339400 3.959800
19.352000 3.950600
19.364600 3.917500
19.377200 3.925000
19.389800 3.999900
19.402400 4.124300
19.415000 4.165700
19.427600 4.121400
19.440200 4.088500
19.452800 4.053900
19.465400 4.028400
19.478000 4.017700
19.490600 4.017600
19.503200 4.029100
19.515900 4.009900
19.528500 4.025200
19.541100 4.051700
19.553700 3.994300
19.566300 3.947400
19.578900 3.792800
19.591500 3.708100
19.604100 3.642200
19.616700 3.595300
19.629300 3.605700
19.641900 3.614500
19.654500 3.568500
19.667100 3.593900
19.679700 3.636200
19.692400 3.661200
19.705000 3.669600
19.717600 3.682500
19.730200 3.713300
19.742800 3.751100
19.755400 3.827400
19.768000 3.856900
19.780600 3.875500
19.793200 3.951400
19.805800 4.018300
19.818400 3.994600
19.831000 3.959300
19.843600 3.910000
19.856200 3.833300
19.868900 3.748600
19.881500 3.708700
19.894100 3.674400
19.906700 3.609500
19.919300 3.490800
19.931900 3.413200
19.944500 3.209700
19.957100 3.007000
19.969700 2.729400
19.982300 2.438500
19.994900 2.220700
20.007500 2.060600
20.020100 1.956500
20.032700 1.835700
20.045400 1.720700
20.058000 1.606500
20.070600 1.473300
20.083200 1.370700
20.095800 1.263400
20.108400 1.166500
20.121000 1.058000
20.133600 0.959400
20.146200 0.875800
20.158800 0.808600
20.171400 0.755900
20.184000 0.678800
20.196600 0.622600
20.209200 0.584400
20.221900 0.561400
20.234500 0.541000
20.247100 0.521300
20.259700 0.504000
20.272300 0.488400
20.284900 0.477900
20.297500 0.484200
20.310100 0.495500
20.322700 0.449400
20.335300 0.445800
20.347900 0.444600
20.360500 0.451200
20.373100 0.464500
20.385700 0.483300
20.398400 0.504300
20.411000 0.518100
20.423600 0.534400
20.436200 0.546300
20.448800 0.553200
20.461400 0.554600
20.474000 0.561900
20.486600 0.572700
20.499200 0.587800
20.511800 0.607300
20.524400 0.629900
20.537000 0.617700
20.549600 0.574800
20.562200 0.557800
20.574900 0.537800
20.587500 0.521500
20.600100 0.505200
20.612700 0.448100
20.625300 0.390100
20.637900 0.333700
20.650500 0.279800
20.663100 0.227600
20.675700 0.179100
20.688300 0.134500
20.700900 0.093500
20.713500 0.057400
20.726100 0.032600
20.738700 0.015000
20.751400 0.004400
20.764000 0.000900
20.776600 0.000200
20.789200 0.000000
20.801800 0.000000
20.814400 0.000000
20.827000 0.000000
20.839600 0.000000
20.852200 0.000000
20.864800 0.000000
20.877400 0.000000
20.890000 0.000000
20.902600 0.000000
20.915200 0.000000
20.927900 0.000000
20.940500 0.000000
20.953100 0.000000
20.965700 0.000000
20.978300 0.000000
20.990900 0.000000
21.003500 0.000000
21.016100 0.000000
21.028700 0.000000
21.041300 0.000000
21.053900 0.000000
21.066500 0.000000
21.079100 0.000000
21.091700 0.000000
21.104400 0.000000
21.117000 0.000000
21.129600 0.000000
21.142200 0.000000
21.154800 0.000000
21.167400 0.000000
21.180000 0.000000
21.192600 0.000000
21.205200 0.000000
21.217800 0.000000
21.230400 0.000000
21.243000 0.000000
21.255600 0.000000
21.268200 0.000000
21.280900 0.000000
21.293500 0.000000
21.306100 0.000000
21.318700 0.000000
21.331300 0.000000
21.343900 0.000000
21.356500 0.000000
21.369100 0.000000
21.381700 0.000000
21.394300 0.000000
21.406900 0.000000
21.419500 0.000000
21.432100 0.000000
21.444700 0.000000
21.457400 0.000000
21.470000 0.000000
21.482600 0.000000
21.495200 0.000000
21.507800 0.000000
21.520400 0.000000
21.533000 0.000000
21.545600 0.000000
21.558200 0.000000
21.570800 0.000000
21.583400 0.000000
21.596000 0.000000
21.608600 0.000000
21.621200 0.000000
21.633900 0.000000
21.646500 0.000000
21.659100 0.000000
21.671700 0.000000
21.684300 0.000000
21.696900 0.000000
21.709500 0.000000
21.722100 0.000000
21.734700 0.000000
21.747300 0.000000
21.759900 0.000000
21.772500 0.000000
21.785100 0.000000
21.797700 0.000000
21.810400 0.000000
21.823000 0.000000
21.835600 0.000000
21.848200 0.000000
21.860800 0.000000
21.873400 0.000000
21.886000 0.000000
21.898600 0.000000
21.911200 0.000000
21.923800 0.000000
21.936400 0.000000
e
