set title 'mp-1390618 - Density of States'
set xlabel 'Energy (eV)'
set ylabel 'DOS (states/eV)'
set grid
set xrange [-10:10]
set yrange [0:8.397]
set xzeroaxis lt -1
set terminal png size 800,600
set output 'mp-1390618_dos_gnuplot.png'
plot '-' using 1:2 with lines title 'DOS'
-20.728100 0.000000
-20.690300 0.000000
-20.652600 0.000000
-20.614900 0.000000
-20.577100 0.000000
-20.539400 0.000000
-20.501700 0.000000
-20.463900 0.000000
-20.426200 0.000000
-20.388500 0.000000
-20.350800 0.000000
-20.313000 0.000000
-20.275300 0.000000
-20.237600 0.000000
-20.199800 0.000000
-20.162100 0.000000
-20.124400 0.000000
-20.086600 0.000000
-20.048900 0.000000
-20.011200 0.000000
-19.973400 0.000000
-19.935700 0.000000
-19.898000 0.000000
-19.860300 0.000000
-19.822500 0.000000
-19.784800 0.000000
-19.747100 0.000000
-19.709300 0.000000
-19.671600 0.000000
-19.633900 0.000000
-19.596100 0.000000
-19.558400 0.000000
-19.520700 0.000000
-19.482900 0.000000
-19.445200 0.000000
-19.407500 0.000000
-19.369800 0.000000
-19.332000 0.000000
-19.294300 0.000000
-19.256600 0.000000
-19.218800 0.000000
-19.181100 0.000000
-19.143400 0.000000
-19.105600 0.000000
-19.067900 0.000000
-19.030200 0.000000
-18.992400 0.000000
-18.954700 0.000000
-18.917000 0.000000
-18.879300 0.000000
-18.841500 0.000000
-18.803800 0.000000
-18.766100 0.000000
-18.728300 0.000000
-18.690600 0.000000
-18.652900 0.000000
-18.615100 0.000000
-18.577400 0.000000
-18.539700 0.000000
-18.501900 0.000000
-18.464200 0.000000
-18.426500 0.000000
-18.388700 0.000000
-18.351000 0.000000
-18.313300 0.000000
-18.275600 0.000000
-18.237800 0.000000
-18.200100 0.000000
-18.162400 0.000000
-18.124600 0.000000
-18.086900 0.000000
-18.049200 0.000000
-18.011400 0.000000
-17.973700 0.000000
-17.936000 0.000000
-17.898200 0.000000
-17.860500 0.000000
-17.822800 0.000000
-17.785100 0.000000
-17.747300 0.000000
-17.709600 0.000000
-17.671900 0.000000
-17.634100 0.000000
-17.596400 0.000000
-17.558700 0.000000
-17.520900 0.000000
-17.483200 0.000000
-17.445500 0.000000
-17.407700 0.000000
-17.370000 0.000000
-17.332300 0.000000
-17.294600 0.206200
-17.256800 3.165800
-17.219100 6.125400
-17.181400 4.788800
-17.143600 5.715600
-17.105900 6.642300
-17.068200 8.511600
-17.030400 2.265100
-16.992700 2.169200
-16.955000 2.062600
-16.917200 1.875100
-16.879500 1.687700
-16.841800 1.500200
-16.804100 1.464100
-16.766300 3.648100
-16.728600 4.819600
-16.690900 2.493000
-16.653100 3.299800
-16.615400 12.036000
-16.577700 10.060600
-16.539900 10.976000
-16.502200 10.923600
-16.464500 39.183800
-16.426700 9.567000
-16.389000 25.084200
-16.351300 30.595700
-16.313600 13.708900
-16.275800 24.476100
-16.238100 4.900700
-16.200400 0.000000
-16.162600 0.000000
-16.124900 0.000000
-16.087200 0.000000
-16.049400 0.000000
-16.011700 0.000000
-15.974000 0.000000
-15.936200 0.000000
-15.898500 0.000000
-15.860800 0.000000
-15.823100 0.000000
-15.785300 0.000000
-15.747600 0.000000
-15.709900 0.000000
-15.672100 0.000000
-15.634400 0.000000
-15.596700 0.000000
-15.558900 0.000000
-15.521200 0.000000
-15.483500 0.000000
-15.445700 0.000000
-15.408000 0.000000
-15.370300 0.000000
-15.332600 0.000000
-15.294800 0.000000
-15.257100 0.000000
-15.219400 0.000000
-15.181600 0.000000
-15.143900 0.000000
-15.106200 0.000000
-15.068400 0.000000
-15.030700 0.000000
-14.993000 0.000000
-14.955200 0.000000
-14.917500 0.000000
-14.879800 0.000000
-14.842100 0.000000
-14.804300 0.000000
-14.766600 0.000000
-14.728900 0.000000
-14.691100 0.000000
-14.653400 0.000000
-14.615700 0.000000
-14.577900 0.175600
-14.540200 0.512800
-14.502500 0.926100
-14.464700 1.030400
-14.427000 1.051900
-14.389300 0.891800
-14.351500 0.946500
-14.313800 1.001300
-14.276100 1.056000
-14.238400 1.084800
-14.200600 1.059600
-14.162900 0.978900
-14.125200 0.926600
-14.087400 0.921800
-14.049700 0.957600
-14.012000 0.993300
-13.974200 1.029100
-13.936500 1.064800
-13.898800 1.100600
-13.861000 1.136400
-13.823300 1.172200
-13.785600 1.198700
-13.747900 1.185500
-13.710100 1.171100
-13.672400 1.222900
-13.634700 1.319900
-13.596900 1.429000
-13.559200 1.538200
-13.521500 1.647600
-13.483700 1.757000
-13.446000 1.855900
-13.408300 1.894500
-13.370500 1.925600
-13.332800 1.956300
-13.295100 1.343900
-13.257400 0.974700
-13.219600 0.943100
-13.181900 0.911400
-13.144200 0.878500
-13.106400 0.841000
-13.068700 0.802400
-13.031000 0.763800
-12.993200 0.725200
-12.955500 0.687200
-12.917800 0.686400
-12.880000 0.716300
-12.842300 0.774500
-12.804600 0.874300
-12.766900 0.982600
-12.729100 1.049100
-12.691400 0.637600
-12.653700 0.669800
-12.615900 0.638000
-12.578200 0.643900
-12.540500 0.672100
-12.502700 0.700200
-12.465000 0.728400
-12.427300 0.756600
-12.389500 0.788300
-12.351800 0.845500
-12.314100 0.923100
-12.276400 1.029700
-12.238600 1.135200
-12.200900 1.221700
-12.163200 1.289500
-12.125400 1.342300
-12.087700 1.717900
-12.050000 2.922200
-12.012200 3.735600
-11.974500 4.891900
-11.936800 6.141100
-11.899000 5.008400
-11.861300 4.156500
-11.823600 4.143300
-11.785900 2.900300
-11.748100 0.769100
-11.710400 0.000000
-11.672700 0.000000
-11.634900 0.000000
-11.597200 0.000000
-11.559500 0.000000
-11.521700 0.000000
-11.484000 0.000000
-11.446300 0.000000
-11.408500 0.000000
-11.370800 0.000000
-11.333100 0.000000
-11.295400 0.000000
-11.257600 0.000000
-11.219900 0.000000
-11.182200 0.000000
-11.144400 0.000000
-11.106700 0.000000
-11.069000 0.000000
-11.031200 0.000000
-10.993500 0.000000
-10.955800 0.000000
-10.918000 0.000000
-10.880300 0.000000
-10.842600 0.000000
-10.804900 0.000000
-10.767100 0.000000
-10.729400 0.000000
-10.691700 0.000000
-10.653900 0.000000
-10.616200 0.000000
-10.578500 0.000000
-10.540700 0.000000
-10.503000 0.000000
-10.465300 0.000000
-10.427500 0.000000
-10.389800 0.000000
-10.352100 0.000000
-10.314300 0.000000
-10.276600 0.000000
-10.238900 0.000000
-10.201200 0.000000
-10.163400 0.000000
-10.125700 0.000000
-10.088000 0.000000
-10.050200 0.000000
-10.012500 0.000000
-9.974800 0.000000
-9.937000 0.000000
-9.899300 0.000000
-9.861600 0.000000
-9.823800 0.000000
-9.786100 0.000000
-9.748400 0.000000
-9.710700 0.000000
-9.672900 0.000000
-9.635200 0.000000
-9.597500 0.000000
-9.559700 0.000000
-9.522000 0.000000
-9.484300 0.000000
-9.446500 0.000000
-9.408800 0.000000
-9.371100 0.000000
-9.333300 0.000000
-9.295600 0.000000
-9.257900 0.000000
-9.220200 0.000000
-9.182400 0.000000
-9.144700 0.000000
-9.107000 0.000000
-9.069200 0.000000
-9.031500 0.000000
-8.993800 0.000000
-8.956000 0.000000
-8.918300 0.000000
-8.880600 0.000000
-8.842800 0.000000
-8.805100 0.000000
-8.767400 0.000000
-8.729700 0.000000
-8.691900 0.000000
-8.654200 0.000000
-8.616500 0.000000
-8.578700 0.000000
-8.541000 0.000000
-8.503300 0.000000
-8.465500 0.000000
-8.427800 0.000000
-8.390100 0.000000
-8.352300 0.000000
-8.314600 0.000000
-8.276900 0.000000
-8.239200 0.000000
-8.201400 0.000000
-8.163700 0.000000
-8.126000 0.000000
-8.088200 0.000000
-8.050500 0.000000
-8.012800 0.000000
-7.975000 0.000000
-7.937300 0.000000
-7.899600 0.000000
-7.861800 0.000000
-7.824100 0.000000
-7.786400 0.000000
-7.748700 0.000000
-7.710900 0.000000
-7.673200 0.000000
-7.635500 0.000000
-7.597700 0.000000
-7.560000 0.000000
-7.522300 0.000000
-7.484500 0.000000
-7.446800 0.000000
-7.409100 0.000000
-7.371300 0.000000
-7.333600 0.000000
-7.295900 0.000000
-7.258200 0.000000
-7.220400 0.000000
-7.182700 0.000000
-7.145000 0.000000
-7.107200 0.000000
-7.069500 0.000000
-7.031800 0.000000
-6.994000 0.000000
-6.956300 0.000000
-6.918600 0.000000
-6.880800 0.000000
-6.843100 0.000000
-6.805400 0.000000
-6.767700 0.000000
-6.729900 0.000000
-6.692200 0.000000
-6.654500 0.000000
-6.616700 0.000000
-6.579000 0.000000
-6.541300 0.000000
-6.503500 0.000000
-6.465800 0.000000
-6.428100 0.000000
-6.390300 0.000000
-6.352600 0.000000
-6.314900 0.000000
-6.277100 0.000000
-6.239400 0.000000
-6.201700 0.000000
-6.164000 0.000000
-6.126200 0.000000
-6.088500 0.000000
-6.050800 0.000000
-6.013000 0.000000
-5.975300 0.000000
-5.937600 0.000000
-5.899800 0.000000
-5.862100 0.000000
-5.824400 0.000000
-5.786600 0.000000
-5.748900 0.000000
-5.711200 0.000000
-5.673500 0.000000
-5.635700 0.000000
-5.598000 0.000000
-5.560300 0.000000
-5.522500 0.000000
-5.484800 0.000000
-5.447100 0.000000
-5.409300 0.000000
-5.371600 0.000000
-5.333900 0.000000
-5.296100 0.000000
-5.258400 0.000000
-5.220700 0.000000
-5.183000 0.000000
-5.145200 0.000000
-5.107500 0.000000
-5.069800 0.000000
-5.032000 0.000000
-4.994300 0.000000
-4.956600 0.000000
-4.918800 0.000000
-4.881100 0.000000
-4.843400 0.000000
-4.805600 0.000000
-4.767900 0.000000
-4.730200 0.000000
-4.692500 0.000000
-4.654700 0.000000
-4.617000 0.000000
-4.579300 0.000000
-4.541500 0.000000
-4.503800 0.000000
-4.466100 0.000000
-4.428300 0.000000
-4.390600 0.000000
-4.352900 0.000000
-4.315100 0.000000
-4.277400 0.000000
-4.239700 0.000000
-4.202000 0.000000
-4.164200 0.000000
-4.126500 0.000000
-4.088800 0.000000
-4.051000 0.000000
-4.013300 0.000000
-3.975600 0.000000
-3.937800 0.000000
-3.900100 0.000000
-3.862400 0.000000
-3.824600 0.000000
-3.786900 0.000000
-3.749200 0.000000
-3.711500 0.000000
-3.673700 0.000000
-3.636000 0.000000
-3.598300 0.000000
-3.560500 0.000000
-3.522800 0.000000
-3.485100 0.000000
-3.447300 0.000000
-3.409600 0.000000
-3.371900 0.000000
-3.334100 0.000000
-3.296400 0.000000
-3.258700 0.000000
-3.221000 0.000000
-3.183200 0.000000
-3.145500 0.000000
-3.107800 0.000000
-3.070000 0.787300
-3.032300 1.304600
-2.994600 1.969300
-2.956800 3.097300
-2.919100 2.828200
-2.881400 2.776800
-2.843600 2.829400
-2.805900 1.691100
-2.768200 1.411800
-2.730500 1.321800
-2.692700 1.256200
-2.655000 1.190700
-2.617300 1.130100
-2.579500 1.076500
-2.541800 1.027700
-2.504100 0.983200
-2.466300 0.945000
-2.428600 0.908800
-2.390900 0.872600
-2.353100 0.836400
-2.315400 0.800200
-2.277700 0.732400
-2.239900 0.681700
-2.202200 0.642200
-2.164500 0.603800
-2.126800 0.579100
-2.089000 0.571600
-2.051300 0.564100
-2.013600 0.556600
-1.975800 0.549100
-1.938100 0.541600
-1.900400 0.534100
-1.862600 0.526600
-1.824900 0.519100
-1.787200 0.511600
-1.749400 0.504100
-1.711700 0.496700
-1.674000 0.489100
-1.636300 0.480600
-1.598500 0.471700
-1.560800 0.462900
-1.523100 0.455200
-1.485300 0.447700
-1.447600 0.440300
-1.409900 0.432800
-1.372100 0.425400
-1.334400 0.418700
-1.296700 0.413700
-1.258900 0.407900
-1.221200 0.401300
-1.183500 0.394700
-1.145800 0.388100
-1.108000 0.381600
-1.070300 0.375000
-1.032600 0.368500
-0.994800 0.416300
-0.957100 0.542600
-0.919400 0.719200
-0.881600 0.936800
-0.843900 1.200000
-0.806200 1.453200
-0.768400 1.810700
-0.730700 2.341500
-0.693000 2.748600
-0.655300 2.994800
-0.617500 3.064300
-0.579800 3.074800
-0.542100 3.057200
-0.504300 3.037800
-0.466600 3.202800
-0.428900 2.684900
-0.391100 1.497100
-0.353400 1.183100
-0.315700 1.057700
-0.277900 1.062500
-0.240200 1.503300
-0.202500 1.494100
-0.164800 1.392000
-0.127000 1.465800
-0.089300 1.540300
-0.051600 1.615600
-0.013800 1.691700
0.023900 1.765800
0.061600 1.823100
0.099400 1.864700
0.137100 2.044300
0.174800 2.244100
0.212600 2.413700
0.250300 2.443300
0.288000 2.471500
0.325700 2.469700
0.363500 2.398400
0.401200 2.258200
0.438900 2.086400
0.476700 1.922100
0.514400 1.792000
0.552100 1.637500
0.589900 1.534300
0.627600 1.484200
0.665300 1.433600
0.703100 1.382200
0.740800 1.345900
0.778500 1.309800
0.816200 1.284100
0.854000 1.413400
0.891700 1.603300
0.929400 1.659500
0.967200 1.667700
1.004900 1.608000
1.042600 1.537900
1.080400 1.479700
1.118100 1.446600
1.155800 1.421700
1.193600 1.400200
1.231300 1.382400
1.269000 1.373100
1.306700 1.376300
1.344500 1.389900
1.382200 1.415200
1.419900 1.440900
1.457700 1.463900
1.495400 1.485800
1.533100 1.515600
1.570900 1.676300
1.608600 1.937900
1.646300 2.438500
1.684100 3.036000
1.721800 3.011200
1.759500 2.690500
1.797300 2.618600
1.835000 2.525000
1.872700 2.472100
1.910400 2.442900
1.948200 2.464200
1.985900 2.577900
2.023600 2.661700
2.061400 2.720700
2.099100 3.032000
2.136800 2.793700
2.174600 2.161900
2.212300 1.341900
2.250000 0.595100
2.287800 0.211400
2.325500 0.138200
2.363200 0.276400
2.400900 0.689200
2.438700 1.309000
2.476400 2.094200
2.514100 3.040700
2.551900 4.104200
2.589600 4.552400
2.627300 5.333400
2.665100 5.002700
2.702800 5.941200
2.740500 6.023200
2.778300 6.145200
2.816000 7.634000
2.853700 4.515200
2.891400 4.624000
2.929200 2.756700
2.966900 3.047200
3.004600 3.349400
3.042400 3.581400
3.080100 4.199100
3.117800 5.379100
3.155600 4.554100
3.193300 4.933100
3.231000 5.329200
3.268800 7.426800
3.306500 0.000000
3.344200 0.000000
3.381900 0.000000
3.419700 0.000000
3.457400 0.000000
3.495100 0.000000
3.532900 0.000000
3.570600 0.000000
3.608300 0.000000
3.646100 0.000000
3.683800 0.000000
3.721500 0.000000
3.759300 0.000000
3.797000 0.000000
3.834700 0.000000
3.872400 0.000000
3.910200 0.000000
3.947900 0.000000
3.985600 0.000000
4.023400 0.000000
4.061100 0.000000
4.098800 0.000000
4.136600 0.000000
4.174300 0.000000
4.212000 0.000000
4.249800 0.000000
4.287500 0.000000
4.325200 0.000000
4.362900 0.000000
4.400700 0.000000
4.438400 0.000000
4.476100 0.000000
4.513900 0.000000
4.551600 0.000000
4.589300 0.000000
4.627100 0.000000
4.664800 0.000000
4.702500 0.000000
4.740300 0.000000
4.778000 0.000000
4.815700 0.000000
4.853400 0.000000
4.891200 0.000000
4.928900 0.000000
4.966600 0.000000
5.004400 0.000000
5.042100 0.000000
5.079800 0.000000
5.117600 0.000000
5.155300 0.000000
5.193000 0.000000
5.230800 0.000000
5.268500 0.000000
5.306200 0.000000
5.343900 0.001300
5.381700 0.003100
5.419400 0.005100
5.457100 0.007500
5.494900 0.010100
5.532600 0.012900
5.570300 0.016100
5.608100 0.019500
5.645800 0.023200
5.683500 0.027200
5.721300 0.031400
5.759000 0.036000
5.796700 0.040900
5.834500 0.046100
5.872200 0.051600
5.909900 0.057500
5.947600 0.063600
5.985400 0.070100
6.023100 0.076900
6.060800 0.084000
6.098600 0.091400
6.136300 0.096900
6.174000 0.101600
6.211800 0.107000
6.249500 0.113000
6.287200 0.119600
6.325000 0.126600
6.362700 0.134200
6.400400 0.142200
6.438100 0.150700
6.475900 0.161300
6.513600 0.173200
6.551300 0.185000
6.589100 0.196000
6.626800 0.206200
6.664500 0.216200
6.702300 0.225700
6.740000 0.235000
6.777700 0.243900
6.815500 0.252500
6.853200 0.260400
6.890900 0.265400
6.928600 0.266900
6.966400 0.264700
7.004100 0.261200
7.041800 0.266300
7.079600 0.271500
7.117300 0.276600
7.155000 0.281800
7.192800 0.287000
7.230500 0.292700
7.268200 0.300100
7.306000 0.308200
7.343700 0.317300
7.381400 0.327100
7.419100 0.337600
7.456900 0.348700
7.494600 0.360500
7.532300 0.372900
7.570100 0.385800
7.607800 0.399200
7.645500 0.413500
7.683300 0.428600
7.721000 0.446400
7.758700 0.464500
7.796500 0.482600
7.834200 0.500800
7.871900 0.519000
7.909600 0.537300
7.947400 0.555600
7.985100 0.573900
8.022800 0.592400
8.060600 0.610900
8.098300 0.629500
8.136000 0.648200
8.173800 0.667000
8.211500 0.685900
8.249200 0.704800
8.287000 0.723800
8.324700 0.745200
8.362400 1.024700
8.400100 1.387700
8.437900 1.669500
8.475600 1.796600
8.513300 1.856700
8.551100 1.881100
8.588800 1.869500
8.626500 1.820600
8.664300 1.720900
8.702000 1.561100
8.739700 1.431300
8.777500 1.317400
8.815200 1.201000
8.852900 1.045300
8.890600 1.026200
8.928400 1.007700
8.966100 0.990000
9.003800 0.980300
9.041600 0.977000
9.079300 0.977000
9.117000 0.977100
9.154800 0.977300
9.192500 0.977600
9.230200 1.258300
9.268000 0.281100
9.305700 0.195600
9.343400 0.219700
9.381100 0.243900
9.418900 0.268000
9.456600 0.292100
9.494300 0.283300
9.532100 0.282300
9.569800 0.281500
9.607500 0.268500
9.645300 0.260000
9.683000 0.270500
9.720700 0.280900
9.758500 0.291400
9.796200 0.301900
9.833900 0.312300
9.871700 0.322800
9.909400 0.333200
9.947100 0.343700
9.984800 0.354200
10.022600 0.364600
10.060300 0.375100
10.098000 0.385500
10.135800 0.467100
10.173500 0.559700
10.211200 0.643300
10.249000 0.729800
10.286700 0.789900
10.324400 0.842100
10.362200 0.888300
10.399900 0.929000
10.437600 0.962900
10.475300 0.988600
10.513100 1.013100
10.550800 1.042500
10.588500 1.055200
10.626300 1.067700
10.664000 1.080100
10.701700 1.089900
10.739500 1.088200
10.777200 1.049100
10.814900 1.042700
10.852700 1.038200
10.890400 1.032100
10.928100 1.024400
10.965800 1.015100
11.003600 1.030800
11.041300 1.071000
11.079000 1.035700
11.116800 1.000400
11.154500 0.966200
11.192200 0.933200
11.230000 0.901300
11.267700 0.870600
11.305400 0.840200
11.343200 0.810100
11.380900 0.779800
11.418600 0.749200
11.456300 0.718100
11.494100 0.685800
11.531800 0.652300
11.569500 0.606000
11.607300 0.585800
11.645000 0.565500
11.682700 0.545100
11.720500 0.524500
11.758200 0.503900
11.795900 0.483100
11.833700 0.462100
11.871400 0.441100
11.909100 0.419900
11.946800 0.398600
11.984600 0.377200
12.022300 0.388700
12.060000 0.434300
12.097800 0.475500
12.135500 0.491200
12.173200 0.604000
12.211000 0.826400
12.248700 1.162800
12.286400 1.112700
12.324200 1.079200
12.361900 1.025000
12.399600 1.041300
12.437300 1.060200
12.475100 1.079600
12.512800 1.089400
12.550500 1.103200
12.588300 1.133700
12.626000 1.180500
12.663700 1.243900
12.701500 1.446100
12.739200 1.505700
12.776900 1.583200
12.814700 1.670900
12.852400 1.754900
12.890100 1.820000
12.927800 1.857400
12.965600 1.609800
13.003300 1.641500
13.041000 1.676500
13.078800 1.714700
13.116500 2.229100
13.154200 1.858600
13.192000 1.810700
13.229700 1.720600
13.267400 1.573700
13.305200 1.484100
13.342900 1.378100
13.380600 1.259800
13.418300 1.160500
13.456100 1.057200
13.493800 0.973100
13.531500 0.897800
13.569300 0.828400
13.607000 0.763400
13.644700 0.702100
13.682500 0.692200
13.720200 0.799400
13.757900 0.488800
13.795700 0.394200
13.833400 0.309900
13.871100 0.235700
13.908900 0.171800
13.946600 0.122900
13.984300 0.482700
14.022000 0.819200
14.059800 0.506800
14.097500 0.499900
14.135200 0.509200
14.173000 0.518500
14.210700 0.527800
14.248400 0.537000
14.286200 0.546100
14.323900 0.555200
14.361600 0.569200
14.399400 0.601400
14.437100 0.646300
14.474800 0.708200
14.512500 0.826100
14.550300 0.979100
14.588000 1.133000
14.625700 1.286300
14.663500 2.625600
14.701200 1.992100
14.738900 1.980800
14.776700 2.155300
14.814400 2.440300
14.852100 2.468000
14.889900 2.867900
14.927600 2.987600
14.965300 2.978100
15.003000 2.922000
15.040800 3.450600
15.078500 2.787600
15.116200 2.681500
15.154000 2.595600
15.191700 2.558700
15.229400 2.459600
15.267200 2.215800
15.304900 2.084700
15.342600 1.891700
15.380400 1.772200
15.418100 1.757400
15.455800 1.857900
15.493500 1.958100
15.531300 2.120200
15.569000 2.288000
15.606700 2.592100
15.644500 2.992500
15.682200 3.561300
15.719900 4.419400
15.757700 4.531100
15.795400 4.588800
15.833100 4.064500
15.870900 3.190400
15.908600 2.208300
15.946300 1.644000
15.984000 1.030000
16.021800 0.723500
16.059500 0.504800
16.097200 0.371100
16.135000 0.473400
16.172700 0.596600
16.210400 0.714400
16.248200 0.829400
16.285900 0.941800
16.323600 1.051400
16.361400 1.157300
16.399100 1.257300
16.436800 1.400600
16.474500 1.538400
16.512300 1.669500
16.550000 1.854900
16.587700 2.140400
16.625500 2.400100
16.663200 2.561400
16.700900 2.631300
16.738700 2.682000
16.776400 2.714100
16.814100 2.619700
16.851900 2.342300
16.889600 2.172700
16.927300 2.000000
16.965000 1.787600
17.002800 1.503300
17.040500 1.203800
17.078200 0.981400
17.116000 0.800500
17.153700 0.679800
17.191400 0.592400
17.229200 0.523800
17.266900 0.467900
17.304600 0.388700
17.342400 0.390500
17.380100 0.413600
17.417800 0.443200
17.455500 0.471400
17.493300 0.498200
17.531000 0.524000
17.568700 0.550300
17.606500 0.577000
17.644200 0.604300
17.681900 0.632200
17.719700 0.660500
17.757400 0.684400
17.795100 0.700000
17.832900 0.708100
17.870600 0.719300
17.908300 0.736900
17.946100 0.757000
17.983800 0.767800
18.021500 0.761500
18.059200 0.737800
18.097000 0.715800
18.134700 0.707600
18.172400 0.700700
18.210200 0.707700
18.247900 0.716000
18.285600 0.725700
18.323400 0.736500
18.361100 0.746200
18.398800 0.755100
18.436600 0.763200
18.474300 0.770500
18.512000 0.777000
18.549700 0.780700
18.587500 0.783200
18.625200 0.785000
18.662900 0.785900
18.700700 0.786100
18.738400 0.785900
18.776100 0.785400
18.813900 0.784800
18.851600 0.783800
18.889300 0.781800
18.927100 0.796100
18.964800 0.782400
19.002500 0.768800
19.040200 0.758700
19.078000 0.747800
19.115700 0.735400
19.153400 0.723200
19.191200 0.711100
19.228900 0.699200
19.266600 0.687400
19.304400 0.675800
19.342100 0.664400
19.379800 0.653200
19.417600 0.642200
19.455300 0.631400
19.493000 0.620600
19.530700 0.611300
19.568500 0.605000
19.606200 0.599800
19.643900 0.594700
19.681700 0.589800
19.719400 0.585100
19.757100 0.580900
19.794900 0.574900
19.832600 0.655200
19.870300 0.722400
19.908100 0.744600
19.945800 0.642200
19.983500 0.579300
20.021200 0.549700
20.059000 0.526600
20.096700 0.506500
20.134400 0.489400
20.172200 0.475300
20.209900 0.464200
20.247600 0.455500
20.285400 0.447300
20.323100 0.439300
20.360800 0.431400
20.398600 0.438500
20.436300 0.538400
20.474000 0.841100
20.511700 1.340500
20.549500 1.489200
20.587200 1.791300
20.624900 1.316900
20.662700 1.128900
20.700400 1.128800
20.738100 1.134700
20.775900 1.148400
20.813600 1.174300
20.851300 1.205700
20.889100 1.239400
20.926800 1.362000
20.964500 1.264200
21.002200 1.200300
21.040000 1.241600
21.077700 1.332400
21.115400 1.466200
21.153200 1.967200
21.190900 1.730300
21.228600 1.647600
21.266400 1.611200
21.304100 1.599200
21.341800 1.589500
21.379600 1.578200
21.417300 1.570300
21.455000 1.568000
21.492700 1.566700
21.530500 1.570500
21.568200 1.601600
21.605900 1.626200
21.643700 1.614400
21.681400 1.601700
21.719100 1.679500
21.756900 1.612500
21.794600 1.482000
21.832300 1.317600
21.870100 1.206400
21.907800 1.175200
21.945500 1.148000
21.983300 1.115100
22.021000 1.062500
22.058700 1.031500
22.096400 1.074600
22.134200 1.145000
22.171900 1.214500
22.209600 1.260800
22.247400 1.399500
22.285100 1.532000
22.322800 1.491900
22.360600 1.413400
22.398300 1.444500
22.436000 1.463200
22.473800 1.469000
22.511500 1.477000
22.549200 1.499300
22.586900 1.531500
22.624700 1.573800
22.662400 1.612700
22.700100 1.778800
22.737900 1.450300
22.775600 1.386500
22.813300 1.329100
22.851100 1.280300
22.888800 1.234600
22.926500 1.198000
22.964300 1.183000
23.002000 1.168600
23.039700 1.192300
23.077400 1.364800
23.115200 1.526700
23.152900 1.658500
23.190600 1.755500
23.228400 1.829300
23.266100 1.877100
23.303800 1.870200
23.341600 1.826900
23.379300 1.719100
23.417000 1.639300
23.454800 1.565000
23.492500 1.521500
23.530200 1.476900
23.567900 1.448700
23.605700 1.591800
23.643400 1.422400
23.681100 1.019600
23.718900 1.042300
23.756600 1.128300
23.794300 1.229700
23.832100 1.349900
23.869800 1.488500
23.907500 1.502300
23.945300 1.220900
23.983000 1.249300
24.020700 1.313400
24.058400 1.405600
24.096200 1.485300
24.133900 1.501700
24.171600 1.540300
24.209400 1.610200
24.247100 1.697300
24.284800 1.733000
24.322600 1.731100
24.360300 1.703400
24.398000 1.648700
24.435800 1.653200
24.473500 1.599100
24.511200 1.480900
24.548900 1.374600
24.586700 1.370600
24.624400 1.460300
24.662100 1.462000
24.699900 1.480700
24.737600 1.303300
24.775300 1.146200
24.813100 1.130200
24.850800 1.099200
24.888500 1.081200
24.926300 1.115900
24.964000 1.156000
25.001700 1.183100
25.039400 1.222700
25.077200 1.286900
25.114900 1.377600
25.152600 1.468200
25.190400 1.563200
25.228100 1.679600
25.265800 1.850000
25.303600 2.048700
25.341300 2.036500
25.379000 1.953800
25.416800 1.963900
25.454500 1.974400
25.492200 1.986100
25.529900 2.021500
25.567700 2.043800
25.605400 2.006500
25.643100 2.013600
25.680900 2.020000
25.718600 2.014300
25.756300 1.967000
25.794100 1.881300
25.831800 1.770300
25.869500 1.658400
25.907300 1.543800
25.945000 1.422800
25.982700 1.344400
26.020500 1.288900
26.058200 1.275700
26.095900 1.301700
26.133600 1.262600
26.171400 1.170800
26.209100 1.143400
26.246800 1.121100
26.284600 1.101000
26.322300 1.081300
26.360000 1.060300
26.397800 1.036000
26.435500 1.008700
26.473200 1.039800
26.511000 1.113900
26.548700 1.192200
26.586400 1.298000
26.624100 1.375500
26.661900 1.420100
26.699600 1.431000
26.737300 1.413000
26.775100 1.378700
26.812800 1.326800
26.850500 1.275300
26.888300 1.207900
26.926000 1.136300
26.963700 1.114600
27.001500 1.123200
27.039200 1.155800
27.076900 1.283900
27.114600 1.455400
27.152400 1.546400
27.190100 1.627000
27.227800 1.681800
27.265600 1.714000
27.303300 1.724500
27.341000 1.717400
27.378800 1.714600
27.416500 1.767100
27.454200 1.700500
27.492000 1.602300
27.529700 1.565700
27.567400 1.537200
27.605100 1.526800
27.642900 1.522800
27.680600 1.516400
27.718300 1.517300
27.756100 1.533900
27.793800 1.571400
27.831500 1.634300
27.869300 1.747400
27.907000 1.752000
27.944700 1.811700
27.982500 1.805900
28.020200 1.778200
28.057900 1.773200
28.095600 1.765400
28.133400 1.802700
28.171100 1.811400
28.208800 1.788800
28.246600 1.844100
28.284300 2.049600
28.322000 2.154600
28.359800 2.182900
28.397500 2.239000
28.435200 2.273600
28.473000 2.278400
28.510700 2.216500
28.548400 2.140700
28.586100 2.189300
28.623900 2.084900
28.661600 1.889000
28.699300 1.784800
28.737100 1.737800
28.774800 1.698800
28.812500 1.653600
28.850300 1.585400
28.888000 1.517000
28.925700 1.472300
28.963500 1.439800
29.001200 1.413200
29.038900 1.386300
29.076600 1.357500
29.114400 1.335200
29.152100 1.327600
29.189800 1.403700
29.227600 1.500000
29.265300 1.285300
29.303000 1.248500
29.340800 1.237800
29.378500 1.231700
29.416200 1.228300
29.454000 1.227500
29.491700 1.230800
29.529400 1.239100
29.567100 1.243300
29.604900 1.264600
29.642600 1.295000
29.680300 1.327300
29.718100 1.363100
29.755800 1.403700
29.793500 1.440600
29.831300 1.482100
29.869000 1.518500
29.906700 1.551800
29.944500 1.583300
29.982200 1.617700
30.019900 1.647200
30.057700 1.915300
30.095400 2.020100
30.133100 1.940700
30.170800 1.771600
30.208600 1.599000
30.246300 1.467700
30.284000 1.390400
30.321800 1.374400
30.359500 1.416300
30.397200 1.506500
30.435000 1.681700
30.472700 2.032400
30.510400 2.491100
30.548200 2.869700
30.585900 2.771800
30.623600 2.796900
30.661300 2.505700
30.699100 2.286700
30.736800 2.187500
30.774500 2.123600
30.812300 2.094800
30.850000 2.237000
30.887700 2.518900
30.925500 2.544500
30.963200 2.434000
31.000900 2.260400
31.038700 2.274900
31.076400 2.287300
31.114100 2.353500
31.151800 2.545800
31.189600 2.651300
31.227300 2.794100
31.265000 2.907900
31.302800 3.246800
31.340500 3.470000
31.378200 3.621700
31.416000 3.764600
31.453700 2.990200
31.491400 2.735000
31.529200 2.560800
31.566900 2.449200
31.604600 2.318800
31.642300 2.170500
31.680100 2.071500
31.717800 2.136900
31.755500 2.435900
31.793300 2.815800
31.831000 2.801500
31.868700 2.540500
31.906500 2.367000
31.944200 2.256500
31.981900 2.087700
32.019700 1.909900
32.057400 1.859200
32.095100 1.864000
32.132800 1.931900
32.170600 2.001300
32.208300 2.096200
32.246000 2.304700
32.283800 2.386200
32.321500 2.078600
32.359200 2.018900
32.397000 2.051900
32.434700 2.007000
32.472400 1.894200
32.510200 1.782200
32.547900 1.802600
32.585600 1.820700
32.623300 1.843800
32.661100 1.862300
32.698800 1.908500
32.736500 2.022200
32.774300 2.014400
32.812000 1.949900
32.849700 1.925200
32.887500 2.016300
32.925200 1.987300
32.962900 1.967800
33.000700 2.206400
33.038400 2.066100
33.076100 2.053300
33.113800 2.093700
33.151600 1.836100
33.189300 1.821400
33.227000 1.992700
33.264800 2.104600
33.302500 2.723300
33.340200 2.444900
33.378000 2.681700
33.415700 2.510300
33.453400 2.562500
33.491200 2.643500
33.528900 2.748100
33.566600 2.914900
33.604300 3.145200
33.642100 3.207600
33.679800 3.205500
33.717500 3.314800
33.755300 3.626200
33.793000 3.430500
33.830700 3.099300
33.868500 2.797400
33.906200 2.376500
33.943900 2.203500
33.981700 2.071300
34.019400 1.912000
34.057100 1.871200
34.094900 1.856800
34.132600 1.819800
34.170300 1.730800
34.208000 1.685300
34.245800 1.684400
34.283500 1.728100
34.321200 1.816300
34.359000 1.640100
34.396700 1.623200
34.434400 1.615300
34.472200 1.610400
34.509900 1.608300
34.547600 1.606500
34.585400 1.603600
34.623100 1.608800
34.660800 1.618800
34.698500 1.638300
34.736300 1.665600
34.774000 1.695200
34.811700 1.726200
34.849500 1.757900
34.887200 1.790800
34.924900 1.827600
34.962700 1.860100
35.000400 1.890700
35.038100 1.931800
35.075900 1.979000
35.113600 2.022600
35.151300 2.057700
35.189000 2.087300
35.226800 2.402200
35.264500 2.621600
35.302200 2.957000
35.340000 2.779900
35.377700 2.739100
35.415400 2.642000
35.453200 2.507700
35.490900 2.351800
35.528600 2.214400
35.566400 2.231600
35.604100 2.258500
35.641800 2.255300
35.679500 2.292600
35.717300 2.355200
35.755000 2.412500
35.792700 2.380600
35.830500 2.345500
35.868200 2.318900
35.905900 2.327900
35.943700 2.327800
35.981400 2.308000
36.019100 2.343100
36.056900 2.256700
36.094600 2.331000
36.132300 2.393600
36.170000 2.360200
36.207800 2.503500
36.245500 2.562800
36.283200 2.477300
36.321000 2.412900
36.358700 2.485200
36.396400 2.323900
36.434200 2.329300
36.471900 2.327500
36.509600 2.551700
36.547400 2.621100
36.585100 2.391600
36.622800 2.250100
36.660500 2.274900
36.698300 2.271300
36.736000 2.226800
36.773700 2.155200
36.811500 2.007100
36.849200 1.784000
36.886900 1.786000
36.924700 1.838400
36.962400 1.894400
37.000100 1.954600
37.037900 2.012800
37.075600 1.964800
37.113300 1.818500
37.151000 1.658600
37.188800 1.578500
37.226500 1.562900
37.264200 1.695900
37.302000 1.975700
37.339700 2.043700
37.377400 2.006100
37.415200 1.971200
37.452900 1.905600
37.490600 1.791600
37.528400 1.640000
37.566100 1.523300
37.603800 1.436600
37.641500 1.360700
37.679300 1.280300
37.717000 1.195600
37.754700 1.124300
37.792500 1.081500
37.830200 1.058300
37.867900 1.094900
37.905700 1.169300
37.943400 1.275800
37.981100 1.427900
38.018900 1.629800
38.056600 1.754300
38.094300 1.836000
38.132100 1.965200
38.169800 2.098000
38.207500 2.200000
38.245200 2.342900
38.283000 2.528000
38.320700 2.575400
38.358400 2.628100
38.396200 2.784600
38.433900 2.785400
38.471600 2.655300
38.509400 2.419100
38.547100 2.219100
38.584800 2.131300
38.622600 1.978400
38.660300 1.793900
38.698000 1.641600
38.735700 1.535400
38.773500 1.502400
38.811200 1.469800
38.848900 1.438600
38.886700 1.445300
38.924400 1.470100
38.962100 1.436300
38.999900 1.466700
39.037600 1.552000
39.075300 1.668800
39.113100 1.740200
39.150800 1.791300
39.188500 1.823400
39.226200 1.848900
39.264000 1.914600
39.301700 1.976200
39.339400 2.027900
39.377200 2.011000
39.414900 1.991200
39.452600 2.186500
39.490400 2.156900
39.528100 2.064400
39.565800 2.005900
39.603600 1.991500
39.641300 2.082100
39.679000 2.377300
39.716700 2.698100
39.754500 2.889400
39.792200 2.831100
39.829900 2.744300
39.867700 2.653900
39.905400 2.589200
39.943100 2.584100
39.980900 2.572300
40.018600 2.528700
40.056300 2.486600
40.094100 2.434400
40.131800 2.288500
40.169500 2.030900
40.207200 1.830500
40.245000 1.603800
40.282700 1.339200
40.320400 1.042100
40.358200 0.861000
40.395900 0.835400
40.433600 0.991600
40.471400 1.175100
40.509100 1.392200
40.546800 1.712900
40.584600 1.845400
40.622300 1.903100
40.660000 2.009700
40.697700 2.237900
40.735500 2.637300
40.773200 2.444800
40.810900 2.578100
40.848700 2.666000
40.886400 2.653800
40.924100 2.613100
40.961900 2.797600
40.999600 2.111100
41.037300 1.768700
41.075100 1.444200
41.112800 1.419900
41.150500 1.652200
41.188200 1.963000
41.226000 2.390500
41.263700 2.643200
41.301400 3.005300
41.339200 3.368100
41.376900 3.116400
41.414600 3.007000
41.452400 2.981600
41.490100 2.887400
41.527800 2.775500
41.565600 2.751200
41.603300 2.711200
41.641000 2.660900
41.678700 2.435900
41.716500 2.193400
41.754200 1.963500
41.791900 1.933400
41.829700 1.941600
41.867400 2.003200
41.905100 2.178900
41.942900 2.325800
41.980600 2.417000
42.018300 2.438100
42.056100 2.520500
42.093800 2.838000
42.131500 2.729300
42.169300 2.574800
42.207000 2.551400
42.244700 2.539900
42.282400 2.384000
42.320200 2.354400
42.357900 2.389200
42.395600 2.444200
42.433400 3.240700
42.471100 2.686900
42.508800 2.520200
42.546600 2.298400
42.584300 2.036900
42.622000 1.851000
42.659800 1.761800
42.697500 1.703900
42.735200 1.627800
42.772900 1.533200
42.810700 1.434200
42.848400 1.307800
42.886100 1.237300
42.923900 1.196700
42.961600 1.176500
42.999300 1.230200
43.037100 1.340300
43.074800 1.501800
43.112500 1.672600
43.150300 1.861500
43.188000 2.086300
43.225700 2.351200
43.263400 2.649500
43.301200 2.806700
43.338900 2.823400
43.376600 2.759400
43.414400 2.721700
43.452100 2.657600
43.489800 2.443600
43.527600 2.252100
43.565300 2.049900
43.603000 1.822500
43.640800 1.596700
43.678500 1.341800
43.716200 1.178600
43.753900 1.108700
43.791700 1.047000
43.829400 1.000800
43.867100 0.980000
43.904900 1.112100
43.942600 1.235500
43.980300 1.138500
44.018100 1.242200
44.055800 1.376000
44.093500 1.522200
44.131300 1.684700
44.169000 1.864800
44.206700 2.065900
44.244400 2.255700
44.282200 2.436100
44.319900 2.699700
44.357600 2.570000
44.395400 2.535300
44.433100 2.492300
44.470800 2.455900
44.508600 2.423000
44.546300 2.395100
44.584000 2.522700
44.621800 2.567900
44.659500 2.206500
44.697200 2.025100
44.734900 2.013800
44.772700 1.996900
44.810400 1.973400
44.848100 1.940400
44.885900 1.897500
44.923600 1.860400
44.961300 1.838500
44.999100 1.816200
45.036800 1.746000
45.074500 1.635600
45.112300 1.502400
45.150000 1.447800
45.187700 1.482300
45.225400 1.571500
45.263200 1.811000
45.300900 2.123700
45.338600 2.488100
45.376400 2.981800
45.414100 2.604900
45.451800 2.353900
45.489600 2.218300
45.527300 2.106200
45.565000 2.057100
45.602800 2.021100
45.640500 1.975600
45.678200 1.917500
45.715900 1.918400
45.753700 2.060400
45.791400 2.083900
45.829100 2.277900
45.866900 2.406700
45.904600 2.321400
45.942300 2.278900
45.980100 2.266300
46.017800 2.277500
46.055500 2.279600
46.093300 2.280700
46.131000 2.300600
46.168700 2.306400
46.206400 2.303900
46.244200 2.552500
46.281900 2.254700
46.319600 2.230700
46.357400 2.174800
46.395100 2.193600
46.432800 2.087400
46.470600 1.831400
46.508300 1.671800
46.546000 1.638800
46.583800 1.730900
46.621500 1.855700
46.659200 1.812200
46.697000 1.769400
46.734700 1.746500
46.772400 1.745800
46.810100 1.762100
46.847900 1.790500
46.885600 1.758100
46.923300 1.753800
46.961100 1.710600
46.998800 1.679800
47.036500 1.657200
47.074300 1.642900
47.112000 1.645400
47.149700 1.658400
47.187500 1.671100
47.225200 1.687700
47.262900 1.708400
47.300600 1.738100
47.338400 1.775200
47.376100 1.816100
47.413800 1.860100
47.451600 1.909100
47.489300 1.962700
47.527000 2.018900
47.564800 2.076300
47.602500 2.139800
47.640200 2.221000
47.678000 2.382200
47.715700 2.459600
47.753400 2.268700
47.791100 2.256300
47.828900 2.230800
47.866600 2.175800
47.904300 2.749400
47.942100 1.790500
47.979800 1.750600
48.017500 1.725800
48.055300 1.834200
48.093000 1.749500
48.130700 1.741500
48.168500 1.755600
48.206200 1.977900
48.243900 2.031100
48.281600 2.007100
48.319400 2.017000
48.357100 2.081600
48.394800 2.156000
48.432600 2.231900
48.470300 2.308400
48.508000 2.389200
48.545800 2.523700
48.583500 2.828800
48.621200 2.827500
48.659000 2.890000
48.696700 2.733900
48.734400 2.617800
48.772100 2.597500
48.809900 2.566900
48.847600 2.441600
48.885300 2.263800
48.923100 2.047300
48.960800 1.835300
48.998500 1.667200
49.036300 1.597400
49.074000 1.555500
49.111700 1.505300
49.149500 1.457900
49.187200 1.436500
49.224900 1.422300
49.262600 1.388800
49.300400 1.405300
49.338100 1.314700
49.375800 1.246300
49.413600 1.227400
49.451300 1.200100
49.489000 1.158800
49.526800 1.082300
49.564500 0.974000
49.602200 0.914400
49.640000 0.881500
49.677700 0.853600
49.715400 0.852300
49.753100 0.943600
49.790900 1.059000
49.828600 0.938600
49.866300 0.891600
49.904100 0.866100
49.941800 0.837200
49.979500 0.804800
50.017300 0.769000
50.055000 0.744300
50.092700 0.727600
50.130500 0.715000
50.168200 0.715600
50.205900 0.734200
50.243600 0.749400
50.281400 0.758700
50.319100 0.766300
50.356800 0.770600
50.394600 0.771100
50.432300 0.773600
50.470000 0.771600
50.507800 0.766100
50.545500 0.757100
50.583200 0.744400
50.621000 0.726700
50.658700 0.705300
50.696400 0.680700
50.734200 0.647300
50.771900 0.599500
50.809600 0.551400
50.847300 0.524500
50.885100 0.483500
50.922800 0.472900
50.960500 0.518300
50.998300 0.537500
51.036000 0.512000
51.073700 0.396500
51.111500 0.289700
51.149200 0.215800
51.186900 0.143700
51.224700 0.062200
51.262400 0.014500
51.300100 0.000300
51.337800 0.000000
51.375600 0.000000
51.413300 0.000000
51.451000 0.000000
51.488800 0.000000
51.526500 0.000000
51.564200 0.000000
51.602000 0.000000
51.639700 0.000000
51.677400 0.000000
51.715200 0.000000
51.752900 0.000000
51.790600 0.000000
51.828300 0.000000
51.866100 0.000000
51.903800 0.000000
51.941500 0.000000
51.979300 0.000000
52.017000 0.000000
52.054700 0.000000
52.092500 0.000000
52.130200 0.000000
52.167900 0.000000
52.205700 0.000000
52.243400 0.000000
52.281100 0.000000
52.318800 0.000000
52.356600 0.000000
52.394300 0.000000
52.432000 0.000000
52.469800 0.000000
52.507500 0.000000
52.545200 0.000000
52.583000 0.000000
52.620700 0.000000
52.658400 0.000000
52.696200 0.000000
52.733900 0.000000
52.771600 0.000000
52.809300 0.000000
52.847100 0.000000
52.884800 0.000000
52.922500 0.000000
52.960300 0.000000
52.998000 0.000000
53.035700 0.000000
53.073500 0.000000
53.111200 0.000000
53.148900 0.000000
53.186700 0.000000
53.224400 0.000000
53.262100 0.000000
53.299800 0.000000
53.337600 0.000000
53.375300 0.000000
53.413000 0.000000
53.450800 0.000000
53.488500 0.000000
53.526200 0.000000
53.564000 0.000000
53.601700 0.000000
53.639400 0.000000
53.677200 0.000000
53.714900 0.000000
53.752600 0.000000
53.790300 0.000000
53.828100 0.000000
53.865800 0.000000
53.903500 0.000000
53.941300 0.000000
53.979000 0.000000
54.016700 0.000000
54.054500 0.000000
54.092200 0.000000
54.129900 0.000000
54.167700 0.000000
54.205400 0.000000
54.243100 0.000000
54.280800 0.000000
54.318600 0.000000
54.356300 0.000000
54.394000 0.000000
54.431800 0.000000
54.469500 0.000000
54.507200 0.000000
54.545000 0.000000
54.582700 0.000000
54.620400 0.000000
54.658200 0.000000
54.695900 0.000000
54.733600 0.000000
e
