set title 'mp-1187544 - Density of States'
set xlabel 'Energy (eV)'
set ylabel 'DOS (states/eV)'
set grid
set xrange [-10:10]
set yrange [0:58.237]
set xzeroaxis lt -1
set terminal png size 800,600
set output 'mp-1187544_dos_gnuplot.png'
plot '-' using 1:2 with lines title 'DOS'
-8.225500 0.000000
-8.208400 0.000000
-8.191300 0.000000
-8.174200 0.000000
-8.157100 0.000000
-8.140000 0.000000
-8.122900 0.000000
-8.105800 0.000000
-8.088700 0.000000
-8.071600 0.000000
-8.054500 0.000000
-8.037400 0.000000
-8.020300 0.000000
-8.003200 0.000000
-7.986100 0.000000
-7.969000 0.000000
-7.951900 0.000000
-7.934800 0.000000
-7.917700 0.000000
-7.900600 0.000000
-7.883500 0.000000
-7.866400 0.000000
-7.849300 0.000000
-7.832200 0.000000
-7.815100 0.000000
-7.798000 0.000000
-7.780900 0.000000
-7.763800 0.000000
-7.746700 0.000000
-7.729600 0.000000
-7.712500 0.000000
-7.695400 0.000000
-7.678300 0.000000
-7.661200 0.000000
-7.644100 0.000000
-7.627000 0.000000
-7.609900 0.000000
-7.592800 0.000000
-7.575700 0.000000
-7.558600 0.000000
-7.541500 0.000000
-7.524400 0.000000
-7.507300 0.000000
-7.490200 0.000000
-7.473100 0.000000
-7.456000 0.000000
-7.438900 0.000000
-7.421800 0.000000
-7.404700 0.000000
-7.387600 0.000000
-7.370500 0.000000
-7.353400 0.000000
-7.336300 0.000000
-7.319200 0.000000
-7.302100 0.000000
-7.285000 0.000000
-7.267900 0.000000
-7.250800 0.000000
-7.233700 0.000000
-7.216600 0.000000
-7.199500 0.000000
-7.182400 0.000000
-7.165300 0.000000
-7.148200 0.000000
-7.131100 0.000000
-7.114000 0.000000
-7.096900 0.000000
-7.079800 0.000000
-7.062700 0.000000
-7.045600 0.000000
-7.028600 0.000000
-7.011500 0.000000
-6.994400 0.000000
-6.977300 0.000000
-6.960200 0.000000
-6.943100 0.000000
-6.926000 0.000000
-6.908900 0.000000
-6.891800 0.000000
-6.874700 0.000000
-6.857600 0.000000
-6.840500 0.000000
-6.823400 0.000000
-6.806300 0.000100
-6.789200 0.000400
-6.772100 0.002500
-6.755000 0.011900
-6.737900 0.046200
-6.720800 0.147300
-6.703700 0.389300
-6.686600 0.864500
-6.669500 1.645600
-6.652400 2.760700
-6.635300 4.213400
-6.618200 6.004900
-6.601100 8.096800
-6.584000 10.352900
-6.566900 12.538800
-6.549800 14.348400
-6.532700 15.440500
-6.515600 15.602100
-6.498500 15.016000
-6.481400 14.292400
-6.464300 14.037200
-6.447200 14.325700
-6.430100 14.701600
-6.413000 14.737100
-6.395900 14.523500
-6.378800 14.610100
-6.361700 15.566100
-6.344600 17.649900
-6.327500 20.802100
-6.310400 24.748200
-6.293300 28.963000
-6.276200 32.670100
-6.259100 35.186600
-6.242000 36.421200
-6.224900 36.936100
-6.207800 37.401500
-6.190700 38.022500
-6.173600 38.574000
-6.156500 38.912700
-6.139400 39.292500
-6.122300 40.155900
-6.105200 41.712300
-6.088100 43.732900
-6.071000 45.677400
-6.053900 46.990400
-6.036800 47.358300
-6.019700 46.786400
-6.002600 45.470700
-5.985500 43.598500
-5.968400 41.274900
-5.951300 38.581500
-5.934200 35.639100
-5.917100 32.698100
-5.900000 30.299800
-5.882900 29.309600
-5.865800 30.613100
-5.848700 34.557200
-5.831600 40.452800
-5.814500 46.584800
-5.797400 51.047400
-5.780300 52.942300
-5.763200 52.739600
-5.746100 51.289400
-5.729000 48.584800
-5.711900 43.788200
-5.694800 36.515000
-5.677700 27.777200
-5.660600 19.431000
-5.643500 12.881400
-5.626400 8.481200
-5.609300 5.874600
-5.592200 4.525500
-5.575100 3.943000
-5.558000 3.702300
-5.540900 3.471800
-5.523800 3.091900
-5.506700 2.620500
-5.489600 2.252200
-5.472500 2.138100
-5.455400 2.257600
-5.438300 2.440100
-5.421200 2.495000
-5.404100 2.346900
-5.387000 2.083200
-5.369900 1.868900
-5.352800 1.792000
-5.335700 1.789700
-5.318600 1.720700
-5.301500 1.496000
-5.284400 1.140100
-5.267300 0.752500
-5.250200 0.428100
-5.233100 0.209100
-5.216000 0.087000
-5.198900 0.030500
-5.181800 0.008900
-5.164700 0.002100
-5.147600 0.000400
-5.130500 0.000100
-5.113400 0.000000
-5.096300 0.000000
-5.079200 0.000000
-5.062100 0.000000
-5.045000 0.000000
-5.027900 0.000000
-5.010800 0.000000
-4.993700 0.000000
-4.976600 0.000000
-4.959500 0.000000
-4.942400 0.000000
-4.925300 0.000000
-4.908200 0.000000
-4.891100 0.000000
-4.874000 0.000000
-4.856900 0.000000
-4.839800 0.000000
-4.822700 0.000000
-4.805600 0.000000
-4.788500 0.000000
-4.771400 0.000000
-4.754300 0.000000
-4.737200 0.000000
-4.720100 0.000000
-4.703000 0.000000
-4.685900 0.000000
-4.668800 0.000000
-4.651700 0.000000
-4.634600 0.000000
-4.617500 0.000000
-4.600400 0.000000
-4.583300 0.000000
-4.566200 0.000000
-4.549100 0.000000
-4.532000 0.000000
-4.514900 0.000000
-4.497800 0.000000
-4.480700 0.000000
-4.463600 0.000000
-4.446500 0.000000
-4.429400 0.000000
-4.412300 0.000000
-4.395200 0.000000
-4.378100 0.000000
-4.361000 0.000000
-4.343900 0.000000
-4.326800 0.000000
-4.309700 0.000000
-4.292600 0.000000
-4.275500 0.000000
-4.258400 0.000000
-4.241300 0.000000
-4.224200 0.000000
-4.207100 0.000000
-4.190000 0.000000
-4.172900 0.000000
-4.155800 0.000000
-4.138700 0.000000
-4.121600 0.000000
-4.104500 0.000000
-4.087400 0.000000
-4.070300 0.000000
-4.053200 0.000000
-4.036100 0.000000
-4.019000 0.000000
-4.001900 0.000000
-3.984800 0.000000
-3.967700 0.000000
-3.950600 0.000000
-3.933500 0.000000
-3.916400 0.000000
-3.899300 0.000000
-3.882200 0.000000
-3.865100 0.000000
-3.848000 0.000000
-3.830900 0.000000
-3.813800 0.000000
-3.796700 0.000000
-3.779600 0.000000
-3.762500 0.000000
-3.745400 0.000000
-3.728300 0.000000
-3.711200 0.000000
-3.694100 0.000000
-3.677000 0.000000
-3.659900 0.000000
-3.642800 0.000000
-3.625700 0.000000
-3.608600 0.000000
-3.591500 0.000000
-3.574400 0.000000
-3.557300 0.000000
-3.540200 0.000000
-3.523100 0.000000
-3.506000 0.000000
-3.488900 0.000000
-3.471800 0.000000
-3.454700 0.000000
-3.437600 0.000000
-3.420500 0.000000
-3.403400 0.000000
-3.386300 0.000000
-3.369200 0.000000
-3.352200 0.000000
-3.335100 0.000000
-3.318000 0.000000
-3.300900 0.000000
-3.283800 0.000000
-3.266700 0.000000
-3.249600 0.000000
-3.232500 0.000000
-3.215400 0.000000
-3.198300 0.000000
-3.181200 0.000000
-3.164100 0.000000
-3.147000 0.000000
-3.129900 0.000000
-3.112800 0.000000
-3.095700 0.000000
-3.078600 0.000000
-3.061500 0.000000
-3.044400 0.000000
-3.027300 0.000000
-3.010200 0.000000
-2.993100 0.000000
-2.976000 0.000000
-2.958900 0.000000
-2.941800 0.000000
-2.924700 0.000100
-2.907600 0.000400
-2.890500 0.001400
-2.873400 0.004500
-2.856300 0.011300
-2.839200 0.023400
-2.822100 0.040200
-2.805000 0.060800
-2.787900 0.087000
-2.770800 0.125700
-2.753700 0.182000
-2.736600 0.250700
-2.719500 0.315800
-2.702400 0.362200
-2.685300 0.389300
-2.668200 0.411500
-2.651100 0.443500
-2.634000 0.483200
-2.616900 0.508900
-2.599800 0.502500
-2.582700 0.483400
-2.565600 0.506400
-2.548500 0.613900
-2.531400 0.797300
-2.514300 1.023800
-2.497200 1.291400
-2.480100 1.626600
-2.463000 2.013300
-2.445900 2.347100
-2.428800 2.486000
-2.411700 2.354200
-2.394600 2.004200
-2.377500 1.597300
-2.360400 1.322200
-2.343300 1.294800
-2.326200 1.492600
-2.309100 1.771900
-2.292000 1.960900
-2.274900 1.964900
-2.257800 1.811600
-2.240700 1.619200
-2.223600 1.521200
-2.206500 1.588900
-2.189400 1.788100
-2.172300 2.010200
-2.155200 2.159100
-2.138100 2.200800
-2.121000 2.132600
-2.103900 1.951100
-2.086800 1.676000
-2.069700 1.380100
-2.052600 1.164400
-2.035500 1.106400
-2.018400 1.230300
-2.001300 1.502600
-1.984200 1.842800
-1.967100 2.146400
-1.950000 2.313900
-1.932900 2.286700
-1.915800 2.089400
-1.898700 1.831500
-1.881600 1.624200
-1.864500 1.485400
-1.847400 1.349800
-1.830300 1.164300
-1.813200 0.945400
-1.796100 0.756500
-1.779000 0.667000
-1.761900 0.733400
-1.744800 0.977400
-1.727700 1.346400
-1.710600 1.694600
-1.693500 1.846200
-1.676400 1.719100
-1.659300 1.393900
-1.642200 1.044200
-1.625100 0.796600
-1.608000 0.660500
-1.590900 0.576100
-1.573800 0.502000
-1.556700 0.450400
-1.539600 0.461900
-1.522500 0.563900
-1.505400 0.742000
-1.488300 0.928700
-1.471200 1.029000
-1.454100 0.987000
-1.437000 0.841300
-1.419900 0.707100
-1.402800 0.695000
-1.385700 0.828100
-1.368600 1.015500
-1.351500 1.114000
-1.334400 1.045600
-1.317300 0.860900
-1.300200 0.678400
-1.283100 0.574000
-1.266000 0.537100
-1.248900 0.517500
-1.231800 0.495200
-1.214700 0.502800
-1.197600 0.581500
-1.180500 0.717600
-1.163400 0.833500
-1.146300 0.848400
-1.129200 0.745000
-1.112100 0.577800
-1.095000 0.427000
-1.077900 0.349100
-1.060800 0.361500
-1.043700 0.455200
-1.026600 0.611500
-1.009500 0.811200
-0.992400 1.042100
-0.975300 1.301800
-0.958200 1.575400
-0.941100 1.800100
-0.924000 1.883100
-0.906900 1.783800
-0.889800 1.565100
-0.872700 1.341600
-0.855600 1.188500
-0.838500 1.116800
-0.821400 1.109500
-0.804300 1.142200
-0.787200 1.169500
-0.770100 1.146200
-0.753000 1.092700
-0.735900 1.107700
-0.718800 1.278100
-0.701700 1.584700
-0.684600 1.908100
-0.667500 2.116400
-0.650400 2.139100
-0.633300 1.975900
-0.616200 1.671000
-0.599100 1.293600
-0.582000 0.933000
-0.564900 0.683000
-0.547800 0.605700
-0.530700 0.702500
-0.513600 0.921300
-0.496500 1.189000
-0.479400 1.439700
-0.462300 1.623000
-0.445200 1.711100
-0.428100 1.718700
-0.411000 1.706300
-0.393900 1.731900
-0.376800 1.788400
-0.359700 1.811400
-0.342600 1.755100
-0.325500 1.645900
-0.308400 1.559100
-0.291300 1.559900
-0.274200 1.660900
-0.257100 1.820800
-0.240000 1.978500
-0.222900 2.091200
-0.205800 2.141000
-0.188700 2.112200
-0.171600 1.983600
-0.154500 1.754200
-0.137400 1.462700
-0.120300 1.172500
-0.103200 0.943100
-0.086100 0.816400
-0.069000 0.808000
-0.051900 0.894100
-0.034800 1.011500
-0.017700 1.093900
-0.000600 1.125100
0.016500 1.146000
0.033600 1.200000
0.050700 1.278600
0.067800 1.334600
0.084900 1.335500
0.102000 1.285200
0.119100 1.201800
0.136200 1.106900
0.153300 1.043500
0.170400 1.070200
0.187500 1.205700
0.204600 1.385900
0.221700 1.508700
0.238800 1.528600
0.255900 1.482700
0.273000 1.417300
0.290100 1.325300
0.307100 1.184500
0.324200 1.028300
0.341300 0.941600
0.358400 0.988200
0.375500 1.155600
0.392600 1.357700
0.409700 1.486700
0.426800 1.485400
0.443900 1.390000
0.461000 1.292000
0.478100 1.245100
0.495200 1.232200
0.512300 1.234300
0.529400 1.297600
0.546500 1.492000
0.563600 1.800900
0.580700 2.083900
0.597800 2.171000
0.614900 2.000000
0.632000 1.660300
0.649100 1.318100
0.666200 1.115700
0.683300 1.120500
0.700400 1.322300
0.717500 1.658800
0.734600 2.063200
0.751700 2.503200
0.768800 2.971100
0.785900 3.427500
0.803000 3.768500
0.820100 3.886700
0.837200 3.772500
0.854300 3.523400
0.871400 3.247500
0.888500 2.993100
0.905600 2.760400
0.922700 2.538600
0.939800 2.325600
0.956900 2.139400
0.974000 2.006600
0.991100 1.931900
1.008200 1.895600
1.025300 1.882500
1.042400 1.891000
1.059500 1.905500
1.076600 1.883400
1.093700 1.789400
1.110800 1.638300
1.127900 1.484000
1.145000 1.366200
1.162100 1.283600
1.179200 1.214900
1.196300 1.142300
1.213400 1.050700
1.230500 0.930800
1.247600 0.792400
1.264700 0.666900
1.281800 0.586100
1.298900 0.558100
1.316000 0.567900
1.333100 0.603200
1.350200 0.675500
1.367300 0.801900
1.384400 0.966700
1.401500 1.114600
1.418600 1.186500
1.435700 1.157200
1.452800 1.049700
1.469900 0.918600
1.487000 0.807700
1.504100 0.718200
1.521200 0.625100
1.538300 0.520500
1.555400 0.425300
1.572500 0.359000
1.589600 0.314300
1.606700 0.266400
1.623800 0.202100
1.640900 0.132900
1.658000 0.082400
1.675100 0.067700
1.692200 0.090200
1.709300 0.134000
1.726400 0.171200
1.743500 0.176300
1.760600 0.145100
1.777700 0.096900
1.794800 0.059200
1.811900 0.052700
1.829000 0.089900
1.846100 0.174100
1.863200 0.289000
1.880300 0.393100
1.897400 0.440200
1.914500 0.418300
1.931600 0.365100
1.948700 0.336200
1.965800 0.354300
1.982900 0.393600
2.000000 0.411500
2.017100 0.390600
2.034200 0.347500
2.051300 0.308000
2.068400 0.282800
2.085500 0.273800
2.102600 0.297900
2.119700 0.389500
2.136800 0.563500
2.153900 0.772400
2.171000 0.917700
2.188100 0.919200
2.205200 0.777000
2.222300 0.562200
2.239400 0.355400
2.256500 0.200200
2.273600 0.102700
2.290700 0.054200
2.307800 0.049000
2.324900 0.091900
2.342000 0.195100
2.359100 0.366200
2.376200 0.597200
2.393300 0.861000
2.410400 1.115100
2.427500 1.308800
2.444600 1.407000
2.461700 1.422400
2.478800 1.409400
2.495900 1.407600
2.513000 1.397600
2.530100 1.325500
2.547200 1.169400
2.564300 0.982300
2.581400 0.864400
2.598500 0.878900
2.615600 0.987900
2.632700 1.077400
2.649800 1.058500
2.666900 0.951200
2.684000 0.865400
2.701100 0.895800
2.718200 1.037900
2.735300 1.201700
2.752400 1.295500
2.769500 1.297200
2.786600 1.257900
2.803700 1.244200
2.820800 1.279300
2.837900 1.342800
2.855000 1.414800
2.872100 1.502800
2.889200 1.629000
2.906300 1.808000
2.923400 2.030400
2.940500 2.251100
2.957600 2.404200
2.974700 2.452200
2.991800 2.417400
3.008900 2.354800
3.026000 2.302700
3.043100 2.277800
3.060200 2.300300
3.077300 2.386300
3.094400 2.501700
3.111500 2.563800
3.128600 2.519200
3.145700 2.396000
3.162800 2.254300
3.179900 2.117700
3.197000 1.995500
3.214100 1.946400
3.231200 2.063500
3.248300 2.377400
3.265400 2.787700
3.282500 3.114400
3.299600 3.242100
3.316700 3.228500
3.333800 3.261900
3.350900 3.489500
3.368000 3.865500
3.385100 4.164800
3.402200 4.177700
3.419300 3.927100
3.436400 3.677600
3.453500 3.696900
3.470600 4.012900
3.487700 4.403800
3.504800 4.600500
3.521900 4.515700
3.539000 4.324600
3.556100 4.318500
3.573200 4.628400
3.590300 5.077800
3.607400 5.326000
3.624500 5.157300
3.641600 4.631600
3.658700 3.993800
3.675800 3.481200
3.692900 3.202100
3.710000 3.130600
3.727100 3.169000
3.744200 3.220600
3.761300 3.236500
3.778400 3.216400
3.795500 3.169300
3.812600 3.082600
3.829700 2.945700
3.846800 2.808900
3.863900 2.789300
3.881000 2.976100
3.898100 3.312500
3.915200 3.607900
3.932300 3.697900
3.949400 3.578100
3.966400 3.357300
3.983500 3.122800
4.000600 2.904900
4.017700 2.737300
4.034800 2.671500
4.051900 2.724600
4.069000 2.869100
4.086100 3.080300
4.103200 3.349500
4.120300 3.641200
4.137400 3.867000
4.154500 3.927200
4.171600 3.780900
4.188700 3.467000
4.205800 3.062000
4.222900 2.640600
4.240000 2.280900
4.257100 2.077700
4.274200 2.125300
4.291300 2.464000
4.308400 3.016500
4.325500 3.571400
4.342600 3.875200
4.359700 3.798100
4.376800 3.429100
4.393900 2.990200
4.411000 2.652800
4.428100 2.436600
4.445200 2.257300
4.462300 2.041000
4.479400 1.799800
4.496500 1.615800
4.513600 1.558400
4.530700 1.627400
4.547800 1.789300
4.564900 2.034500
4.582000 2.350700
4.599100 2.649900
4.616200 2.786000
4.633300 2.689000
4.650400 2.450000
4.667500 2.233100
4.684600 2.109900
4.701700 2.009400
4.718800 1.827300
4.735900 1.559500
4.753000 1.315700
4.770100 1.213500
4.787200 1.270100
4.804300 1.391600
4.821400 1.459500
4.838500 1.435100
4.855600 1.386800
4.872700 1.406500
4.889800 1.494300
4.906900 1.543800
4.924000 1.461600
4.941100 1.279500
4.958200 1.116700
4.975300 1.047700
4.992400 1.042000
5.009500 1.024000
5.026600 0.952600
5.043700 0.834700
5.060800 0.696800
5.077900 0.567900
5.095000 0.479200
5.112100 0.459200
5.129200 0.515900
5.146300 0.626400
5.163400 0.746500
5.180500 0.840100
5.197600 0.903400
5.214700 0.960300
5.231800 1.031100
5.248900 1.113400
5.266000 1.187900
5.283100 1.227500
5.300200 1.199800
5.317300 1.088700
5.334400 0.926300
5.351500 0.792700
5.368600 0.771500
5.385700 0.895700
5.402800 1.112900
5.419900 1.297800
5.437000 1.335300
5.454100 1.220800
5.471200 1.069600
5.488300 1.011400
5.505400 1.091500
5.522500 1.274900
5.539600 1.513600
5.556700 1.773900
5.573800 2.004500
5.590900 2.116600
5.608000 2.032500
5.625100 1.762100
5.642200 1.424000
5.659300 1.177600
5.676400 1.123100
5.693500 1.251400
5.710600 1.458700
5.727700 1.598800
5.744800 1.560300
5.761900 1.344000
5.779000 1.070900
5.796100 0.891800
5.813200 0.881200
5.830300 1.020200
5.847400 1.250000
5.864500 1.504900
5.881600 1.699700
5.898700 1.740400
5.915800 1.586200
5.932900 1.298500
5.950000 1.012900
5.967100 0.855100
5.984200 0.876900
6.001300 1.054700
6.018400 1.323000
6.035500 1.598300
6.052600 1.791800
6.069700 1.844100
6.086800 1.768700
6.103900 1.640200
6.121000 1.514400
6.138100 1.380000
6.155200 1.213900
6.172300 1.058900
6.189400 1.006100
6.206500 1.102200
6.223600 1.302100
6.240700 1.509200
6.257800 1.642800
6.274900 1.667300
6.292000 1.583200
6.309100 1.411800
6.326200 1.196200
6.343300 0.999900
6.360400 0.876400
6.377500 0.826300
6.394600 0.799400
6.411700 0.752500
6.428800 0.697900
6.445900 0.695600
6.463000 0.809400
6.480100 1.060600
6.497200 1.398700
6.514300 1.711700
6.531400 1.890200
6.548500 1.904200
6.565600 1.826700
6.582700 1.774800
6.599800 1.826100
6.616900 2.000200
6.634000 2.300000
6.651100 2.719500
6.668200 3.206600
6.685300 3.665600
6.702400 4.003400
6.719500 4.139400
6.736600 4.010600
6.753700 3.641300
6.770800 3.189600
6.787900 2.845200
6.805000 2.673500
6.822100 2.602600
6.839200 2.549800
6.856300 2.500700
6.873400 2.462100
6.890500 2.407500
6.907600 2.317700
6.924700 2.243200
6.941800 2.273200
6.958900 2.430600
6.976000 2.615400
6.993100 2.674100
7.010200 2.528900
7.027300 2.236600
7.044400 1.926400
7.061500 1.698200
7.078600 1.573800
7.095700 1.518400
7.112800 1.498500
7.129900 1.533000
7.147000 1.685300
7.164100 1.983500
7.181200 2.337100
7.198300 2.558000
7.215400 2.497600
7.232500 2.172500
7.249600 1.751100
7.266700 1.428800
7.283800 1.324300
7.300900 1.456900
7.318000 1.758000
7.335100 2.089600
7.352200 2.300700
7.369300 2.320300
7.386400 2.200000
7.403500 2.044000
7.420600 1.901800
7.437700 1.760200
7.454800 1.626700
7.471900 1.573300
7.489000 1.677500
7.506100 1.944700
7.523200 2.305200
7.540300 2.663500
7.557400 2.932000
7.574500 3.039900
7.591600 2.961200
7.608700 2.761200
7.625800 2.585000
7.642800 2.556600
7.659900 2.674300
7.677000 2.805700
7.694100 2.791900
7.711200 2.570300
7.728300 2.210800
7.745400 1.838200
7.762500 1.534200
7.779600 1.324000
7.796700 1.226500
7.813800 1.264000
7.830900 1.418000
7.848000 1.629000
7.865100 1.867700
7.882200 2.167600
7.899300 2.543300
7.916400 2.895400
7.933500 3.060800
7.950600 2.984700
7.967700 2.795700
7.984800 2.674500
8.001900 2.684300
8.019000 2.773500
8.036100 2.909400
8.053200 3.127100
8.070300 3.437900
8.087400 3.751000
8.104500 3.924000
8.121600 3.877800
8.138700 3.655500
8.155800 3.396100
8.172900 3.263800
8.190000 3.368900
8.207100 3.715600
8.224200 4.207600
8.241300 4.683700
8.258400 4.960000
8.275500 4.907300
8.292600 4.554300
8.309700 4.103600
8.326800 3.801400
8.343900 3.762100
8.361000 3.886200
8.378100 3.923600
8.395200 3.649100
8.412300 3.029600
8.429400 2.250100
8.446500 1.590500
8.463600 1.257500
8.480700 1.273000
8.497800 1.473900
8.514900 1.638300
8.532000 1.658000
8.549100 1.597700
8.566200 1.582600
8.583300 1.660500
8.600400 1.782800
8.617500 1.868400
8.634600 1.858700
8.651700 1.753200
8.668800 1.632000
8.685900 1.619500
8.703000 1.784100
8.720100 2.061300
8.737200 2.291300
8.754300 2.348300
8.771400 2.237600
8.788500 2.063800
8.805600 1.913200
8.822700 1.782200
8.839800 1.621600
8.856900 1.423400
8.874000 1.236300
8.891100 1.108500
8.908200 1.045400
8.925300 1.027200
8.942400 1.043800
8.959500 1.101600
8.976600 1.207200
8.993700 1.353100
9.010800 1.513500
9.027900 1.655700
9.045000 1.759000
9.062100 1.818200
9.079200 1.822500
9.096300 1.744700
9.113400 1.566500
9.130500 1.308800
9.147600 1.032900
9.164700 0.822500
9.181800 0.760700
9.198900 0.892300
9.216000 1.178700
9.233100 1.494800
9.250200 1.698800
9.267300 1.731100
9.284400 1.660100
9.301500 1.631200
9.318600 1.751700
9.335700 2.004200
9.352800 2.278900
9.369900 2.479600
9.387000 2.568000
9.404100 2.518900
9.421200 2.304500
9.438300 1.960900
9.455400 1.625300
9.472500 1.469400
9.489600 1.603600
9.506700 2.037000
9.523800 2.670500
9.540900 3.300600
9.558000 3.683400
9.575100 3.676900
9.592200 3.341700
9.609300 2.882600
9.626400 2.496200
9.643500 2.283400
9.660600 2.268200
9.677700 2.424400
9.694800 2.664200
9.711900 2.859200
9.729000 2.922600
9.746100 2.862300
9.763200 2.741500
9.780300 2.618900
9.797400 2.540900
9.814500 2.546000
9.831600 2.626500
9.848700 2.694300
9.865800 2.640200
9.882900 2.464100
9.900000 2.329400
9.917100 2.434100
9.934200 2.803400
9.951300 3.229400
9.968400 3.439300
9.985500 3.325800
10.002600 3.008600
10.019700 2.693500
10.036800 2.503900
10.053900 2.443000
10.071000 2.449200
10.088100 2.445400
10.105200 2.369900
10.122300 2.223700
10.139400 2.098600
10.156500 2.124300
10.173600 2.350000
10.190700 2.668700
10.207800 2.888300
10.224900 2.899200
10.242000 2.766100
10.259100 2.655600
10.276200 2.697400
10.293300 2.922100
10.310400 3.287200
10.327500 3.714600
10.344600 4.087800
10.361700 4.252800
10.378800 4.084700
10.395900 3.597800
10.413000 2.969500
10.430100 2.420700
10.447200 2.066800
10.464300 1.891500
10.481400 1.834000
10.498500 1.862000
10.515600 1.964200
10.532700 2.108600
10.549800 2.234800
10.566900 2.291300
10.584000 2.282100
10.601100 2.266000
10.618200 2.285700
10.635300 2.300800
10.652400 2.217200
10.669500 1.985300
10.686600 1.644200
10.703700 1.286200
10.720800 1.017300
10.737900 0.944800
10.755000 1.151900
10.772100 1.643800
10.789200 2.300100
10.806300 2.886900
10.823400 3.161100
10.840500 3.016300
10.857600 2.554800
10.874700 2.013500
10.891800 1.599900
10.908900 1.379100
10.926000 1.301700
10.943100 1.327600
10.960200 1.500300
10.977300 1.888200
10.994400 2.460700
11.011500 3.030200
11.028600 3.334600
11.045700 3.216700
11.062800 2.752000
11.079900 2.202600
11.097000 1.843100
11.114100 1.805200
11.131200 2.034600
11.148300 2.346400
11.165400 2.527600
11.182500 2.440900
11.199600 2.093500
11.216700 1.630000
11.233800 1.232500
11.250900 1.004600
11.268000 0.953400
11.285100 1.058700
11.302100 1.308800
11.319200 1.655100
11.336300 1.976800
11.353400 2.134000
11.370500 2.058900
11.387600 1.788300
11.404700 1.417700
11.421800 1.048300
11.438900 0.768900
11.456000 0.648300
11.473100 0.705200
11.490200 0.880800
11.507300 1.063900
11.524400 1.172200
11.541500 1.222200
11.558600 1.301200
11.575700 1.455400
11.592800 1.623300
11.609900 1.691500
11.627000 1.605400
11.644100 1.412300
11.661200 1.216000
11.678300 1.112400
11.695400 1.154800
11.712500 1.330300
11.729600 1.545800
11.746700 1.670300
11.763800 1.629100
11.780900 1.460600
11.798000 1.274800
11.815100 1.171800
11.832200 1.209600
11.849300 1.427200
11.866400 1.842800
11.883500 2.393600
11.900600 2.905500
11.917700 3.181600
11.934800 3.147900
11.951900 2.907300
11.969000 2.647800
11.986100 2.495700
12.003200 2.442400
12.020300 2.391100
12.037400 2.265000
12.054500 2.071600
12.071600 1.884500
12.088700 1.786900
12.105800 1.821700
12.122900 1.956700
12.140000 2.094600
12.157100 2.157300
12.174200 2.176500
12.191300 2.265700
12.208400 2.484400
12.225500 2.766500
12.242600 2.990900
12.259700 3.077300
12.276800 3.003200
12.293900 2.784400
12.311000 2.478100
12.328100 2.168200
12.345200 1.915600
12.362300 1.735800
12.379400 1.617500
12.396500 1.532100
12.413600 1.438000
12.430700 1.320200
12.447800 1.224500
12.464900 1.216700
12.482000 1.309100
12.499100 1.454200
12.516200 1.609100
12.533300 1.774900
12.550400 1.955400
12.567500 2.105800
12.584600 2.162100
12.601700 2.113600
12.618800 2.002700
12.635900 1.855200
12.653000 1.655300
12.670100 1.403400
12.687200 1.168800
12.704300 1.065400
12.721400 1.179800
12.738500 1.511700
12.755600 1.954900
12.772700 2.337700
12.789800 2.521900
12.806900 2.496100
12.824000 2.378300
12.841100 2.326300
12.858200 2.441600
12.875300 2.729400
12.892400 3.096600
12.909500 3.375500
12.926600 3.405800
12.943700 3.141400
12.960800 2.678000
12.977900 2.178900
12.995000 1.800700
13.012100 1.667600
13.029200 1.829100
13.046300 2.191200
13.063400 2.532600
13.080500 2.653600
13.097600 2.524200
13.114700 2.276700
13.131800 2.062900
13.148900 1.932600
13.166000 1.840300
13.183100 1.732000
13.200200 1.603000
13.217300 1.484200
13.234400 1.399300
13.251500 1.350500
13.268600 1.334800
13.285700 1.352000
13.302800 1.385100
13.319900 1.384800
13.337000 1.300900
13.354100 1.137100
13.371200 0.964000
13.388300 0.871800
13.405400 0.906200
13.422500 1.045900
13.439600 1.231600
13.456700 1.413700
13.473800 1.570000
13.490900 1.689200
13.508000 1.755600
13.525100 1.754100
13.542200 1.682800
13.559300 1.573100
13.576400 1.499800
13.593500 1.538100
13.610600 1.691300
13.627700 1.876100
13.644800 1.994900
13.661900 2.016000
13.679000 1.996100
13.696100 2.037700
13.713200 2.208900
13.730300 2.472400
13.747400 2.696300
13.764500 2.753100
13.781600 2.615300
13.798700 2.360200
13.815800 2.107100
13.832900 1.964200
13.850000 1.993600
13.867100 2.174900
13.884200 2.408900
13.901300 2.588000
13.918400 2.656700
13.935500 2.602600
13.952600 2.435200
13.969700 2.203500
13.986800 2.000900
14.003900 1.908200
14.021000 1.925700
14.038100 1.971000
14.055200 1.954600
14.072300 1.860900
14.089400 1.751500
14.106500 1.698700
14.123600 1.731400
14.140700 1.830100
14.157800 1.948600
14.174900 2.047200
14.192000 2.131200
14.209100 2.259000
14.226200 2.499000
14.243300 2.866300
14.260400 3.289200
14.277500 3.635800
14.294600 3.791200
14.311700 3.720100
14.328800 3.466400
14.345900 3.125500
14.363000 2.828800
14.380100 2.702700
14.397200 2.782300
14.414300 2.958600
14.431400 3.052900
14.448500 2.970600
14.465600 2.777700
14.482700 2.633700
14.499800 2.678200
14.516900 2.960600
14.534000 3.397500
14.551100 3.769300
14.568200 3.837800
14.585300 3.532900
14.602400 3.012900
14.619500 2.533200
14.636600 2.280600
14.653700 2.306300
14.670800 2.546800
14.687900 2.878800
14.705000 3.177500
14.722100 3.349400
14.739200 3.333500
14.756300 3.114900
14.773400 2.767200
14.790500 2.450800
14.807600 2.307800
14.824700 2.343900
14.841800 2.444600
14.858900 2.505500
14.876000 2.512800
14.893100 2.512800
14.910200 2.553700
14.927300 2.657400
14.944400 2.808600
14.961500 2.972200
14.978500 3.134000
14.995600 3.308100
15.012700 3.498100
15.029800 3.680900
15.046900 3.821200
15.064000 3.865100
15.081100 3.742000
15.098200 3.438000
15.115300 3.061800
15.132400 2.790300
15.149500 2.734900
15.166600 2.871300
15.183700 3.092400
15.200800 3.310600
15.217900 3.490600
15.235000 3.598100
15.252100 3.565400
15.269200 3.349000
15.286300 3.016800
15.303400 2.755200
15.320500 2.772200
15.337600 3.166500
15.354700 3.856100
15.371800 4.612600
15.388900 5.176500
15.406000 5.374400
15.423100 5.172300
15.440200 4.670800
15.457300 4.062900
15.474400 3.544800
15.491500 3.217700
15.508600 3.060500
15.525700 2.988400
15.542800 2.928800
15.559900 2.863200
15.577000 2.828000
15.594100 2.875800
15.611200 3.025000
15.628300 3.244900
15.645400 3.491100
15.662500 3.737500
15.679600 3.967400
15.696700 4.154600
15.713800 4.278400
15.730900 4.342700
15.748000 4.354700
15.765100 4.300000
15.782200 4.177600
15.799300 4.056100
15.816400 4.044400
15.833500 4.173100
15.850600 4.316500
15.867700 4.272300
15.884800 3.946100
15.901900 3.454600
15.919000 3.040700
15.936100 2.894100
15.953200 3.037700
15.970300 3.350100
15.987400 3.675300
16.004500 3.901000
16.021600 3.943800
16.038700 3.737000
16.055800 3.310600
16.072900 2.848700
16.090000 2.580900
16.107100 2.615100
16.124200 2.914400
16.141300 3.403000
16.158400 4.026400
16.175500 4.703400
16.192600 5.269700
16.209700 5.519000
16.226800 5.328800
16.243900 4.746900
16.261000 3.957900
16.278100 3.194000
16.295200 2.663000
16.312300 2.475500
16.329400 2.571600
16.346500 2.748300
16.363600 2.821800
16.380700 2.770200
16.397800 2.696200
16.414900 2.676100
16.432000 2.699700
16.449100 2.749000
16.466200 2.856700
16.483300 3.042900
16.500400 3.241700
16.517500 3.370700
16.534600 3.483200
16.551700 3.785100
16.568800 4.423600
16.585900 5.260300
16.603000 5.917500
16.620100 6.087200
16.637200 5.761600
16.654300 5.157500
16.671400 4.496300
16.688500 3.913500
16.705600 3.498300
16.722700 3.313900
16.739800 3.376000
16.756900 3.650600
16.774000 4.078600
16.791100 4.586900
16.808200 5.072500
16.825300 5.378600
16.842400 5.333800
16.859500 4.892900
16.876600 4.238200
16.893700 3.661800
16.910800 3.328400
16.927900 3.202600
16.945000 3.193200
16.962100 3.289700
16.979200 3.532300
16.996300 3.899100
17.013400 4.267600
17.030500 4.483800
17.047600 4.453800
17.064700 4.191200
17.081800 3.812600
17.098900 3.472700
17.116000 3.258200
17.133100 3.138600
17.150200 3.042800
17.167300 2.972400
17.184400 3.012900
17.201500 3.229800
17.218600 3.560400
17.235700 3.810800
17.252800 3.779700
17.269900 3.417600
17.287000 2.876800
17.304100 2.397000
17.321200 2.141100
17.338300 2.127600
17.355400 2.275000
17.372500 2.477200
17.389600 2.647100
17.406700 2.741000
17.423800 2.773200
17.440900 2.803800
17.458000 2.887100
17.475100 3.012300
17.492200 3.104000
17.509300 3.097600
17.526400 3.015900
17.543500 2.960300
17.560600 3.028300
17.577700 3.230200
17.594800 3.462100
17.611900 3.565600
17.629000 3.449400
17.646100 3.163900
17.663200 2.845100
17.680300 2.603200
17.697400 2.492200
17.714500 2.543800
17.731600 2.755400
17.748700 3.053700
17.765800 3.341700
17.782900 3.584400
17.800000 3.785600
17.817100 3.890800
17.834200 3.803500
17.851300 3.528400
17.868400 3.218600
17.885500 3.035500
17.902600 3.006900
17.919700 3.045100
17.936800 3.044400
17.953900 2.929800
17.971000 2.672200
17.988100 2.314600
18.005200 1.970200
18.022300 1.756200
18.039400 1.723500
18.056500 1.844900
18.073600 2.053400
18.090700 2.281700
18.107800 2.480600
18.124900 2.624500
18.142000 2.710500
18.159100 2.755600
18.176200 2.779700
18.193300 2.778700
18.210400 2.726100
18.227500 2.611800
18.244600 2.460700
18.261700 2.310400
18.278800 2.200200
18.295900 2.173600
18.313000 2.251900
18.330100 2.407200
18.347200 2.596500
18.364300 2.809300
18.381400 3.048100
18.398500 3.258900
18.415600 3.324200
18.432700 3.159700
18.449800 2.806700
18.466900 2.412100
18.484000 2.123200
18.501100 2.008100
18.518200 2.035600
18.535300 2.097300
18.552400 2.075300
18.569500 1.934400
18.586600 1.751700
18.603700 1.645200
18.620800 1.683300
18.637800 1.851900
18.654900 2.066400
18.672000 2.200600
18.689100 2.152600
18.706200 1.927500
18.723300 1.655200
18.740400 1.501800
18.757500 1.558700
18.774600 1.812100
18.791700 2.187800
18.808800 2.590100
18.825900 2.915100
18.843000 3.090000
18.860100 3.129300
18.877200 3.130100
18.894300 3.187700
18.911400 3.321200
18.928500 3.480700
18.945600 3.602700
18.962700 3.644200
18.979800 3.581800
18.996900 3.403600
19.014000 3.114600
19.031100 2.755900
19.048200 2.414900
19.065300 2.201700
19.082400 2.196200
19.099500 2.413100
19.116600 2.804000
19.133700 3.275200
19.150800 3.709300
19.167900 4.003900
19.185000 4.114300
19.202100 4.069800
19.219200 3.960700
19.236300 3.910300
19.253400 4.020000
19.270500 4.290400
19.287600 4.593500
19.304700 4.751000
19.321800 4.664500
19.338900 4.385500
19.356000 4.074400
19.373100 3.883700
19.390200 3.852700
19.407300 3.898300
19.424400 3.920600
19.441500 3.910200
19.458600 3.921100
19.475700 3.945500
19.492800 3.881200
19.509900 3.657100
19.527000 3.348500
19.544100 3.137600
19.561200 3.185400
19.578300 3.547000
19.595400 4.152400
19.612500 4.831300
19.629600 5.389600
19.646700 5.716700
19.663800 5.830700
19.680900 5.822700
19.698000 5.789100
19.715100 5.810300
19.732200 5.918400
19.749300 6.038900
19.766400 6.017200
19.783500 5.751300
19.800600 5.286600
19.817700 4.766900
19.834800 4.314000
19.851900 3.965600
19.869000 3.711400
19.886100 3.555000
19.903200 3.521000
19.920300 3.610300
19.937400 3.765400
19.954500 3.893400
19.971600 3.942000
19.988700 3.947200
20.005800 3.972900
20.022900 4.011100
20.040000 3.999500
20.057100 3.929000
20.074200 3.866100
20.091300 3.862100
20.108400 3.895400
20.125500 3.914800
20.142600 3.898400
20.159700 3.862200
20.176800 3.835900
20.193900 3.833900
20.211000 3.829200
20.228100 3.765800
20.245200 3.620800
20.262300 3.452100
20.279400 3.354100
20.296500 3.358100
20.313600 3.388000
20.330700 3.322000
20.347800 3.111200
20.364900 2.864100
20.382000 2.814400
20.399100 3.154800
20.416200 3.855800
20.433300 4.648600
20.450400 5.211300
20.467500 5.385700
20.484600 5.242900
20.501700 4.993400
20.518800 4.832200
20.535900 4.803700
20.553000 4.787800
20.570100 4.644800
20.587200 4.365500
20.604300 4.051800
20.621400 3.791800
20.638500 3.613500
20.655600 3.535300
20.672700 3.595100
20.689800 3.825500
20.706900 4.218500
20.724000 4.695000
20.741100 5.099500
20.758200 5.274600
20.775300 5.185700
20.792400 4.972400
20.809500 4.848800
20.826600 4.927800
20.843700 5.132000
20.860800 5.278300
20.877900 5.236900
20.895000 5.003200
20.912100 4.662600
20.929200 4.326000
20.946300 4.080300
20.963400 3.972600
20.980500 4.024600
20.997600 4.216400
21.014700 4.448200
21.031800 4.600100
21.048900 4.668000
21.066000 4.757600
21.083100 4.907600
21.100200 4.998900
21.117300 4.883300
21.134400 4.536900
21.151500 4.051500
21.168600 3.539300
21.185700 3.099300
21.202800 2.841900
21.219900 2.874600
21.237000 3.227300
21.254100 3.800800
21.271200 4.394600
21.288300 4.785900
21.305400 4.819600
21.322500 4.490200
21.339600 3.956700
21.356700 3.447700
21.373800 3.131900
21.390900 3.076800
21.408000 3.275900
21.425100 3.653600
21.442200 4.065300
21.459300 4.358400
21.476400 4.457700
21.493500 4.384500
21.510600 4.204400
21.527700 3.982600
21.544800 3.779700
21.561900 3.643700
21.579000 3.578400
21.596100 3.539900
21.613200 3.488600
21.630300 3.425800
21.647400 3.370300
21.664500 3.318900
21.681600 3.246100
21.698700 3.148500
21.715800 3.079100
21.732900 3.117000
21.750000 3.289600
21.767100 3.551400
21.784200 3.859900
21.801300 4.228400
21.818400 4.662200
21.835500 5.074300
21.852600 5.321100
21.869700 5.317800
21.886800 5.097000
21.903900 4.759900
21.921000 4.381600
21.938100 3.979400
21.955200 3.570700
21.972300 3.228400
21.989400 3.041600
22.006500 3.038300
22.023600 3.169100
22.040700 3.356100
22.057800 3.550400
22.074900 3.763100
22.092000 4.047500
22.109100 4.431300
22.126200 4.845300
22.143300 5.134300
22.160400 5.173700
22.177500 4.983900
22.194600 4.710300
22.211700 4.492900
22.228800 4.374300
22.245900 4.314500
22.263000 4.246000
22.280100 4.110200
22.297100 3.883700
22.314200 3.602200
22.331300 3.356600
22.348400 3.240300
22.365500 3.283300
22.382600 3.438100
22.399700 3.632500
22.416800 3.840500
22.433900 4.096600
22.451000 4.422000
22.468100 4.729600
22.485200 4.839900
22.502300 4.636900
22.519400 4.203500
22.536500 3.775200
22.553600 3.568500
22.570700 3.669100
22.587800 4.039300
22.604900 4.549400
22.622000 4.994100
22.639100 5.169800
22.656200 5.013000
22.673300 4.657000
22.690400 4.320000
22.707500 4.124400
22.724600 4.027200
22.741700 3.914200
22.758800 3.754400
22.775900 3.658500
22.793000 3.780600
22.810100 4.159000
22.827200 4.647100
22.844300 4.984200
22.861400 4.951800
22.878500 4.512100
22.895600 3.833700
22.912700 3.180300
22.929800 2.744500
22.946900 2.550300
22.964000 2.479000
22.981100 2.386300
22.998200 2.218200
23.015300 2.046000
23.032400 2.002800
23.049500 2.176200
23.066600 2.532000
23.083700 2.928000
23.100800 3.206600
23.117900 3.283200
23.135000 3.145900
23.152100 2.804900
23.169200 2.289100
23.186300 1.691200
23.203400 1.162000
23.220500 0.825300
23.237600 0.715600
23.254700 0.805600
23.271800 1.063000
23.288900 1.446600
23.306000 1.861700
23.323100 2.171000
23.340200 2.281500
23.357300 2.211400
23.374400 2.065600
23.391500 1.948300
23.408600 1.883200
23.425700 1.795100
23.442800 1.580200
23.459900 1.214100
23.477000 0.786400
23.494100 0.425100
23.511200 0.203300
23.528300 0.121200
23.545400 0.143400
23.562500 0.230400
23.579600 0.344200
23.596700 0.454000
23.613800 0.545800
23.630900 0.614800
23.648000 0.643900
23.665100 0.607400
23.682200 0.508100
23.699300 0.400200
23.716400 0.364500
23.733500 0.459400
23.750600 0.681900
23.767700 0.958600
23.784800 1.182000
23.801900 1.285000
23.819000 1.286400
23.836100 1.253700
23.853200 1.220900
23.870300 1.155300
23.887400 1.007800
23.904500 0.783700
23.921600 0.550200
23.938700 0.376600
23.955800 0.280000
23.972900 0.230000
23.990000 0.194100
24.007100 0.169500
24.024200 0.170800
24.041300 0.199600
24.058400 0.235000
24.075500 0.253600
24.092600 0.252400
24.109700 0.243800
24.126800 0.232900
24.143900 0.212200
24.161000 0.179100
24.178100 0.145100
24.195200 0.122300
24.212300 0.108900
24.229400 0.093000
24.246500 0.068900
24.263600 0.042000
24.280700 0.020600
24.297800 0.008100
24.314900 0.002800
24.332000 0.001900
24.349100 0.004100
24.366200 0.010200
24.383300 0.020700
24.400400 0.033400
24.417500 0.042900
24.434600 0.043800
24.451700 0.035600
24.468800 0.023000
24.485900 0.011800
24.503000 0.004800
24.520100 0.001600
24.537200 0.000400
24.554300 0.000100
24.571400 0.000000
24.588500 0.000000
24.605600 0.000000
24.622700 0.000000
24.639800 0.000000
24.656900 0.000000
24.674000 0.000000
24.691100 0.000000
24.708200 0.000000
24.725300 0.000000
24.742400 0.000000
24.759500 0.000000
24.776600 0.000000
24.793700 0.000000
24.810800 0.000000
24.827900 0.000000
24.845000 0.000000
24.862100 0.000000
24.879200 0.000000
24.896300 0.000000
24.913400 0.000000
24.930500 0.000000
24.947600 0.000000
24.964700 0.000000
24.981800 0.000000
24.998900 0.000000
25.016000 0.000000
25.033100 0.000000
25.050200 0.000000
25.067300 0.000000
25.084400 0.000000
25.101500 0.000000
25.118600 0.000000
25.135700 0.000000
25.152800 0.000000
25.169900 0.000000
25.187000 0.000000
25.204100 0.000000
25.221200 0.000000
25.238300 0.000000
25.255400 0.000000
25.272500 0.000000
25.289600 0.000000
25.306700 0.000000
25.323800 0.000000
25.340900 0.000000
25.358000 0.000000
25.375100 0.000000
25.392200 0.000000
25.409300 0.000000
25.426400 0.000000
25.443500 0.000000
25.460600 0.000000
25.477700 0.000000
25.494800 0.000000
25.511900 0.000000
25.529000 0.000000
25.546100 0.000000
25.563200 0.000000
25.580300 0.000000
25.597400 0.000000
25.614500 0.000000
25.631600 0.000000
25.648700 0.000000
25.665800 0.000000
25.682900 0.000000
25.700000 0.000000
25.717100 0.000000
25.734200 0.000000
25.751300 0.000000
25.768400 0.000000
25.785500 0.000000
25.802600 0.000000
25.819700 0.000000
25.836800 0.000000
25.853900 0.000000
25.871000 0.000000
25.888100 0.000000
25.905200 0.000000
25.922300 0.000000
25.939400 0.000000
25.956500 0.000000
25.973500 0.000000
e
