set title 'mp-134 - Density of States'
set xlabel 'Energy (eV)'
set ylabel 'DOS (states/eV)'
set grid
set xrange [-10:10]
set yrange [0:0.491]
set xzeroaxis lt -1
set terminal png size 800,600
set output 'mp-134_dos_gnuplot.png'
plot '-' using 1:2 with lines title 'DOS'
-5.446500 0.000000
-5.420900 0.000000
-5.395300 0.000000
-5.369600 0.000000
-5.344000 0.000000
-5.318400 0.000000
-5.292700 0.000000
-5.267100 0.000000
-5.241500 0.000000
-5.215800 0.000000
-5.190200 0.000000
-5.164600 0.000000
-5.138900 0.000000
-5.113300 0.000000
-5.087700 0.000000
-5.062000 0.000000
-5.036400 0.000000
-5.010800 0.000000
-4.985100 0.000000
-4.959500 0.000000
-4.933900 0.000000
-4.908200 0.000000
-4.882600 0.000000
-4.857000 0.000000
-4.831300 0.000000
-4.805700 0.000000
-4.780100 0.000000
-4.754500 0.000000
-4.728800 0.000000
-4.703200 0.000000
-4.677600 0.000000
-4.651900 0.000000
-4.626300 0.000000
-4.600700 0.000000
-4.575000 0.000000
-4.549400 0.000000
-4.523800 0.000000
-4.498100 0.000000
-4.472500 0.000000
-4.446900 0.000000
-4.421200 0.000000
-4.395600 0.000000
-4.370000 0.000000
-4.344300 0.000000
-4.318700 0.000000
-4.293100 0.000000
-4.267400 0.000000
-4.241800 0.000000
-4.216200 0.000000
-4.190500 0.000000
-4.164900 0.000000
-4.139300 0.000000
-4.113600 0.000000
-4.088000 0.000000
-4.062400 0.000000
-4.036800 0.000000
-4.011100 0.000000
-3.985500 0.000000
-3.959900 0.000000
-3.934200 0.000000
-3.908600 0.000000
-3.883000 0.000000
-3.857300 0.000000
-3.831700 0.000000
-3.806100 0.000000
-3.780400 0.000000
-3.754800 0.000000
-3.729200 0.000000
-3.703500 0.000000
-3.677900 0.000000
-3.652300 0.000000
-3.626600 0.000000
-3.601000 0.000000
-3.575400 0.000000
-3.549700 0.000000
-3.524100 0.000000
-3.498500 0.000000
-3.472800 0.000000
-3.447200 0.000000
-3.421600 0.000000
-3.396000 0.000000
-3.370300 0.000000
-3.344700 0.000000
-3.319100 0.000000
-3.293400 0.000000
-3.267800 0.000000
-3.242200 0.000000
-3.216500 0.000000
-3.190900 0.000000
-3.165300 0.000000
-3.139600 0.000000
-3.114000 0.007900
-3.088400 0.022700
-3.062700 0.027100
-3.037100 0.033200
-3.011500 0.038500
-2.985800 0.041500
-2.960200 0.045700
-2.934600 0.050400
-2.908900 0.053100
-2.883300 0.055600
-2.857700 0.058700
-2.832000 0.061800
-2.806400 0.065200
-2.780800 0.067400
-2.755100 0.069500
-2.729500 0.071700
-2.703900 0.074100
-2.678300 0.076700
-2.652600 0.079500
-2.627000 0.081400
-2.601400 0.083000
-2.575700 0.085000
-2.550100 0.086900
-2.524500 0.089000
-2.498800 0.091100
-2.473200 0.093300
-2.447600 0.095200
-2.421900 0.096700
-2.396300 0.098300
-2.370700 0.100000
-2.345000 0.101600
-2.319400 0.103400
-2.293800 0.105200
-2.268100 0.107000
-2.242500 0.108900
-2.216900 0.110400
-2.191200 0.111700
-2.165600 0.113100
-2.140000 0.114500
-2.114300 0.116000
-2.088700 0.117600
-2.063100 0.119200
-2.037500 0.120800
-2.011800 0.122400
-1.986200 0.124000
-1.960600 0.125200
-1.934900 0.126500
-1.909300 0.127700
-1.883700 0.129000
-1.858000 0.130400
-1.832400 0.131700
-1.806800 0.133100
-1.781100 0.134500
-1.755500 0.135900
-1.729900 0.137400
-1.704200 0.138800
-1.678600 0.139900
-1.653000 0.141100
-1.627300 0.142200
-1.601700 0.143400
-1.576100 0.144600
-1.550400 0.145800
-1.524800 0.147000
-1.499200 0.148300
-1.473500 0.149600
-1.447900 0.150900
-1.422300 0.152200
-1.396600 0.153500
-1.371000 0.154600
-1.345400 0.155600
-1.319800 0.156700
-1.294100 0.157700
-1.268500 0.158800
-1.242900 0.160000
-1.217200 0.161100
-1.191600 0.162200
-1.166000 0.163400
-1.140300 0.164500
-1.114700 0.165700
-1.089100 0.166900
-1.063400 0.168100
-1.037800 0.169200
-1.012200 0.170100
-0.986500 0.171100
-0.960900 0.172100
-0.935300 0.173100
-0.909600 0.174100
-0.884000 0.175200
-0.858400 0.176200
-0.832700 0.177200
-0.807100 0.178300
-0.781500 0.179400
-0.755800 0.180500
-0.730200 0.181600
-0.704600 0.182700
-0.679000 0.183800
-0.653300 0.184700
-0.627700 0.185600
-0.602100 0.186500
-0.576400 0.187400
-0.550800 0.188400
-0.525200 0.189300
-0.499500 0.190300
-0.473900 0.191300
-0.448300 0.192300
-0.422600 0.193200
-0.397000 0.194200
-0.371400 0.195200
-0.345700 0.196300
-0.320100 0.197300
-0.294500 0.198300
-0.268800 0.199300
-0.243200 0.200100
-0.217600 0.201000
-0.191900 0.201900
-0.166300 0.202700
-0.140700 0.203600
-0.115000 0.204500
-0.089400 0.205400
-0.063800 0.206300
-0.038100 0.207300
-0.012500 0.208200
0.013100 0.209100
0.038700 0.210100
0.064400 0.211000
0.090000 0.212000
0.115600 0.212900
0.141300 0.213900
0.166900 0.214800
0.192500 0.215600
0.218200 0.216400
0.243800 0.217200
0.269400 0.218100
0.295100 0.218900
0.320700 0.219800
0.346300 0.220600
0.372000 0.221500
0.397600 0.222300
0.423200 0.223200
0.448900 0.224100
0.474500 0.225000
0.500100 0.225900
0.525800 0.226800
0.551400 0.227700
0.577000 0.228600
0.602700 0.229500
0.628300 0.230300
0.653900 0.231100
0.679500 0.231900
0.705200 0.232700
0.730800 0.233500
0.756400 0.234300
0.782100 0.235100
0.807700 0.235900
0.833300 0.236700
0.859000 0.237500
0.884600 0.238400
0.910200 0.239200
0.935900 0.240000
0.961500 0.240900
0.987100 0.241700
1.012800 0.242600
1.038400 0.243400
1.064000 0.244300
1.089700 0.245200
1.115300 0.246000
1.140900 0.246700
1.166600 0.247500
1.192200 0.248200
1.217800 0.249000
1.243500 0.249800
1.269100 0.250500
1.294700 0.251300
1.320400 0.252100
1.346000 0.252900
1.371600 0.253700
1.397200 0.254500
1.422900 0.255300
1.448500 0.256100
1.474100 0.256900
1.499800 0.257700
1.525400 0.258500
1.551000 0.259400
1.576700 0.260200
1.602300 0.261000
1.627900 0.261800
1.653600 0.262500
1.679200 0.263300
1.704800 0.264000
1.730500 0.264700
1.756100 0.265500
1.781700 0.266200
1.807400 0.267000
1.833000 0.267800
1.858600 0.268500
1.884300 0.269300
1.909900 0.270100
1.935500 0.270800
1.961200 0.271600
1.986800 0.272400
2.012400 0.273200
2.038000 0.274000
2.063700 0.274800
2.089300 0.275500
2.114900 0.276300
2.140600 0.277100
2.166200 0.277900
2.191800 0.278700
2.217500 0.279400
2.243100 0.280100
2.268700 0.280800
2.294400 0.281600
2.320000 0.282300
2.345600 0.283100
2.371300 0.283800
2.396900 0.284600
2.422500 0.285300
2.448200 0.286100
2.473800 0.286800
2.499400 0.287600
2.525100 0.288400
2.550700 0.289100
2.576300 0.289900
2.602000 0.290700
2.627600 0.291500
2.653200 0.292300
2.678900 0.293100
2.704500 0.293900
2.730100 0.294700
2.755700 0.295500
2.781400 0.296300
2.807000 0.297100
2.832600 0.297900
2.858300 0.298700
2.883900 0.299600
2.909500 0.300500
2.935200 0.301400
2.960800 0.302300
2.986400 0.303300
3.012100 0.304400
3.037700 0.305700
3.063300 0.307100
3.089000 0.308700
3.114600 0.310400
3.140200 0.312300
3.165900 0.314200
3.191500 0.316000
3.217100 0.318300
3.242800 0.320500
3.268400 0.322900
3.294000 0.325200
3.319700 0.327400
3.345300 0.330800
3.370900 0.329400
3.396500 0.326000
3.422200 0.326000
3.447800 0.324000
3.473400 0.321400
3.499100 0.319600
3.524700 0.317800
3.550300 0.316700
3.576000 0.315600
3.601600 0.311100
3.627200 0.310800
3.652900 0.310200
3.678500 0.307700
3.704100 0.306500
3.729800 0.305400
3.755400 0.307500
3.781000 0.308800
3.806700 0.310000
3.832300 0.313400
3.857900 0.317300
3.883600 0.318600
3.909200 0.321300
3.934800 0.323000
3.960500 0.326200
3.986100 0.327300
4.011700 0.327300
4.037400 0.326600
4.063000 0.328100
4.088600 0.329300
4.114200 0.330900
4.139900 0.333500
4.165500 0.336300
4.191100 0.337400
4.216800 0.337400
4.242400 0.337300
4.268000 0.337800
4.293700 0.339200
4.319300 0.340600
4.344900 0.340700
4.370600 0.340100
4.396200 0.339300
4.421800 0.339900
4.447500 0.342400
4.473100 0.346400
4.498700 0.349000
4.524400 0.350000
4.550000 0.350800
4.575600 0.351400
4.601300 0.351900
4.626900 0.351400
4.652500 0.350300
4.678200 0.351800
4.703800 0.354500
4.729400 0.356500
4.755000 0.358400
4.780700 0.359000
4.806300 0.361500
4.831900 0.363400
4.857600 0.366500
4.883200 0.369400
4.908800 0.370200
4.934500 0.369000
4.960100 0.368600
4.985700 0.370000
5.011400 0.385800
5.037000 0.397700
5.062600 0.390400
5.088300 0.393500
5.113900 0.391100
5.139500 0.390600
5.165200 0.391300
5.190800 0.387400
5.216400 0.383500
5.242100 0.384500
5.267700 0.386900
5.293300 0.385300
5.319000 0.383200
5.344600 0.382300
5.370200 0.378800
5.395900 0.378200
5.421500 0.377500
5.447100 0.378000
5.472700 0.378900
5.498400 0.375900
5.524000 0.371600
5.549600 0.370400
5.575300 0.369700
5.600900 0.368300
5.626500 0.366000
5.652200 0.366200
5.677800 0.369300
5.703400 0.368100
5.729100 0.367600
5.754700 0.362800
5.780300 0.361600
5.806000 0.362600
5.831600 0.363800
5.857200 0.358700
5.882900 0.357300
5.908500 0.357600
5.934100 0.354000
5.959800 0.352800
5.985400 0.353400
6.011000 0.352700
6.036700 0.349200
6.062300 0.347900
6.087900 0.345900
6.113500 0.343700
6.139200 0.341100
6.164800 0.337000
6.190400 0.338000
6.216100 0.337600
6.241700 0.332500
6.267300 0.331600
6.293000 0.337100
6.318600 0.339200
6.344200 0.340400
6.369900 0.341200
6.395500 0.341300
6.421100 0.342600
6.446800 0.343800
6.472400 0.344600
6.498000 0.343600
6.523700 0.358600
6.549300 0.371900
6.574900 0.366400
6.600600 0.369800
6.626200 0.370100
6.651800 0.372800
6.677500 0.373900
6.703100 0.372700
6.728700 0.372700
6.754400 0.374600
6.780000 0.376900
6.805600 0.378700
6.831200 0.379200
6.856900 0.380000
6.882500 0.384500
6.908100 0.385600
6.933800 0.381200
6.959400 0.383300
6.985000 0.386300
7.010700 0.390700
7.036300 0.393300
7.061900 0.395500
7.087600 0.397600
7.113200 0.407700
7.138800 0.418900
7.164500 0.416900
7.190100 0.413900
7.215700 0.416700
7.241400 0.406700
7.267000 0.399100
7.292600 0.400300
7.318300 0.393800
7.343900 0.394600
7.369500 0.397700
7.395200 0.385900
7.420800 0.383500
7.446400 0.381100
7.472000 0.378800
7.497700 0.376100
7.523300 0.375200
7.548900 0.377400
7.574600 0.367900
7.600200 0.364500
7.625800 0.362200
7.651500 0.365500
7.677100 0.372400
7.702700 0.376800
7.728400 0.376700
7.754000 0.378300
7.779600 0.379700
7.805300 0.374900
7.830900 0.375500
7.856500 0.376500
7.882200 0.381300
7.907800 0.382600
7.933400 0.383400
7.959100 0.384400
7.984700 0.386100
8.010300 0.391700
8.036000 0.400800
8.061600 0.406700
8.087200 0.413100
8.112900 0.414600
8.138500 0.411400
8.164100 0.412200
8.189700 0.413000
8.215400 0.415100
8.241000 0.416600
8.266600 0.418200
8.292300 0.420100
8.317900 0.420500
8.343500 0.420900
8.369200 0.421100
8.394800 0.421700
8.420400 0.422200
8.446100 0.422400
8.471700 0.422700
8.497300 0.422600
8.523000 0.421400
8.548600 0.421500
8.574200 0.424200
8.599900 0.423900
8.625500 0.423300
8.651100 0.422700
8.676800 0.422100
8.702400 0.422200
8.728000 0.422800
8.753700 0.422500
8.779300 0.422100
8.804900 0.421800
8.830500 0.421300
8.856200 0.421300
8.881800 0.421400
8.907400 0.421500
8.933100 0.421300
8.958700 0.421100
8.984300 0.421000
9.010000 0.420700
9.035600 0.419700
9.061200 0.418300
9.086900 0.418100
9.112500 0.420000
9.138100 0.419000
9.163800 0.418300
9.189400 0.418200
9.215000 0.418600
9.240700 0.419100
9.266300 0.425400
9.291900 0.425800
9.317600 0.426300
9.343200 0.426500
9.368800 0.426800
9.394500 0.427600
9.420100 0.428700
9.445700 0.429900
9.471400 0.432000
9.497000 0.433000
9.522600 0.433500
9.548200 0.432800
9.573900 0.433400
9.599500 0.433700
9.625100 0.434100
9.650800 0.435000
9.676400 0.435300
9.702000 0.435900
9.727700 0.437400
9.753300 0.438700
9.778900 0.438800
9.804600 0.439300
9.830200 0.440300
9.855800 0.441400
9.881500 0.443100
9.907100 0.444900
9.932700 0.446000
9.958400 0.445400
9.984000 0.444000
10.009600 0.443600
10.035300 0.443800
10.060900 0.444000
10.086500 0.445000
10.112200 0.445000
10.137800 0.445900
10.163400 0.446700
10.189100 0.447500
10.214700 0.448200
10.240300 0.448900
10.265900 0.449500
10.291600 0.450200
10.317200 0.451500
10.342800 0.452500
10.368500 0.453600
10.394100 0.454500
10.419700 0.455400
10.445400 0.456000
10.471000 0.455600
10.496600 0.455400
10.522300 0.455600
10.547900 0.456300
10.573500 0.457300
10.599200 0.459000
10.624800 0.460400
10.650400 0.460500
10.676100 0.459500
10.701700 0.460000
10.727300 0.460400
10.753000 0.461200
10.778600 0.461900
10.804200 0.462600
10.829900 0.462900
10.855500 0.463200
10.881100 0.463900
10.906700 0.464500
10.932400 0.465000
10.958000 0.465300
10.983600 0.465600
11.009300 0.465900
11.034900 0.466400
11.060500 0.466800
11.086200 0.467400
11.111800 0.468700
11.137400 0.471100
11.163100 0.472400
11.188700 0.473200
11.214300 0.473600
11.240000 0.473900
11.265600 0.474300
11.291200 0.475000
11.316900 0.476000
11.342500 0.477200
11.368100 0.478100
11.393800 0.478100
11.419400 0.477200
11.445000 0.477600
11.470700 0.478500
11.496300 0.479300
11.521900 0.479900
11.547600 0.480400
11.573200 0.480800
11.598800 0.481100
11.624400 0.481400
11.650100 0.481600
11.675700 0.482000
11.701300 0.482600
11.727000 0.483200
11.752600 0.483900
11.778200 0.484500
11.803900 0.485100
11.829500 0.485600
11.855100 0.486300
11.880800 0.487200
11.906400 0.488400
11.932000 0.490000
11.957700 0.491800
11.983300 0.493800
12.008900 0.495300
12.034600 0.495900
12.060200 0.496100
12.085800 0.496600
12.111500 0.497000
12.137100 0.497600
12.162700 0.498100
12.188400 0.498000
12.214000 0.498100
12.239600 0.498800
12.265200 0.499700
12.290900 0.500500
12.316500 0.501100
12.342100 0.501700
12.367800 0.502200
12.393400 0.502700
12.419000 0.503100
12.444700 0.503600
12.470300 0.504200
12.495900 0.504800
12.521600 0.505400
12.547200 0.506300
12.572800 0.507300
12.598500 0.508400
12.624100 0.509800
12.649700 0.511100
12.675400 0.512500
12.701000 0.513800
12.726600 0.514700
12.752300 0.516300
12.777900 0.517600
12.803500 0.519000
12.829200 0.520300
12.854800 0.521600
12.880400 0.522900
12.906100 0.524000
12.931700 0.530800
12.957300 0.527100
12.982900 0.527000
13.008600 0.525700
13.034200 0.526100
13.059800 0.526700
13.085500 0.528300
13.111100 0.529200
13.136700 0.530800
13.162400 0.532600
13.188000 0.534400
13.213600 0.535900
13.239300 0.537800
13.264900 0.539600
13.290500 0.541500
13.316200 0.543600
13.341800 0.545800
13.367400 0.547900
13.393100 0.550400
13.418700 0.553000
13.444300 0.555900
13.470000 0.568000
13.495600 0.576900
13.521200 0.584900
13.546900 0.589900
13.572500 0.594700
13.598100 0.598700
13.623700 0.604400
13.649400 0.611000
13.675000 0.603500
13.700600 0.600100
13.726300 0.595900
13.751900 0.593000
13.777500 0.590100
13.803200 0.586400
13.828800 0.588700
13.854400 0.587500
13.880100 0.585100
13.905700 0.581600
13.931300 0.578000
13.957000 0.584000
13.982600 0.577800
14.008200 0.575700
14.033900 0.572200
14.059500 0.573700
14.085100 0.575400
14.110800 0.573500
14.136400 0.572000
14.162000 0.569400
14.187700 0.566700
14.213300 0.564500
14.238900 0.561600
14.264600 0.559700
14.290200 0.558100
14.315800 0.556500
14.341400 0.554900
14.367100 0.558000
14.392700 0.558600
14.418300 0.556000
14.444000 0.552400
14.469600 0.549600
14.495200 0.547300
14.520900 0.545900
14.546500 0.547800
14.572100 0.547900
14.597800 0.545000
14.623400 0.543100
14.649000 0.541300
14.674700 0.539900
14.700300 0.538900
14.725900 0.545800
14.751600 0.545000
14.777200 0.541300
14.802800 0.540000
14.828500 0.538300
14.854100 0.537500
14.879700 0.536900
14.905400 0.536000
14.931000 0.535800
14.956600 0.535600
14.982200 0.534600
15.007900 0.532300
15.033500 0.530500
15.059100 0.531600
15.084800 0.537500
15.110400 0.530400
15.136000 0.539400
15.161700 0.531000
15.187300 0.528900
15.212900 0.527200
15.238600 0.525900
15.264200 0.524900
15.289800 0.524300
15.315500 0.523300
15.341100 0.523300
15.366700 0.523300
15.392400 0.524300
15.418000 0.526900
15.443600 0.530400
15.469300 0.531700
15.494900 0.529700
15.520500 0.528700
15.546200 0.527700
15.571800 0.527100
15.597400 0.534100
15.623100 0.529700
15.648700 0.529100
15.674300 0.527900
15.699900 0.527700
15.725600 0.528900
15.751200 0.531000
15.776800 0.534600
15.802500 0.533700
15.828100 0.532200
15.853700 0.531300
15.879400 0.530000
15.905000 0.529300
15.930600 0.528400
15.956300 0.528000
15.981900 0.527800
16.007500 0.527600
16.033200 0.527300
16.058800 0.527600
16.084400 0.533500
16.110100 0.540200
16.135700 0.535000
16.161300 0.532300
16.187000 0.530700
16.212600 0.529500
16.238200 0.529000
16.263900 0.528000
16.289500 0.527100
16.315100 0.527000
16.340700 0.527000
16.366400 0.526700
16.392000 0.526400
16.417600 0.526000
16.443300 0.526400
16.468900 0.532200
16.494500 0.532600
16.520200 0.529500
16.545800 0.529100
16.571400 0.527800
16.597100 0.527400
16.622700 0.528200
16.648300 0.529900
16.674000 0.532100
16.699600 0.530000
16.725200 0.528800
16.750900 0.528500
16.776500 0.528000
16.802100 0.528200
16.827800 0.528000
16.853400 0.527400
16.879000 0.527600
16.904700 0.535100
16.930300 0.530700
16.955900 0.530200
16.981600 0.528800
17.007200 0.528400
17.032800 0.528000
17.058400 0.527200
17.084100 0.525700
17.109700 0.524800
17.135300 0.524100
17.161000 0.523500
17.186600 0.532400
17.212200 0.531500
17.237900 0.534100
17.263500 0.537200
17.289100 0.539300
17.314800 0.540800
17.340400 0.540900
17.366000 0.552300
17.391700 0.546900
17.417300 0.547600
17.442900 0.548800
17.468600 0.547900
17.494200 0.547900
17.519800 0.548500
17.545500 0.548300
17.571100 0.548800
17.596700 0.549200
17.622400 0.549300
17.648000 0.549600
17.673600 0.550400
17.699200 0.550900
17.724900 0.551500
17.750500 0.552300
17.776100 0.553100
17.801800 0.553900
17.827400 0.554900
17.853000 0.556100
17.878700 0.564300
17.904300 0.565400
17.929900 0.564600
17.955600 0.565700
17.981200 0.566800
18.006800 0.566300
18.032500 0.566200
18.058100 0.565500
18.083700 0.565400
18.109400 0.565600
18.135000 0.565600
18.160600 0.565300
18.186300 0.565700
18.211900 0.565800
18.237500 0.565900
18.263200 0.566100
18.288800 0.566700
18.314400 0.567600
18.340100 0.568300
18.365700 0.568600
18.391300 0.567600
18.416900 0.566700
18.442600 0.571300
18.468200 0.572200
18.493800 0.572900
18.519500 0.569700
18.545100 0.567900
18.570700 0.567700
18.596400 0.568200
18.622000 0.568700
18.647600 0.569900
18.673300 0.571300
18.698900 0.576300
18.724500 0.573200
18.750200 0.573400
18.775800 0.574300
18.801400 0.575100
18.827100 0.576500
18.852700 0.578300
18.878300 0.580500
18.904000 0.583200
18.929600 0.586500
18.955200 0.589700
18.980900 0.593000
19.006500 0.596300
19.032100 0.600000
19.057700 0.609200
19.083400 0.616700
19.109000 0.624600
19.134600 0.633000
19.160300 0.642800
19.185900 0.652500
19.211500 0.660600
19.237200 0.668000
19.262800 0.673300
19.288400 0.678500
19.314100 0.681700
19.339700 0.685800
19.365300 0.679300
19.391000 0.670100
19.416600 0.665700
19.442200 0.663300
19.467900 0.663000
19.493500 0.666200
19.519100 0.660700
19.544800 0.661200
19.570400 0.661700
19.596000 0.662200
19.621700 0.668400
19.647300 0.671600
19.672900 0.676400
19.698600 0.679700
19.724200 0.687600
19.749800 0.692700
19.775400 0.690900
19.801100 0.687800
19.826700 0.683600
19.852300 0.678900
19.878000 0.675700
19.903600 0.675100
19.929200 0.689300
19.954900 0.686700
19.980500 0.674200
20.006100 0.674800
20.031800 0.679000
20.057400 0.683400
20.083000 0.676900
20.108700 0.678700
20.134300 0.680000
20.159900 0.681200
20.185600 0.683200
20.211200 0.686100
20.236800 0.688700
20.262500 0.692800
20.288100 0.696500
20.313700 0.699300
20.339400 0.691700
20.365000 0.688000
20.390600 0.674200
20.416200 0.669400
20.441900 0.664700
20.467500 0.660700
20.493100 0.657200
20.518800 0.655200
20.544400 0.663600
20.570000 0.665100
20.595700 0.658000
20.621300 0.653000
20.646900 0.648700
20.672600 0.648500
20.698200 0.654200
20.723800 0.649600
20.749500 0.638000
20.775100 0.627500
20.800700 0.621100
20.826400 0.622200
20.852000 0.623100
20.877600 0.619200
20.903300 0.623000
20.928900 0.619100
20.954500 0.614700
20.980200 0.604900
21.005800 0.604100
21.031400 0.607000
21.057100 0.609600
21.082700 0.608000
21.108300 0.609900
21.133900 0.613200
21.159600 0.615600
21.185200 0.622200
21.210800 0.623500
21.236500 0.609300
21.262100 0.604900
21.287700 0.603000
21.313400 0.606600
21.339000 0.608400
21.364600 0.611900
21.390300 0.608500
21.415900 0.604700
21.441500 0.602200
21.467200 0.602000
21.492800 0.610200
21.518400 0.597200
21.544100 0.592800
21.569700 0.591400
21.595300 0.590300
21.621000 0.588600
21.646600 0.587600
21.672200 0.586500
21.697900 0.586500
21.723500 0.589400
21.749100 0.593300
21.774700 0.596300
21.800400 0.599900
21.826000 0.600000
21.851600 0.600600
21.877300 0.598000
21.902900 0.615300
21.928500 0.604900
21.954200 0.595100
21.979800 0.592200
22.005400 0.589300
22.031100 0.584600
22.056700 0.581200
22.082300 0.578100
22.108000 0.575500
22.133600 0.578100
22.159200 0.580400
22.184900 0.582300
22.210500 0.587300
22.236100 0.584900
22.261800 0.581300
22.287400 0.589200
22.313000 0.589700
22.338700 0.585100
22.364300 0.588800
22.389900 0.593700
22.415600 0.613800
22.441200 0.619700
22.466800 0.631600
22.492400 0.644700
22.518100 0.650800
22.543700 0.657500
22.569300 0.666600
22.595000 0.679300
22.620600 0.684200
22.646200 0.692400
22.671900 0.704300
22.697500 0.738200
22.723100 0.766300
22.748800 0.774600
22.774400 0.779300
22.800000 0.774900
22.825700 0.769500
22.851300 0.762100
22.876900 0.746700
22.902600 0.725100
22.928200 0.710800
22.953800 0.691500
22.979500 0.675900
23.005100 0.672300
23.030700 0.676900
23.056400 0.670400
23.082000 0.669400
23.107600 0.670000
23.133200 0.672800
23.158900 0.673800
23.184500 0.703300
23.210100 0.686700
23.235800 0.690600
23.261400 0.694800
23.287000 0.714900
23.312700 0.719400
23.338300 0.723800
23.363900 0.722700
23.389600 0.722900
23.415200 0.720600
23.440800 0.735500
23.466500 0.736000
23.492100 0.724800
23.517700 0.707800
23.543400 0.686000
23.569000 0.649000
23.594600 0.611000
23.620300 0.589400
23.645900 0.578400
23.671500 0.569900
23.697200 0.563500
23.722800 0.574400
23.748400 0.585400
23.774100 0.592200
23.799700 0.628300
23.825300 0.635700
23.850900 0.639700
23.876600 0.648600
23.902200 0.659600
23.927800 0.667100
23.953500 0.670600
23.979100 0.678400
24.004700 0.684900
24.030400 0.688800
24.056000 0.698000
24.081600 0.705600
24.107300 0.708600
24.132900 0.711900
24.158500 0.713400
24.184200 0.714600
24.209800 0.717500
24.235400 0.723800
24.261100 0.710500
24.286700 0.706200
24.312300 0.708300
24.338000 0.697100
24.363600 0.692300
24.389200 0.681100
24.414900 0.673000
24.440500 0.663200
24.466100 0.653200
24.491700 0.646000
24.517400 0.638800
24.543000 0.641300
24.568600 0.652400
24.594300 0.666600
24.619900 0.695000
24.645500 0.704200
24.671200 0.713000
24.696800 0.731100
24.722400 0.750300
24.748100 0.760200
24.773700 0.770700
24.799300 0.772700
24.825000 0.772300
24.850600 0.770500
24.876200 0.767300
24.901900 0.773000
24.927500 0.755000
24.953100 0.752300
24.978800 0.751400
25.004400 0.751700
25.030000 0.750600
25.055700 0.749800
25.081300 0.748100
25.106900 0.743900
25.132600 0.740900
25.158200 0.738300
25.183800 0.736500
25.209400 0.736400
25.235100 0.737800
25.260700 0.737500
25.286300 0.737000
25.312000 0.740100
25.337600 0.738600
25.363200 0.739900
25.388900 0.736600
25.414500 0.731900
25.440100 0.729100
25.465800 0.725400
25.491400 0.721600
25.517000 0.726800
25.542700 0.734400
25.568300 0.725700
25.593900 0.726300
25.619600 0.727700
25.645200 0.729100
25.670800 0.733100
25.696500 0.736800
25.722100 0.739900
25.747700 0.744500
25.773400 0.748600
25.799000 0.750400
25.824600 0.750800
25.850200 0.754100
25.875900 0.750100
25.901500 0.749800
25.927100 0.749700
25.952800 0.749600
25.978400 0.749000
26.004000 0.750500
26.029700 0.756200
26.055300 0.761600
26.080900 0.764000
26.106600 0.762200
26.132200 0.761500
26.157800 0.765100
26.183500 0.766900
26.209100 0.773000
26.234700 0.769300
26.260400 0.769000
26.286000 0.768800
26.311600 0.767700
26.337300 0.765200
26.362900 0.764100
26.388500 0.759400
26.414200 0.754900
26.439800 0.747400
26.465400 0.740600
26.491100 0.735300
26.516700 0.730100
26.542300 0.725000
26.567900 0.719600
26.593600 0.720000
26.619200 0.715200
26.644800 0.710900
26.670500 0.706900
26.696100 0.705600
26.721700 0.702700
26.747400 0.698400
26.773000 0.696800
26.798600 0.697700
26.824300 0.701800
26.849900 0.704300
26.875500 0.705000
26.901200 0.705100
26.926800 0.703700
26.952400 0.700300
26.978100 0.696100
27.003700 0.698100
27.029300 0.698700
27.055000 0.699500
27.080600 0.699300
27.106200 0.700000
27.131900 0.701200
27.157500 0.704100
27.183100 0.710100
27.208800 0.705000
27.234400 0.705500
27.260000 0.708100
27.285600 0.709000
27.311300 0.718100
27.336900 0.711400
27.362500 0.711600
27.388200 0.719100
27.413800 0.708400
27.439400 0.706700
27.465100 0.706800
27.490700 0.706400
27.516300 0.706500
27.542000 0.706600
27.567600 0.707500
27.593200 0.708200
27.618900 0.708800
27.644500 0.706800
27.670100 0.709400
27.695800 0.707000
27.721400 0.701700
27.747000 0.695200
27.772700 0.691900
27.798300 0.689500
27.823900 0.686100
27.849600 0.683500
27.875200 0.681500
27.900800 0.679200
27.926400 0.677300
27.952100 0.675900
27.977700 0.677600
28.003300 0.677400
28.029000 0.668400
28.054600 0.682300
28.080200 0.675700
28.105900 0.679500
28.131500 0.684200
28.157100 0.693700
28.182800 0.698900
28.208400 0.701600
28.234000 0.704200
28.259700 0.710100
28.285300 0.714800
28.310900 0.720300
28.336600 0.726100
28.362200 0.732900
28.387800 0.738600
28.413500 0.745100
28.439100 0.751200
28.464700 0.762000
28.490400 0.769500
28.516000 0.776600
28.541600 0.782700
28.567300 0.791600
28.592900 0.798100
28.618500 0.805400
28.644100 0.810300
28.669800 0.811600
28.695400 0.812200
28.721000 0.819000
28.746700 0.824800
28.772300 0.826600
28.797900 0.829800
28.823600 0.838000
28.849200 0.855200
28.874800 0.874600
28.900500 0.873400
28.926100 0.871300
28.951700 0.867200
28.977400 0.861000
29.003000 0.856900
29.028600 0.848100
29.054300 0.838000
29.079900 0.832100
29.105500 0.822300
29.131200 0.812600
29.156800 0.797500
29.182400 0.787400
29.208100 0.779800
29.233700 0.774800
29.259300 0.771700
29.284900 0.768800
29.310600 0.767000
29.336200 0.768200
29.361800 0.767800
29.387500 0.769200
29.413100 0.770700
29.438700 0.771400
29.464400 0.772100
29.490000 0.774800
29.515600 0.779200
29.541300 0.781500
29.566900 0.781100
29.592500 0.776400
29.618200 0.776000
29.643800 0.775800
29.669400 0.777000
29.695100 0.780400
29.720700 0.782600
29.746300 0.784800
29.772000 0.786700
29.797600 0.789500
29.823200 0.797000
29.848900 0.798000
29.874500 0.797400
29.900100 0.797700
29.925800 0.799300
29.951400 0.801700
29.977000 0.805000
30.002600 0.807100
30.028300 0.815000
30.053900 0.825300
30.079500 0.835100
30.105200 0.834900
30.130800 0.836100
30.156400 0.835800
30.182100 0.829100
30.207700 0.821300
30.233300 0.817100
30.259000 0.799300
30.284600 0.786900
30.310200 0.782600
30.335900 0.778500
30.361500 0.774200
30.387100 0.769700
30.412800 0.765400
30.438400 0.760500
30.464000 0.757800
30.489700 0.756000
30.515300 0.753300
30.540900 0.750500
30.566600 0.747500
30.592200 0.745700
30.617800 0.750400
30.643400 0.752700
30.669100 0.753700
30.694700 0.753800
30.720300 0.753900
30.746000 0.754400
30.771600 0.755200
30.797200 0.755900
30.822900 0.756300
30.848500 0.756300
30.874100 0.756700
30.899800 0.757700
30.925400 0.759500
30.951000 0.764300
30.976700 0.768500
31.002300 0.774100
31.027900 0.779400
31.053600 0.786600
31.079200 0.793200
31.104800 0.800300
31.130500 0.809300
31.156100 0.819600
31.181700 0.834700
31.207400 0.841100
31.233000 0.842500
31.258600 0.842900
31.284300 0.844600
31.309900 0.849600
31.335500 0.846300
31.361100 0.847200
31.386800 0.848800
31.412400 0.849200
31.438000 0.850500
31.463700 0.852800
31.489300 0.849400
31.514900 0.846700
31.540600 0.844800
31.566200 0.843400
31.591800 0.843000
31.617500 0.843400
31.643100 0.843300
31.668700 0.843000
31.694400 0.843300
31.720000 0.843500
31.745600 0.843600
31.771300 0.843700
31.796900 0.844100
31.822500 0.844500
31.848200 0.843200
31.873800 0.841700
31.899400 0.841100
31.925100 0.841000
31.950700 0.841500
31.976300 0.841700
32.001900 0.842200
32.027600 0.842100
32.053200 0.843200
32.078800 0.840100
32.104500 0.840800
32.130100 0.842300
32.155700 0.842100
32.181400 0.842000
32.207000 0.841800
32.232600 0.841200
32.258300 0.840300
32.283900 0.842900
32.309500 0.843800
32.335200 0.842100
32.360800 0.839900
32.386400 0.837800
32.412100 0.836500
32.437700 0.845300
32.463300 0.836800
32.489000 0.837300
32.514600 0.837400
32.540200 0.837200
32.565900 0.836600
32.591500 0.835300
32.617100 0.833900
32.642800 0.833200
32.668400 0.838300
32.694000 0.844100
32.719600 0.846800
32.745300 0.840900
32.770900 0.852200
32.796500 0.858300
32.822200 0.846300
32.847800 0.823100
32.873400 0.813800
32.899100 0.806600
32.924700 0.801600
32.950300 0.799200
32.976000 0.804500
33.001600 0.786100
33.027200 0.781800
33.052900 0.783600
33.078500 0.786300
33.104100 0.789900
33.129800 0.789600
33.155400 0.782700
33.181000 0.773600
33.206700 0.771700
33.232300 0.770800
33.257900 0.790000
33.283600 0.754300
33.309200 0.737200
33.334800 0.725500
33.360400 0.712800
33.386100 0.701700
33.411700 0.689200
33.437300 0.680900
33.463000 0.672800
33.488600 0.667500
33.514200 0.662800
33.539900 0.660000
33.565500 0.659800
33.591100 0.655300
33.616800 0.648200
33.642400 0.638500
33.668000 0.634700
33.693700 0.631200
33.719300 0.626000
33.744900 0.621900
33.770600 0.619400
33.796200 0.615200
33.821800 0.614200
33.847500 0.611900
33.873100 0.609900
33.898700 0.606000
33.924400 0.594500
33.950000 0.588900
33.975600 0.584600
34.001300 0.582100
34.026900 0.582300
34.052500 0.580400
34.078100 0.576800
34.103800 0.567500
34.129400 0.561100
34.155000 0.555000
34.180700 0.549500
34.206300 0.545600
34.231900 0.540400
34.257600 0.526900
34.283200 0.520500
34.308800 0.517400
34.334500 0.503800
34.360100 0.494200
34.385700 0.490100
34.411400 0.483400
34.437000 0.479800
34.462600 0.486200
34.488300 0.475000
34.513900 0.471800
34.539500 0.471800
34.565200 0.463600
34.590800 0.459100
34.616400 0.457200
34.642100 0.457600
34.667700 0.453400
34.693300 0.449400
34.718900 0.445400
34.744600 0.441100
34.770200 0.436700
34.795800 0.433200
34.821500 0.439900
34.847100 0.438500
34.872700 0.435700
34.898400 0.429100
34.924000 0.424200
34.949600 0.400700
34.975300 0.382700
35.000900 0.368000
35.026500 0.355700
35.052200 0.345600
35.077800 0.337700
35.103400 0.333400
35.129100 0.289000
35.154700 0.289500
35.180300 0.289900
35.206000 0.290500
35.231600 0.291000
35.257200 0.291500
35.282900 0.292000
35.308500 0.292400
35.334100 0.292900
35.359800 0.293200
35.385400 0.293700
35.411000 0.294100
35.436600 0.294600
35.462300 0.295200
35.487900 0.295700
35.513500 0.296300
35.539200 0.296800
35.564800 0.297300
35.590400 0.297900
35.616100 0.298500
35.641700 0.299200
35.667300 0.300000
35.693000 0.300700
35.718600 0.301400
35.744200 0.302200
35.769900 0.303100
35.795500 0.303900
35.821100 0.304800
35.846800 0.305700
35.872400 0.306600
35.898000 0.307500
35.923700 0.308600
35.949300 0.309700
35.974900 0.310900
36.000600 0.311900
36.026200 0.313100
36.051800 0.314400
36.077400 0.315700
36.103100 0.317200
36.128700 0.318600
36.154300 0.320200
36.180000 0.321900
36.205600 0.324000
36.231200 0.326400
36.256900 0.329200
36.282500 0.332700
36.308100 0.336600
36.333800 0.341600
36.359400 0.347600
36.385000 0.372200
36.410700 0.389200
36.436300 0.398200
36.461900 0.408100
36.487600 0.417700
36.513200 0.420200
36.538800 0.418500
36.564500 0.421200
36.590100 0.424000
36.615700 0.423600
36.641400 0.426400
36.667000 0.430100
36.692600 0.434000
36.718300 0.437300
36.743900 0.439500
36.769500 0.441000
36.795100 0.442500
36.820800 0.443000
36.846400 0.444300
36.872000 0.445800
36.897700 0.446900
36.923300 0.447600
36.948900 0.448600
36.974600 0.449800
37.000200 0.451000
37.025800 0.452200
37.051500 0.453700
37.077100 0.454900
37.102700 0.456200
37.128400 0.458000
37.154000 0.459900
37.179600 0.461900
37.205300 0.464100
37.230900 0.466400
37.256500 0.468400
37.282200 0.469900
37.307800 0.471000
37.333400 0.472100
37.359100 0.473000
37.384700 0.473600
37.410300 0.474300
37.435900 0.474800
37.461600 0.475500
37.487200 0.476400
37.512800 0.477400
37.538500 0.478500
37.564100 0.479700
37.589700 0.480900
37.615400 0.482500
37.641000 0.484300
37.666600 0.485900
37.692300 0.487500
37.717900 0.489100
37.743500 0.490600
37.769200 0.492000
37.794800 0.493400
37.820400 0.494900
37.846100 0.496100
37.871700 0.497500
37.897300 0.498500
37.923000 0.499500
37.948600 0.500600
37.974200 0.501800
37.999900 0.502700
38.025500 0.503600
38.051100 0.504600
38.076800 0.506000
38.102400 0.507400
38.128000 0.508900
38.153600 0.510200
38.179300 0.511300
38.204900 0.512600
38.230500 0.514100
38.256200 0.515500
38.281800 0.516700
38.307400 0.518100
38.333100 0.519600
38.358700 0.521200
38.384300 0.523100
38.410000 0.525200
38.435600 0.528800
38.461200 0.533100
38.486900 0.538100
38.512500 0.543600
38.538100 0.549400
38.563800 0.553700
38.589400 0.558200
38.615000 0.563000
38.640700 0.567500
38.666300 0.571700
38.691900 0.574300
38.717600 0.576300
38.743200 0.578300
38.768800 0.577100
38.794400 0.597200
38.820100 0.606500
38.845700 0.608900
38.871300 0.605300
38.897000 0.596800
38.922600 0.597900
38.948200 0.600200
38.973900 0.601500
38.999500 0.587900
39.025100 0.571600
39.050800 0.572800
39.076400 0.569200
39.102000 0.569900
39.127700 0.570900
39.153300 0.570200
39.178900 0.570600
39.204600 0.571100
39.230200 0.568600
39.255800 0.569700
39.281500 0.570600
39.307100 0.575200
39.332700 0.583800
39.358400 0.595600
39.384000 0.608800
39.409600 0.626400
39.435300 0.635600
39.460900 0.638900
39.486500 0.649100
39.512100 0.653300
39.537800 0.660300
39.563400 0.669200
39.589000 0.683700
39.614700 0.703800
39.640300 0.714700
39.665900 0.718500
39.691600 0.721900
39.717200 0.724400
39.742800 0.727400
39.768500 0.737200
39.794100 0.859300
39.819700 0.816400
39.845400 0.775400
39.871000 0.783200
39.896600 0.794400
39.922300 0.804100
39.947900 0.821600
39.973500 0.842000
39.999200 0.869400
40.024800 0.897600
40.050400 0.929000
40.076100 0.949400
40.101700 0.965500
40.127300 0.958900
40.152900 0.960300
40.178600 0.968000
40.204200 0.959900
40.229800 0.956700
40.255500 0.945300
40.281100 0.942500
40.306700 0.921400
40.332400 0.900200
40.358000 0.881200
40.383600 0.866900
40.409300 0.852700
40.434900 0.838500
40.460500 0.824700
40.486200 0.809600
40.511800 0.801500
40.537400 0.786000
40.563100 0.776100
40.588700 0.767000
40.614300 0.757700
40.640000 0.750800
40.665600 0.744300
40.691200 0.739500
40.716900 0.745700
40.742500 0.749800
40.768100 0.747200
40.793800 0.728500
40.819400 0.720700
40.845000 0.713500
40.870600 0.693200
40.896300 0.680600
40.921900 0.674900
40.947500 0.674100
40.973200 0.674400
40.998800 0.676300
41.024400 0.685500
41.050100 0.696300
41.075700 0.699600
41.101300 0.700300
41.127000 0.711500
41.152600 0.739500
41.178200 0.719500
41.203900 0.698400
41.229500 0.704300
41.255100 0.721400
41.280800 0.760900
41.306400 0.755800
41.332000 0.740800
41.357700 0.718700
41.383300 0.690000
41.408900 0.662900
41.434600 0.660500
41.460200 0.649300
41.485800 0.644000
41.511400 0.630600
41.537100 0.630400
41.562700 0.628100
41.588300 0.627200
41.614000 0.643300
41.639600 0.669300
41.665200 0.720900
41.690900 0.759200
41.716500 0.743900
41.742100 0.726500
41.767800 0.718900
41.793400 0.623200
41.819000 0.583600
41.844700 0.574100
41.870300 0.549000
41.895900 0.525100
41.921600 0.497100
41.947200 0.476100
41.972800 0.463300
41.998500 0.434300
42.024100 0.418100
42.049700 0.404200
42.075400 0.393800
42.101000 0.374300
42.126600 0.361900
42.152300 0.357300
42.177900 0.349100
42.203500 0.341700
42.229100 0.339600
42.254800 0.336800
42.280400 0.327000
42.306000 0.316700
42.331700 0.307700
42.357300 0.300700
42.382900 0.292800
42.408600 0.276900
42.434200 0.269600
42.459800 0.262500
42.485500 0.230800
42.511100 0.220200
42.536700 0.209000
42.562400 0.198300
42.588000 0.188000
42.613600 0.181600
42.639300 0.171100
42.664900 0.142800
42.690500 0.137400
42.716200 0.131900
42.741800 0.131200
42.767400 0.122600
42.793100 0.116500
42.818700 0.111700
42.844300 0.104400
42.869900 0.096100
42.895600 0.091000
42.921200 0.086400
42.946800 0.081800
42.972500 0.076600
42.998100 0.071300
43.023700 0.065800
43.049400 0.060000
43.075000 0.053800
43.100600 0.046100
43.126300 0.038300
43.151900 0.028100
43.177500 0.020200
43.203200 0.015900
43.228800 0.011900
43.254400 0.008200
43.280100 0.005200
43.305700 0.002700
43.331300 0.001800
43.357000 0.001300
43.382600 0.000800
43.408200 0.000500
43.433900 0.000200
43.459500 0.000100
43.485100 0.000000
43.510800 0.000000
43.536400 0.000000
43.562000 0.000000
43.587600 0.000000
43.613300 0.000000
43.638900 0.000000
43.664500 0.000000
43.690200 0.000000
43.715800 0.000000
43.741400 0.000000
43.767100 0.000000
43.792700 0.000000
43.818300 0.000000
43.844000 0.000000
43.869600 0.000000
43.895200 0.000000
43.920900 0.000000
43.946500 0.000000
43.972100 0.000000
43.997800 0.000000
44.023400 0.000000
44.049000 0.000000
44.074700 0.000000
44.100300 0.000000
44.125900 0.000000
44.151600 0.000000
44.177200 0.000000
44.202800 0.000000
44.228500 0.000000
44.254100 0.000000
44.279700 0.000000
44.305300 0.000000
44.331000 0.000000
44.356600 0.000000
44.382200 0.000000
44.407900 0.000000
44.433500 0.000000
44.459100 0.000000
44.484800 0.000000
44.510400 0.000000
44.536000 0.000000
44.561700 0.000000
44.587300 0.000000
44.612900 0.000000
44.638600 0.000000
44.664200 0.000000
44.689800 0.000000
44.715500 0.000000
44.741100 0.000000
44.766700 0.000000
44.792400 0.000000
44.818000 0.000000
44.843600 0.000000
44.869300 0.000000
44.894900 0.000000
44.920500 0.000000
44.946100 0.000000
44.971800 0.000000
44.997400 0.000000
45.023000 0.000000
45.048700 0.000000
45.074300 0.000000
45.099900 0.000000
45.125600 0.000000
45.151200 0.000000
45.176800 0.000000
45.202500 0.000000
45.228100 0.000000
45.253700 0.000000
45.279400 0.000000
45.305000 0.000000
45.330600 0.000000
45.356300 0.000000
45.381900 0.000000
45.407500 0.000000
45.433200 0.000000
45.458800 0.000000
45.484400 0.000000
45.510100 0.000000
45.535700 0.000000
45.561300 0.000000
45.587000 0.000000
45.612600 0.000000
45.638200 0.000000
45.663800 0.000000
45.689500 0.000000
45.715100 0.000000
45.740700 0.000000
45.766400 0.000000
45.792000 0.000000
45.817600 0.000000
e
