set title 'mp-998912 - Density of States'
set xlabel 'Energy (eV)'
set ylabel 'DOS (states/eV)'
set grid
set xrange [-10:10]
set yrange [0:100.197]
set xzeroaxis lt -1
set terminal png size 800,600
set output 'mp-998912_dos_gnuplot.png'
plot '-' using 1:2 with lines title 'DOS'
-10.163800 0.000000
-10.144000 0.000000
-10.124200 0.000000
-10.104400 0.000000
-10.084500 0.000000
-10.064700 0.000000
-10.044900 0.000000
-10.025100 0.000000
-10.005300 0.000000
-9.985400 0.000000
-9.965600 0.000000
-9.945800 0.000000
-9.926000 0.000000
-9.906200 0.000000
-9.886300 0.000000
-9.866500 0.000000
-9.846700 0.000000
-9.826900 0.000000
-9.807100 0.000000
-9.787200 0.000000
-9.767400 0.000000
-9.747600 0.000000
-9.727800 0.000000
-9.708000 0.000000
-9.688200 0.000000
-9.668300 0.000000
-9.648500 0.000000
-9.628700 0.000000
-9.608900 0.000000
-9.589100 0.000000
-9.569200 0.000000
-9.549400 0.000000
-9.529600 0.000000
-9.509800 0.000000
-9.490000 0.000000
-9.470100 0.000000
-9.450300 0.000000
-9.430500 0.000000
-9.410700 0.000000
-9.390900 0.000000
-9.371000 0.000000
-9.351200 0.000000
-9.331400 0.000000
-9.311600 0.000000
-9.291800 0.000000
-9.271900 0.000000
-9.252100 0.000000
-9.232300 0.000000
-9.212500 0.000000
-9.192700 0.000000
-9.172800 0.000000
-9.153000 0.000000
-9.133200 0.000000
-9.113400 0.000000
-9.093600 0.000000
-9.073700 0.000000
-9.053900 0.000000
-9.034100 0.000000
-9.014300 0.000000
-8.994500 0.000000
-8.974600 0.000000
-8.954800 0.000000
-8.935000 0.000000
-8.915200 0.000000
-8.895400 0.000000
-8.875500 0.000000
-8.855700 0.000000
-8.835900 0.000000
-8.816100 0.000000
-8.796300 0.000000
-8.776400 0.000000
-8.756600 0.000000
-8.736800 0.000000
-8.717000 0.000000
-8.697200 0.000000
-8.677300 0.000000
-8.657500 0.000000
-8.637700 0.000000
-8.617900 0.000000
-8.598100 0.000000
-8.578200 0.000000
-8.558400 0.000000
-8.538600 0.000000
-8.518800 0.000000
-8.499000 0.000000
-8.479100 0.000000
-8.459300 0.000000
-8.439500 0.000000
-8.419700 0.000000
-8.399900 0.000000
-8.380000 0.000000
-8.360200 0.004900
-8.340400 0.116300
-8.320600 0.303300
-8.300800 0.550000
-8.280900 0.651100
-8.261100 0.774500
-8.241300 0.974900
-8.221500 1.145300
-8.201700 1.227700
-8.181800 1.155700
-8.162000 1.221600
-8.142200 1.280000
-8.122400 1.328000
-8.102600 1.370800
-8.082700 1.428500
-8.062900 1.510600
-8.043100 1.617600
-8.023300 3.223700
-8.003500 5.802200
-7.983700 7.725600
-7.963800 10.080100
-7.944000 12.293800
-7.924200 13.843000
-7.904400 7.493400
-7.884600 7.917900
-7.864700 8.812500
-7.844900 5.543000
-7.825100 2.280700
-7.805300 0.000000
-7.785500 0.000000
-7.765600 0.000000
-7.745800 2.270800
-7.726000 4.395400
-7.706200 6.440600
-7.686400 9.186600
-7.666500 11.428800
-7.646700 11.352000
-7.626900 8.203300
-7.607100 6.391600
-7.587300 5.569900
-7.567400 5.070900
-7.547600 4.797100
-7.527800 4.455700
-7.508000 4.317800
-7.488200 3.897200
-7.468300 3.324100
-7.448500 2.690000
-7.428700 2.147300
-7.408900 1.828000
-7.389100 1.329900
-7.369200 0.904900
-7.349400 0.564000
-7.329600 0.293700
-7.309800 0.099500
-7.290000 0.000400
-7.270100 0.000000
-7.250300 0.000000
-7.230500 0.000000
-7.210700 0.000000
-7.190900 0.000000
-7.171000 0.000000
-7.151200 0.000000
-7.131400 0.000000
-7.111600 0.000000
-7.091800 0.000000
-7.071900 0.000000
-7.052100 0.000000
-7.032300 0.000000
-7.012500 0.000000
-6.992700 0.000000
-6.972800 0.000000
-6.953000 0.000000
-6.933200 0.000000
-6.913400 0.000000
-6.893600 0.000000
-6.873700 0.000000
-6.853900 0.000000
-6.834100 0.000000
-6.814300 0.000000
-6.794500 0.000000
-6.774600 0.000000
-6.754800 0.000000
-6.735000 0.000000
-6.715200 0.000000
-6.695400 0.000000
-6.675500 0.000000
-6.655700 0.000000
-6.635900 0.000000
-6.616100 0.000000
-6.596300 0.000000
-6.576400 0.000000
-6.556600 0.000000
-6.536800 8.786100
-6.517000 9.506500
-6.497200 11.712800
-6.477300 19.358900
-6.457500 18.829100
-6.437700 43.051900
-6.417900 74.170900
-6.398100 26.774100
-6.378200 24.485100
-6.358400 43.984300
-6.338600 63.852400
-6.318800 14.126000
-6.299000 16.379200
-6.279200 33.263900
-6.259300 9.183200
-6.239500 6.515300
-6.219700 5.918400
-6.199900 6.631900
-6.180100 12.205900
-6.160200 12.207700
-6.140400 12.525400
-6.120600 15.491800
-6.100800 24.761700
-6.081000 39.560500
-6.061100 37.601800
-6.041300 38.349200
-6.021500 29.068100
-6.001700 51.273000
-5.981900 91.088400
-5.962000 70.574200
-5.942200 20.880000
-5.922400 12.539600
-5.902600 9.681700
-5.882800 7.483400
-5.862900 6.363700
-5.843100 5.517300
-5.823300 4.171500
-5.803500 3.702100
-5.783700 3.430500
-5.763800 3.199700
-5.744000 3.029500
-5.724200 2.989500
-5.704400 3.069000
-5.684600 2.609000
-5.664700 1.777300
-5.644900 1.697300
-5.625100 1.801400
-5.605300 1.991200
-5.585500 2.102800
-5.565600 2.217800
-5.545800 2.346100
-5.526000 2.503800
-5.506200 2.888000
-5.486400 3.984000
-5.466500 5.523900
-5.446700 7.751700
-5.426900 5.244300
-5.407100 4.892400
-5.387300 4.552500
-5.367400 4.164900
-5.347600 3.537100
-5.327800 2.892100
-5.308000 2.347000
-5.288200 1.967300
-5.268300 1.617500
-5.248500 1.356800
-5.228700 0.737800
-5.208900 0.245700
-5.189100 0.000000
-5.169200 0.000000
-5.149400 0.000000
-5.129600 0.000000
-5.109800 0.000000
-5.090000 0.000000
-5.070100 0.000000
-5.050300 0.000000
-5.030500 0.000000
-5.010700 0.000000
-4.990900 0.000000
-4.971000 0.000000
-4.951200 0.000000
-4.931400 0.000000
-4.911600 0.000000
-4.891800 0.000000
-4.871900 0.000000
-4.852100 0.000000
-4.832300 0.000000
-4.812500 0.000000
-4.792700 0.000000
-4.772800 0.000000
-4.753000 0.000000
-4.733200 0.000000
-4.713400 0.000000
-4.693600 0.000000
-4.673700 0.000000
-4.653900 0.000000
-4.634100 0.000000
-4.614300 0.000000
-4.594500 0.000000
-4.574700 0.000000
-4.554800 0.000000
-4.535000 0.000000
-4.515200 0.000000
-4.495400 0.000000
-4.475600 0.000000
-4.455700 0.000000
-4.435900 0.000000
-4.416100 0.000000
-4.396300 0.000000
-4.376500 0.000000
-4.356600 0.000000
-4.336800 0.000000
-4.317000 0.000000
-4.297200 0.000000
-4.277400 0.000000
-4.257500 0.000000
-4.237700 0.000000
-4.217900 0.000000
-4.198100 0.000000
-4.178300 0.000000
-4.158400 0.000000
-4.138600 0.000000
-4.118800 0.000000
-4.099000 0.000000
-4.079200 0.000000
-4.059300 0.000000
-4.039500 0.000000
-4.019700 0.000000
-3.999900 0.000000
-3.980100 0.000000
-3.960200 0.000000
-3.940400 0.000000
-3.920600 0.000000
-3.900800 0.000000
-3.881000 0.000000
-3.861100 0.000000
-3.841300 0.000000
-3.821500 0.000000
-3.801700 0.000000
-3.781900 0.000000
-3.762000 0.000000
-3.742200 0.000000
-3.722400 0.000000
-3.702600 0.000000
-3.682800 0.000000
-3.662900 0.000000
-3.643100 0.000000
-3.623300 0.000000
-3.603500 0.000000
-3.583700 0.000000
-3.563800 0.000000
-3.544000 0.000000
-3.524200 0.000000
-3.504400 0.000000
-3.484600 0.000000
-3.464700 0.000000
-3.444900 0.000000
-3.425100 0.000000
-3.405300 0.000000
-3.385500 0.000000
-3.365600 0.000000
-3.345800 0.000000
-3.326000 0.000000
-3.306200 0.000000
-3.286400 0.000000
-3.266500 0.000000
-3.246700 0.000000
-3.226900 0.000000
-3.207100 0.000000
-3.187300 0.000000
-3.167400 0.000000
-3.147600 0.000000
-3.127800 0.000000
-3.108000 0.000000
-3.088200 0.000000
-3.068300 0.000000
-3.048500 0.000000
-3.028700 0.000000
-3.008900 0.000000
-2.989100 0.000000
-2.969300 0.000000
-2.949400 0.000000
-2.929600 0.000000
-2.909800 0.000000
-2.890000 0.000000
-2.870200 0.000000
-2.850300 0.000000
-2.830500 0.000000
-2.810700 0.000000
-2.790900 0.000000
-2.771100 0.000000
-2.751200 0.000000
-2.731400 0.000000
-2.711600 0.000000
-2.691800 0.000000
-2.672000 0.000000
-2.652100 0.000000
-2.632300 0.000000
-2.612500 0.000000
-2.592700 0.000000
-2.572900 0.000000
-2.553000 0.000000
-2.533200 0.000000
-2.513400 0.000000
-2.493600 0.000000
-2.473800 0.000000
-2.453900 0.000000
-2.434100 0.000000
-2.414300 0.000000
-2.394500 0.000000
-2.374700 0.000000
-2.354800 0.000000
-2.335000 0.000000
-2.315200 0.000000
-2.295400 0.000000
-2.275600 0.000000
-2.255700 0.000000
-2.235900 0.000000
-2.216100 0.000000
-2.196300 0.000000
-2.176500 0.000000
-2.156600 0.000000
-2.136800 0.000000
-2.117000 0.000000
-2.097200 0.000000
-2.077400 0.000000
-2.057500 0.000000
-2.037700 0.000000
-2.017900 0.019900
-1.998100 0.057100
-1.978300 0.100900
-1.958400 0.151500
-1.938600 0.202500
-1.918800 0.210500
-1.899000 0.217000
-1.879200 0.228800
-1.859300 0.246600
-1.839500 0.327000
-1.819700 0.485400
-1.799900 0.697800
-1.780100 0.943000
-1.760200 1.347500
-1.740400 1.616300
-1.720600 1.715200
-1.700800 1.929000
-1.681000 2.234500
-1.661100 2.642100
-1.641300 3.388300
-1.621500 5.210600
-1.601700 4.326600
-1.581900 4.087600
-1.562000 4.545300
-1.542200 4.065100
-1.522400 3.355600
-1.502600 3.074200
-1.482800 2.834900
-1.462900 2.616400
-1.443100 2.531600
-1.423300 2.527500
-1.403500 2.547300
-1.383700 2.580900
-1.363800 2.665100
-1.344000 2.857400
-1.324200 3.266900
-1.304400 3.726700
-1.284600 3.529600
-1.264800 3.183000
-1.244900 2.715000
-1.225100 2.314300
-1.205300 1.917700
-1.185500 1.396400
-1.165700 1.324300
-1.145800 1.243400
-1.126000 1.140400
-1.106200 1.033700
-1.086400 0.926800
-1.066600 0.853000
-1.046700 0.793900
-1.026900 0.715100
-1.007100 0.805600
-0.987300 0.548700
-0.967500 0.332700
-0.947600 0.157700
-0.927800 0.037500
-0.908000 0.000000
-0.888200 0.000000
-0.868400 0.000000
-0.848500 0.014600
-0.828700 0.051600
-0.808900 0.141900
-0.789100 0.289500
-0.769300 0.491700
-0.749400 0.731200
-0.729600 1.039700
-0.709800 1.294400
-0.690000 1.539800
-0.670200 1.891000
-0.650300 2.431400
-0.630500 2.974600
-0.610700 3.342100
-0.590900 3.492600
-0.571100 4.447300
-0.551200 4.679800
-0.531400 4.644200
-0.511600 4.421900
-0.491800 4.279700
-0.472000 4.227200
-0.452100 4.238000
-0.432300 4.188100
-0.412500 4.018400
-0.392700 3.857400
-0.372900 3.593900
-0.353000 3.282800
-0.333200 3.080300
-0.313400 3.099600
-0.293600 1.946800
-0.273800 1.608500
-0.253900 1.453300
-0.234100 1.326000
-0.214300 1.230100
-0.194500 1.156200
-0.174700 1.093800
-0.154800 1.032900
-0.135000 0.973600
-0.115200 0.917100
-0.095400 0.863600
-0.075600 0.811600
-0.055700 0.761400
-0.035900 0.711800
-0.016100 0.659000
0.003700 0.602800
0.023500 0.548500
0.043400 0.496000
0.063200 0.450000
0.083000 0.416300
0.102800 0.388300
0.122600 0.361900
0.142500 0.337000
0.162300 0.313400
0.182100 0.291400
0.201900 0.271000
0.221700 0.251900
0.241600 0.234100
0.261400 0.217500
0.281200 0.202000
0.301000 0.187500
0.320800 0.173800
0.340700 0.164000
0.360500 0.156600
0.380300 0.150000
0.400100 0.144000
0.419900 0.138800
0.439700 0.134200
0.459600 0.129600
0.479400 0.125100
0.499200 0.120700
0.519000 0.116400
0.538800 0.112300
0.558700 0.126400
0.578500 0.160300
0.598300 0.245600
0.618100 0.333500
0.637900 0.424100
0.657800 0.517700
0.677600 0.604000
0.697400 0.663300
0.717200 0.721000
0.737000 0.787900
0.756900 0.760900
0.776700 0.712700
0.796500 0.739000
0.816300 0.769400
0.836100 0.804000
0.856000 0.843700
0.875800 0.892000
0.895600 0.949300
0.915400 1.016900
0.935200 1.092500
0.955100 1.199900
0.974900 1.310300
0.994700 1.399500
1.014500 1.472900
1.034300 1.530700
1.054200 1.571300
1.074000 1.747100
1.093800 1.841600
1.113600 1.954500
1.133400 2.340200
1.153300 1.911600
1.173100 1.842300
1.192900 1.790900
1.212700 1.757100
1.232500 1.741000
1.252400 1.882700
1.272200 1.735800
1.292000 1.720500
1.311800 1.706300
1.331600 1.694900
1.351500 1.763200
1.371300 1.718600
1.391100 1.777200
1.410900 1.832800
1.430700 1.823900
1.450600 1.820800
1.470400 1.817200
1.490200 1.795200
1.510000 1.793900
1.529800 1.956000
1.549700 1.946300
1.569500 1.943400
1.589300 1.949600
1.609100 1.987800
1.628900 2.060800
1.648800 2.085200
1.668600 2.059700
1.688400 2.049400
1.708200 2.053600
1.728000 2.074500
1.747900 2.109200
1.767700 2.159600
1.787500 2.262000
1.807300 2.371600
1.827100 2.417500
1.847000 2.467600
1.866800 2.537800
1.886600 2.650000
1.906400 2.766700
1.926200 2.866400
1.946100 2.969000
1.965900 3.068700
1.985700 3.187000
2.005500 3.332500
2.025300 3.471400
2.045200 3.562900
2.065000 3.607700
2.084800 3.636500
2.104600 3.666700
2.124400 3.308200
2.144200 3.153500
2.164100 3.146500
2.183900 3.184800
2.203700 3.222600
2.223500 3.253900
2.243300 3.216300
2.263200 3.154200
2.283000 3.100400
2.302800 3.114000
2.322600 3.149900
2.342400 2.956900
2.362300 2.944800
2.382100 2.959700
2.401900 3.011700
2.421700 3.098200
2.441500 3.404600
2.461400 3.463100
2.481200 3.505100
2.501000 3.572600
2.520800 3.637100
2.540600 3.639600
2.560500 3.640300
2.580300 3.526500
2.600100 3.522600
2.619900 3.496700
2.639700 3.357200
2.659600 3.240700
2.679400 3.118700
2.699200 3.041800
2.719000 3.033200
2.738800 3.093000
2.758700 3.192000
2.778500 3.180100
2.798300 3.165400
2.818100 3.283900
2.837900 3.502900
2.857800 4.251400
2.877600 5.380000
2.897400 3.643000
2.917200 3.624800
2.937000 3.648600
2.956900 3.696600
2.976700 3.746100
2.996500 3.760700
3.016300 3.735200
3.036100 3.686300
3.056000 3.656900
3.075800 3.630800
3.095600 3.634500
3.115400 3.623900
3.135200 3.596300
3.155100 3.620900
3.174900 3.593500
3.194700 3.527400
3.214500 3.435200
3.234300 3.334500
3.254200 3.408600
3.274000 3.971800
3.293800 4.017900
3.313600 3.540100
3.333400 3.561500
3.353300 3.832800
3.373100 4.171100
3.392900 4.495000
3.412700 4.094600
3.432500 4.440600
3.452400 4.613700
3.472200 4.731300
3.492000 4.813200
3.511800 4.863100
3.531600 4.807400
3.551500 4.668700
3.571300 4.378400
3.591100 3.990800
3.610900 3.732800
3.630700 3.550200
3.650600 3.557700
3.670400 3.505600
3.690200 3.384400
3.710000 3.439400
3.729800 3.728600
3.749600 3.523500
3.769500 2.682100
3.789300 1.829600
3.809100 1.588900
3.828900 1.596600
3.848700 1.612200
3.868600 1.626900
3.888400 1.639600
3.908200 1.650400
3.928000 1.658900
3.947800 1.669000
3.967700 1.683900
3.987500 1.701900
4.007300 1.719000
4.027100 1.737100
4.046900 1.756200
4.066800 1.776800
4.086600 1.808000
4.106400 1.848700
4.126200 1.892200
4.146000 1.931700
4.165900 1.961600
4.185700 1.989500
4.205500 2.004700
4.225300 2.006600
4.245100 2.006000
4.265000 1.997500
4.284800 1.904900
4.304600 1.794800
4.324400 1.729100
4.344200 1.670300
4.364100 1.620100
4.383900 1.531900
4.403700 1.376000
4.423500 0.995100
4.443300 0.725000
4.463200 0.584900
4.483000 0.469300
4.502800 0.378400
4.522600 0.372000
4.542400 0.373700
4.562300 0.337000
4.582100 0.311000
4.601900 0.331200
4.621700 0.322000
4.641500 0.261400
4.661400 0.255700
4.681200 0.246900
4.701000 0.234900
4.720800 0.219900
4.740600 0.201700
4.760500 0.180300
4.780300 0.155700
4.800100 0.127500
4.819900 0.129800
4.839700 0.141800
4.859600 0.153800
4.879400 0.165800
4.899200 0.177700
4.919000 0.189900
4.938800 0.202400
4.958700 0.215100
4.978500 0.228500
4.998300 0.244800
5.018100 0.263900
5.037900 0.283400
5.057800 0.303900
5.077600 0.326100
5.097400 0.349600
5.117200 0.374700
5.137000 0.401400
5.156900 0.635400
5.176700 0.805500
5.196500 0.963500
5.216300 1.064200
5.236100 1.127700
5.256000 1.215500
5.275800 1.359500
5.295600 1.528200
5.315400 1.722300
5.335200 1.951100
5.355100 2.177100
5.374900 2.478200
5.394700 2.758000
5.414500 2.943500
5.434300 3.075300
5.454100 3.184100
5.474000 3.670700
5.493800 3.467500
5.513600 3.347700
5.533400 3.595900
5.553200 3.846700
5.573100 3.766900
5.592900 3.810700
5.612700 3.876300
5.632500 3.867400
5.652300 3.770100
5.672200 3.600000
5.692000 3.361500
5.711800 3.064900
5.731600 2.785900
5.751400 2.446400
5.771300 2.139600
5.791100 1.912800
5.810900 1.687600
5.830700 1.425200
5.850500 1.163700
5.870400 0.974800
5.890200 0.813700
5.910000 0.684100
5.929800 0.576700
5.949600 0.496000
5.969500 0.434600
5.989300 0.377800
6.009100 0.325700
6.028900 0.279800
6.048700 0.240400
6.068600 0.207300
6.088400 0.179700
6.108200 0.153500
6.128000 0.128800
6.147800 0.107000
6.167700 0.087000
6.187500 0.072100
6.207300 0.062300
6.227100 0.054300
6.246900 0.046800
6.266800 0.039800
6.286600 0.037400
6.306400 0.039100
6.326200 0.044000
6.346000 0.052100
6.365900 0.063300
6.385700 0.077800
6.405500 0.095300
6.425300 0.115300
6.445100 0.137700
6.465000 0.162700
6.484800 0.186400
6.504600 0.208300
6.524400 0.228600
6.544200 0.247200
6.564100 0.264100
6.583900 0.279800
6.603700 0.294800
6.623500 0.311700
6.643300 0.329300
6.663200 0.346800
6.683000 0.364400
6.702800 0.382000
6.722600 0.399600
6.742400 0.417300
6.762300 0.435700
6.782100 0.455300
6.801900 0.476000
6.821700 0.496000
6.841500 0.514600
6.861400 0.532100
6.881200 0.549300
6.901000 0.570300
6.920800 0.601300
6.940600 0.637800
6.960500 0.675100
6.980300 0.712900
7.000100 0.750500
7.019900 0.786300
7.039700 0.823500
7.059600 0.872600
7.079400 0.918700
7.099200 0.962000
7.119000 1.003100
7.138800 1.042500
7.158600 1.081500
7.178500 1.119100
7.198300 1.155400
7.218100 1.167900
7.237900 1.182900
7.257700 1.214800
7.277600 1.254000
7.297400 1.289900
7.317200 1.322500
7.337000 1.355000
7.356800 1.398500
7.376700 1.475400
7.396500 1.605700
7.416300 1.789900
7.436100 2.030700
7.455900 2.362800
7.475800 2.037900
7.495600 2.014200
7.515400 1.966800
7.535200 1.893100
7.555000 1.922000
7.574900 1.751900
7.594700 1.622000
7.614500 1.468900
7.634300 1.381700
7.654100 1.368500
7.674000 1.347700
7.693800 1.282600
7.713600 1.236900
7.733400 1.214400
7.753200 1.190800
7.773100 1.178600
7.792900 1.154800
7.812700 1.136200
7.832500 1.132500
7.852300 1.138800
7.872200 1.154000
7.892000 1.170900
7.911800 1.189000
7.931600 1.201700
7.951400 1.206800
7.971300 1.206400
7.991100 1.210900
8.010900 1.218400
8.030700 1.239000
8.050500 1.292300
8.070400 1.515400
8.090200 1.656300
8.110000 1.514800
8.129800 1.612900
8.149600 1.693300
8.169500 1.871300
8.189300 1.731000
8.209100 1.571200
8.228900 1.410400
8.248700 1.270800
8.268600 1.184800
8.288400 1.161200
8.308200 1.169400
8.328000 0.893000
8.347800 0.895400
8.367700 0.964800
8.387500 1.035700
8.407300 1.107600
8.427100 1.177400
8.446900 1.244800
8.466800 1.313200
8.486600 1.386500
8.506400 1.476600
8.526200 2.062400
8.546000 2.108600
8.565900 2.285400
8.585700 2.666300
8.605500 2.825200
8.625300 2.976200
8.645100 3.067600
8.665000 3.193300
8.684800 3.602700
8.704600 3.667300
8.724400 3.405800
8.744200 3.243200
8.764000 3.116900
8.783900 3.013200
8.803700 3.065500
8.823500 3.196600
8.843300 3.248900
8.863100 3.337600
8.883000 3.415500
8.902800 3.459700
8.922600 3.484200
8.942400 3.398900
8.962200 3.342000
8.982100 3.204900
9.001900 2.878600
9.021700 2.688100
9.041500 2.520400
9.061300 2.404800
9.081200 2.335500
9.101000 2.310400
9.120800 2.332200
9.140600 2.403400
9.160400 2.433900
9.180300 2.511200
9.200100 2.598400
9.219900 2.722000
9.239700 2.859300
9.259500 2.864600
9.279400 2.953400
9.299200 3.097400
9.319000 3.381900
9.338800 3.733600
9.358600 4.037500
9.378500 4.329100
9.398300 4.223500
9.418100 4.321500
9.437900 4.331800
9.457700 4.199500
9.477600 4.106400
9.497400 3.668900
9.517200 3.358500
9.537000 3.061100
9.556800 2.686100
9.576700 2.446900
9.596500 2.234200
9.616300 2.220600
9.636100 2.004900
9.655900 1.741000
9.675800 1.537300
9.695600 1.430500
9.715400 1.307200
9.735200 1.202800
9.755000 1.187400
9.774900 1.221400
9.794700 1.268400
9.814500 1.311900
9.834300 1.321900
9.854100 1.396300
9.874000 1.533700
9.893800 1.694400
9.913600 1.896500
9.933400 2.036800
9.953200 2.138400
9.973100 2.408900
9.992900 2.728400
10.012700 2.951200
10.032500 3.200100
10.052300 3.427000
10.072200 3.752900
10.092000 3.820500
10.111800 3.816100
10.131600 3.326200
10.151400 3.001400
10.171300 2.784000
10.191100 2.685200
10.210900 2.529000
10.230700 2.409400
10.250500 2.332200
10.270400 2.227000
10.290200 2.126900
10.310000 2.082400
10.329800 2.063300
10.349600 2.047300
10.369500 2.027600
10.389300 2.002300
10.409100 1.971700
10.428900 1.941100
10.448700 1.915600
10.468500 1.896300
10.488400 1.884200
10.508200 1.872300
10.528000 1.896800
10.547800 1.967200
10.567600 2.067900
10.587500 2.186000
10.607300 2.320800
10.627100 2.477500
10.646900 2.593200
10.666700 2.566200
10.686600 2.211600
10.706400 2.131700
10.726200 2.373600
10.746000 2.750300
10.765800 3.505500
10.785700 3.231200
10.805500 3.638000
10.825300 4.427300
10.845100 4.563800
10.864900 4.897900
10.884800 5.212900
10.904600 5.419200
10.924400 5.655000
10.944200 5.804500
10.964000 6.911500
10.983900 6.465400
11.003700 6.700500
11.023500 5.536900
11.043300 5.838200
11.063100 5.054500
11.083000 4.594700
11.102800 4.136000
11.122600 3.919600
11.142400 3.786300
11.162200 3.705800
11.182100 3.682800
11.201900 3.675200
11.221700 3.705500
11.241500 3.967700
11.261300 4.116200
11.281200 4.043200
11.301000 3.894200
11.320800 3.734400
11.340600 3.679000
11.360400 3.749200
11.380300 4.546700
11.400100 5.280100
11.419900 5.382200
11.439700 4.684000
11.459500 4.011800
11.479400 4.333100
11.499200 2.702800
11.519000 2.315200
11.538800 2.081600
11.558600 1.937800
11.578500 1.819600
11.598300 1.723400
11.618100 1.639000
11.637900 1.566000
11.657700 1.494800
11.677600 1.441100
11.697400 1.414100
11.717200 1.404000
11.737000 1.407600
11.756800 1.412300
11.776700 1.410000
11.796500 1.420300
11.816300 1.434200
11.836100 1.441000
11.855900 1.425200
11.875800 1.417000
11.895600 1.418800
11.915400 1.427900
11.935200 1.436800
11.955000 1.445400
11.974900 1.453600
11.994700 1.462400
12.014500 1.472400
12.034300 1.479500
12.054100 1.487900
12.074000 1.504700
12.093800 1.530800
12.113600 1.565000
12.133400 1.609000
12.153200 1.674300
12.173000 1.753700
12.192900 1.819800
12.212700 1.894200
12.232500 1.984400
12.252300 2.085000
12.272100 2.193000
12.292000 2.282400
12.311800 2.341700
12.331600 2.517000
12.351400 2.877300
12.371200 2.573700
12.391100 2.433000
12.410900 2.493500
12.430700 2.551000
12.450500 2.400000
12.470300 2.107200
12.490200 1.849900
12.510000 1.701700
12.529800 1.605300
12.549600 1.559700
12.569400 1.481000
12.589300 1.322900
12.609100 1.234000
12.628900 1.181700
12.648700 1.136700
12.668500 1.097500
12.688400 1.060900
12.708200 1.029500
12.728000 1.004000
12.747800 0.980000
12.767600 0.953200
12.787500 0.923400
12.807300 0.892100
12.827100 0.865800
12.846900 0.873200
12.866700 0.894900
12.886600 0.931200
12.906400 0.970400
12.926200 1.058500
12.946000 1.225200
12.965800 1.576400
12.985700 1.544700
13.005500 1.659200
13.025300 1.792900
13.045100 1.890100
13.064900 1.961000
13.084800 2.005700
13.104600 1.899400
13.124400 1.847400
13.144200 1.842800
13.164000 1.825000
13.183900 1.829500
13.203700 1.829900
13.223500 1.826700
13.243300 1.843500
13.263100 1.851800
13.283000 1.853500
13.302800 1.851800
13.322600 1.900500
13.342400 2.056800
13.362200 1.989100
13.382100 1.853900
13.401900 1.797700
13.421700 1.760700
13.441500 1.751300
13.461300 1.757700
13.481200 1.774100
13.501000 1.807600
13.520800 1.860300
13.540600 1.896100
13.560400 1.905600
13.580300 1.886100
13.600100 1.842400
13.619900 1.781400
13.639700 1.722500
13.659500 1.713400
13.679400 1.725300
13.699200 1.742700
13.719000 1.757700
13.738800 1.955700
13.758600 1.916600
13.778500 1.856300
13.798300 1.803100
13.818100 1.777700
13.837900 1.776900
13.857700 1.781800
13.877500 1.790100
13.897400 1.801700
13.917200 1.835000
13.937000 1.908000
13.956800 2.034500
13.976600 2.133500
13.996500 2.204100
14.016300 2.270300
14.036100 2.362700
14.055900 2.483300
14.075700 2.598200
14.095600 2.616800
14.115400 2.604400
14.135200 2.536100
14.155000 2.469800
14.174800 2.355200
14.194700 2.232700
14.214500 1.968900
14.234300 1.787800
14.254100 1.743700
14.273900 1.686600
14.293800 1.599300
14.313600 1.528000
14.333400 1.479000
14.353200 1.455000
14.373000 1.510200
14.392900 1.583400
14.412700 1.644400
14.432500 1.693500
14.452300 1.729000
14.472100 1.755200
14.492000 1.790100
14.511800 1.841400
14.531600 1.918800
14.551400 2.058600
14.571200 2.007000
14.591100 1.986400
14.610900 1.958600
14.630700 1.865800
14.650500 1.857000
14.670300 1.871600
14.690200 1.911300
14.710000 1.975800
14.729800 2.064100
14.749600 2.173900
14.769400 2.294300
14.789300 2.423800
14.809100 2.544700
14.828900 2.664600
14.848700 2.799100
14.868500 2.969000
14.888400 3.182900
14.908200 3.406300
14.928000 3.736200
14.947800 3.720300
14.967600 3.512800
14.987500 3.560300
15.007300 3.659900
15.027100 3.807500
15.046900 3.848900
15.066700 4.238700
15.086600 4.503600
15.106400 4.713800
15.126200 4.979200
15.146000 4.833700
15.165800 4.215800
15.185700 3.462600
15.205500 2.839900
15.225300 2.737400
15.245100 2.675500
15.264900 2.650400
15.284800 2.732200
15.304600 2.997700
15.324400 3.337000
15.344200 3.353400
15.364000 3.524900
15.383900 3.563900
15.403700 3.618900
15.423500 3.857100
15.443300 3.926200
15.463100 3.746100
15.482900 3.541100
15.502800 3.420000
15.522600 3.303800
15.542400 3.218500
15.562200 3.125700
15.582000 3.034800
15.601900 2.944900
15.621700 2.858400
15.641500 2.803900
15.661300 2.759300
15.681100 2.677200
15.701000 2.721300
15.720800 2.807900
15.740600 2.799900
15.760400 2.796900
15.780200 2.782700
15.800100 2.761600
15.819900 2.791400
15.839700 2.823300
15.859500 2.807200
15.879300 2.785600
15.899200 2.757000
15.919000 2.762800
15.938800 2.781000
15.958600 2.796800
15.978400 2.807400
15.998300 2.812300
16.018100 2.811400
16.037900 2.816600
16.057700 2.830500
16.077500 2.844600
16.097400 2.856300
16.117200 2.872700
16.137000 2.892900
16.156800 2.917200
16.176600 2.966600
16.196500 2.991000
16.216300 2.989500
16.236100 2.968200
16.255900 2.944900
16.275700 2.991400
16.295600 3.073400
16.315400 3.159900
16.335200 3.235800
16.355000 3.294600
16.374800 3.455200
16.394700 3.342700
16.414500 3.287100
16.434300 3.184900
16.454100 3.115100
16.473900 3.037400
16.493800 2.964500
16.513600 2.892800
16.533400 2.815400
16.553200 2.749300
16.573000 2.714500
16.592900 2.742900
16.612700 2.781100
16.632500 2.814700
16.652300 2.858700
16.672100 2.925000
16.692000 3.026800
16.711800 3.175300
16.731600 3.430900
16.751400 3.780600
16.771200 4.114400
16.791100 4.404900
16.810900 4.718100
16.830700 4.529700
16.850500 4.553200
16.870300 4.675400
16.890200 6.016700
16.910000 6.007700
16.929800 5.081500
16.949600 4.307900
16.969400 3.883200
16.989300 3.650400
17.009100 3.442200
17.028900 3.262700
17.048700 3.118700
17.068500 3.004900
17.088400 2.906000
17.108200 2.834900
17.128000 2.834700
17.147800 2.883000
17.167600 2.961000
17.187400 3.054600
17.207300 3.154100
17.227100 3.291900
17.246900 3.431500
17.266700 3.520500
17.286500 3.596000
17.306400 3.674500
17.326200 3.721300
17.346000 3.880900
17.365800 3.624300
17.385600 3.551900
17.405500 3.514600
17.425300 3.518600
17.445100 3.639500
17.464900 3.611200
17.484700 3.655900
17.504600 3.752600
17.524400 3.795700
17.544200 3.763300
17.564000 3.707600
17.583800 3.706200
17.603700 4.003100
17.623500 4.088800
17.643300 4.183600
17.663100 4.124500
17.682900 3.899400
17.702800 3.858500
17.722600 3.878600
17.742400 3.364100
17.762200 3.081200
17.782000 2.885700
17.801900 2.873900
17.821700 2.586100
17.841500 2.732400
17.861300 2.841000
17.881100 2.904300
17.901000 3.061400
17.920800 3.393400
17.940600 3.688800
17.960400 3.801500
17.980200 4.062000
18.000100 3.851400
18.019900 3.768400
18.039700 3.799500
18.059500 3.859000
18.079300 3.830200
18.099200 3.666900
18.119000 3.713500
18.138800 3.813200
18.158600 3.893200
18.178400 3.923800
18.198300 3.954300
18.218100 4.069900
18.237900 4.185800
18.257700 4.195200
18.277500 4.162700
18.297400 4.195900
18.317200 4.333900
18.337000 4.195800
18.356800 4.102700
18.376600 4.175800
18.396500 4.165500
18.416300 4.083700
18.436100 3.996600
18.455900 3.977500
18.475700 3.881100
18.495600 3.757800
18.515400 3.655100
18.535200 3.539800
18.555000 3.421000
18.574800 3.278400
18.594700 3.092300
18.614500 2.862900
18.634300 2.671700
18.654100 2.588100
18.673900 2.468700
18.693800 2.405500
18.713600 2.286300
18.733400 2.222800
18.753200 2.264000
18.773000 2.349100
18.792900 2.458600
18.812700 2.568000
18.832500 2.679100
18.852300 2.800700
18.872100 2.950500
18.891900 3.137000
18.911800 3.349800
18.931600 3.479000
18.951400 3.538000
18.971200 3.543200
18.991000 3.522300
19.010900 3.540500
19.030700 3.551400
19.050500 3.941900
19.070300 4.074300
19.090100 4.068700
19.110000 4.068200
19.129800 4.060700
19.149600 4.059100
19.169400 3.912600
19.189200 3.689500
19.209100 3.441100
19.228900 3.262500
19.248700 3.151200
19.268500 3.099700
19.288300 2.942400
19.308200 2.841300
19.328000 2.815600
19.347800 2.290200
19.367600 1.902100
19.387400 1.722100
19.407300 1.653400
19.427100 1.626700
19.446900 1.620400
19.466700 1.649700
19.486500 1.688900
19.506400 1.774000
19.526200 1.870200
19.546000 1.977100
19.565800 2.110100
19.585600 2.282300
19.605500 2.506500
19.625300 2.769800
19.645100 2.917300
19.664900 3.061900
19.684700 3.283000
19.704600 3.489400
19.724400 3.462500
19.744200 3.497400
19.764000 3.479500
19.783800 3.449600
19.803700 3.468000
19.823500 3.477200
19.843300 3.506400
19.863100 3.519100
19.882900 3.502200
19.902800 3.527900
19.922600 3.424900
19.942400 3.306900
19.962200 3.243200
19.982000 3.214800
20.001900 3.092600
20.021700 3.113000
20.041500 3.176900
20.061300 3.287600
20.081100 3.468000
20.101000 3.927600
20.120800 4.767800
20.140600 5.152700
20.160400 5.150500
20.180200 5.365500
20.200100 5.202000
20.219900 5.144900
20.239700 5.364600
20.259500 5.237800
20.279300 4.874900
20.299200 4.549800
20.319000 4.209900
20.338800 3.893600
20.358600 3.891600
20.378400 3.992300
20.398300 4.059300
20.418100 4.189300
20.437900 4.329100
20.457700 4.374800
20.477500 4.352100
20.497400 4.198400
20.517200 4.103200
20.537000 4.027400
20.556800 4.395000
20.576600 3.991300
20.596400 3.481700
20.616300 3.410200
20.636100 3.376300
20.655900 3.360200
20.675700 3.374000
20.695500 3.389900
20.715400 3.378700
20.735200 3.295800
20.755000 3.302700
20.774800 3.376100
20.794600 3.468200
20.814500 3.559000
20.834300 3.667500
20.854100 3.776200
20.873900 3.849800
20.893700 3.893100
20.913600 3.899700
20.933400 3.931100
20.953200 4.153700
20.973000 4.795900
20.992800 4.309400
21.012700 4.231800
21.032500 4.251200
21.052300 4.398300
21.072100 4.566700
21.091900 4.575400
21.111800 4.580000
21.131600 4.632300
21.151400 4.553500
21.171200 4.361500
21.191000 4.239200
21.210900 4.186100
21.230700 4.209800
21.250500 4.228700
21.270300 4.248700
21.290100 4.376800
21.310000 4.071500
21.329800 3.853000
21.349600 3.732900
21.369400 3.638400
21.389200 3.582200
21.409100 3.627300
21.428900 3.705900
21.448700 3.752600
21.468500 3.770800
21.488300 3.754000
21.508200 3.769700
21.528000 3.768700
21.547800 3.565800
21.567600 3.669700
21.587400 3.858700
21.607300 3.826700
21.627100 3.872600
21.646900 4.407000
21.666700 3.934200
21.686500 4.050200
21.706400 4.142200
21.726200 4.183000
21.746000 4.178900
21.765800 4.251700
21.785600 4.363600
21.805500 4.539400
21.825300 4.753300
21.845100 4.673300
21.864900 4.569800
21.884700 4.309200
21.904600 3.990200
21.924400 3.970200
21.944200 4.233800
21.964000 4.494700
21.983800 4.534300
22.003700 4.503100
22.023500 4.558400
22.043300 4.511000
22.063100 4.382900
22.082900 4.292200
22.102800 4.181200
22.122600 4.109700
22.142400 4.052600
22.162200 3.954200
22.182000 3.905200
22.201800 4.011700
22.221700 4.150700
22.241500 4.226600
22.261300 4.002300
22.281100 4.276000
22.300900 3.853000
22.320800 3.539900
22.340600 3.296400
22.360400 3.092900
22.380200 2.968900
22.400000 2.909700
22.419900 2.894900
22.439700 2.927800
22.459500 3.035100
22.479300 3.273800
22.499100 3.526200
22.519000 3.554700
22.538800 3.538700
22.558600 3.526000
22.578400 3.488000
22.598200 3.561900
22.618100 3.359400
22.637900 3.451700
22.657700 3.463400
22.677500 3.476300
22.697300 3.465400
22.717200 3.492600
22.737000 3.603700
22.756800 3.812500
22.776600 4.045000
22.796400 4.305600
22.816300 4.299600
22.836100 4.174200
22.855900 4.080300
22.875700 3.991100
22.895500 3.908100
22.915400 3.836700
22.935200 3.829800
22.955000 3.932800
22.974800 3.799700
22.994600 3.670100
23.014500 3.435800
23.034300 3.247300
23.054100 3.043400
23.073900 2.867700
23.093700 2.795400
23.113600 2.738500
23.133400 2.665600
23.153200 2.624200
23.173000 2.629900
23.192800 2.673900
23.212700 2.720000
23.232500 2.841800
23.252300 3.060100
23.272100 3.340700
23.291900 3.794700
23.311800 4.019100
23.331600 4.432500
23.351400 4.721400
23.371200 5.006100
23.391000 5.158300
23.410900 4.995000
23.430700 4.982200
23.450500 4.949000
23.470300 4.673900
23.490100 4.378100
23.510000 4.353500
23.529800 4.052100
23.549600 3.587500
23.569400 3.537100
23.589200 3.466900
23.609100 3.378500
23.628900 3.303100
23.648700 3.235900
23.668500 3.171600
23.688300 3.079500
23.708200 2.953800
23.728000 2.975800
23.747800 3.039900
23.767600 3.221600
23.787400 3.465200
23.807300 3.717500
23.827100 3.981300
23.846900 4.521100
23.866700 4.913900
23.886500 5.168700
23.906300 5.285800
23.926200 5.123700
23.946000 5.035100
23.965800 4.896800
23.985600 4.681200
24.005400 4.424200
24.025300 4.179200
24.045100 3.923700
24.064900 4.014000
24.084700 4.122200
24.104500 4.060100
24.124400 3.771300
24.144200 3.528500
24.164000 3.412800
24.183800 3.354800
24.203600 3.301900
24.223500 3.281100
24.243300 3.301300
24.263100 3.407800
24.282900 3.519400
24.302700 3.539600
24.322600 3.547700
24.342400 3.489800
24.362200 3.410000
24.382000 3.346700
24.401800 3.334200
24.421700 3.295400
24.441500 3.263000
24.461300 3.224100
24.481100 3.162900
24.500900 3.138200
24.520800 3.165400
24.540600 3.260400
24.560400 3.434700
24.580200 3.600500
24.600000 3.762700
24.619900 3.909000
24.639700 4.069100
24.659500 4.209900
24.679300 4.292200
24.699100 4.511300
24.719000 4.844900
24.738800 4.981000
24.758600 5.041200
24.778400 4.963200
24.798200 4.757500
24.818100 4.599500
24.837900 4.494400
24.857700 4.405600
24.877500 4.273900
24.897300 4.147000
24.917200 4.022400
24.937000 3.895900
24.956800 3.784900
24.976600 3.879400
24.996400 3.856900
25.016300 3.688400
25.036100 3.526300
25.055900 3.212800
25.075700 3.027800
25.095500 2.892300
25.115400 2.771400
25.135200 2.630100
25.155000 2.452800
25.174800 2.365200
25.194600 2.304700
25.214500 2.238900
25.234300 2.193100
25.254100 2.254200
25.273900 2.334200
25.293700 2.405100
25.313600 2.473100
25.333400 2.453600
25.353200 2.424100
25.373000 2.397400
25.392800 2.392100
25.412700 2.391800
25.432500 2.363300
25.452300 2.330800
25.472100 2.221400
25.491900 1.983400
25.511800 1.736700
25.531600 1.524500
25.551400 1.395500
25.571200 1.339500
25.591000 1.289000
25.610800 1.241400
25.630700 1.197900
25.650500 1.159600
25.670300 1.367100
25.690100 0.923900
25.709900 0.815700
25.729800 0.715000
25.749600 0.610200
25.769400 0.487600
25.789200 0.383100
25.809000 0.330000
25.828900 0.317900
25.848700 0.323300
25.868500 0.328200
25.888300 0.329700
25.908100 0.327000
25.928000 0.320100
25.947800 0.309600
25.967600 0.295800
25.987400 0.278300
26.007200 0.257600
26.027100 0.247900
26.046900 0.243900
26.066700 0.239900
26.086500 0.236100
26.106300 0.232200
26.126200 0.228400
26.146000 0.224600
26.165800 0.220900
26.185600 0.217100
26.205400 0.213200
26.225300 0.209000
26.245100 0.203900
26.264900 0.198100
26.284700 0.191500
26.304500 0.184100
26.324400 0.175900
26.344200 0.167000
26.364000 0.157700
26.383800 0.149500
26.403600 0.143100
26.423500 0.138500
26.443300 0.135300
26.463100 0.132300
26.482900 0.129200
26.502700 0.126200
26.522600 0.123100
26.542400 0.120000
26.562200 0.116900
26.582000 0.113800
26.601800 0.110700
26.621700 0.107600
26.641500 0.104600
26.661300 0.101800
26.681100 0.099200
26.700900 0.096700
26.720800 0.094400
26.740600 0.092600
26.760400 0.091700
26.780200 0.091200
26.800000 0.089500
26.819900 0.087300
26.839700 0.084700
26.859500 0.082000
26.879300 0.079300
26.899100 0.076900
26.919000 0.074600
26.938800 0.073200
26.958600 0.070000
26.978400 0.066800
26.998200 0.063700
27.018100 0.060700
27.037900 0.057800
27.057700 0.054900
27.077500 0.052100
27.097300 0.049300
27.117200 0.046700
27.137000 0.044000
27.156800 0.041500
27.176600 0.039000
27.196400 0.036600
27.216300 0.034300
27.236100 0.032000
27.255900 0.029800
27.275700 0.027600
27.295500 0.025600
27.315300 0.023600
27.335200 0.021600
27.355000 0.019800
27.374800 0.018000
27.394600 0.016200
27.414400 0.014600
27.434300 0.013000
27.454100 0.011500
27.473900 0.010000
27.493700 0.008600
27.513500 0.007300
27.533400 0.006100
27.553200 0.004900
27.573000 0.003800
27.592800 0.002800
27.612600 0.001800
27.632500 0.001000
27.652300 0.000500
27.672100 0.000000
27.691900 0.000000
27.711700 0.000000
27.731600 0.000000
27.751400 0.000000
27.771200 0.000000
27.791000 0.000000
27.810800 0.000000
27.830700 0.000000
27.850500 0.000000
27.870300 0.000000
27.890100 0.000000
27.909900 0.000000
27.929800 0.000000
27.949600 0.000000
27.969400 0.000000
27.989200 0.000000
28.009000 0.000000
28.028900 0.000000
28.048700 0.000000
28.068500 0.000000
28.088300 0.000000
28.108100 0.000000
28.128000 0.000000
28.147800 0.000000
28.167600 0.000000
28.187400 0.000000
28.207200 0.000000
28.227100 0.000000
28.246900 0.000000
28.266700 0.000000
28.286500 0.000000
28.306300 0.000000
28.326200 0.000000
28.346000 0.000000
28.365800 0.000000
28.385600 0.000000
28.405400 0.000000
28.425300 0.000000
28.445100 0.000000
28.464900 0.000000
28.484700 0.000000
28.504500 0.000000
28.524400 0.000000
28.544200 0.000000
28.564000 0.000000
28.583800 0.000000
28.603600 0.000000
28.623500 0.000000
28.643300 0.000000
28.663100 0.000000
28.682900 0.000000
28.702700 0.000000
28.722600 0.000000
28.742400 0.000000
28.762200 0.000000
28.782000 0.000000
28.801800 0.000000
28.821700 0.000000
28.841500 0.000000
28.861300 0.000000
28.881100 0.000000
28.900900 0.000000
28.920700 0.000000
28.940600 0.000000
28.960400 0.000000
28.980200 0.000000
29.000000 0.000000
29.019800 0.000000
29.039700 0.000000
29.059500 0.000000
29.079300 0.000000
29.099100 0.000000
29.118900 0.000000
29.138800 0.000000
29.158600 0.000000
29.178400 0.000000
29.198200 0.000000
29.218000 0.000000
29.237900 0.000000
29.257700 0.000000
29.277500 0.000000
29.297300 0.000000
29.317100 0.000000
29.337000 0.000000
29.356800 0.000000
29.376600 0.000000
29.396400 0.000000
29.416200 0.000000
29.436100 0.000000
29.455900 0.000000
29.475700 0.000000
e
