set title 'mp-1018275 - Density of States'
set xlabel 'Energy (eV)'
set ylabel 'DOS (states/eV)'
set grid
set xrange [-10:10]
set yrange [0:5.936]
set xzeroaxis lt -1
set terminal png size 800,600
set output 'mp-1018275_dos_gnuplot.png'
plot '-' using 1:2 with lines title 'DOS'
-13.892500 0.000000
-13.861400 0.000000
-13.830300 0.000000
-13.799300 0.000000
-13.768200 0.000000
-13.737100 0.000000
-13.706100 0.000000
-13.675000 0.000000
-13.643900 0.000000
-13.612900 0.000000
-13.581800 0.000000
-13.550700 0.000000
-13.519700 0.000000
-13.488600 0.000000
-13.457500 0.000000
-13.426500 0.000000
-13.395400 0.000000
-13.364300 0.000000
-13.333300 0.000000
-13.302200 0.000000
-13.271100 0.000000
-13.240100 0.000000
-13.209000 0.000000
-13.177900 0.000000
-13.146900 0.000000
-13.115800 0.000000
-13.084700 0.000000
-13.053700 0.000000
-13.022600 0.000000
-12.991500 0.000000
-12.960500 0.000000
-12.929400 0.000000
-12.898300 0.000000
-12.867300 0.000000
-12.836200 0.000000
-12.805100 0.000000
-12.774100 0.000000
-12.743000 0.000000
-12.712000 0.000000
-12.680900 0.000000
-12.649800 0.000000
-12.618800 0.000000
-12.587700 0.000000
-12.556600 0.000000
-12.525600 0.000000
-12.494500 0.000000
-12.463400 0.000000
-12.432400 0.000000
-12.401300 0.000000
-12.370200 0.000000
-12.339200 0.000000
-12.308100 0.000000
-12.277000 0.000000
-12.246000 0.000000
-12.214900 0.000000
-12.183800 0.000000
-12.152800 0.000000
-12.121700 0.000000
-12.090600 0.000000
-12.059600 0.000000
-12.028500 0.000000
-11.997400 0.000000
-11.966400 0.000000
-11.935300 0.000000
-11.904200 0.000000
-11.873200 0.000000
-11.842100 0.000000
-11.811000 0.000000
-11.780000 0.000000
-11.748900 0.000000
-11.717800 0.000000
-11.686800 0.000000
-11.655700 0.000000
-11.624600 0.000000
-11.593600 0.000000
-11.562500 0.000000
-11.531500 0.000000
-11.500400 0.000000
-11.469300 0.000000
-11.438300 0.000000
-11.407200 0.000000
-11.376100 0.000000
-11.345100 0.000000
-11.314000 0.000000
-11.282900 0.000000
-11.251900 0.000000
-11.220800 0.000000
-11.189700 0.000000
-11.158700 0.000000
-11.127600 0.000000
-11.096500 0.000000
-11.065500 20.731300
-11.034400 30.628500
-11.003300 19.690000
-10.972300 68.774900
-10.941200 8.654600
-10.910100 63.935200
-10.879100 139.800300
-10.848000 51.289900
-10.816900 0.000000
-10.785900 77.870200
-10.754800 5.131700
-10.723700 10.574100
-10.692700 26.853500
-10.661600 0.000000
-10.630500 0.000000
-10.599500 0.000000
-10.568400 0.000000
-10.537300 0.000000
-10.506300 0.000000
-10.475200 0.000000
-10.444100 0.000000
-10.413100 0.000000
-10.382000 0.000000
-10.351000 0.000000
-10.319900 0.000000
-10.288800 0.000000
-10.257800 0.000000
-10.226700 0.000000
-10.195600 0.000000
-10.164600 0.000000
-10.133500 0.000000
-10.102400 0.000000
-10.071400 0.000000
-10.040300 0.000000
-10.009200 0.000000
-9.978200 0.000000
-9.947100 0.000000
-9.916000 0.000000
-9.885000 0.000000
-9.853900 0.000000
-9.822800 0.000000
-9.791800 0.000000
-9.760700 0.000000
-9.729600 0.000000
-9.698600 0.000000
-9.667500 0.000000
-9.636400 0.000000
-9.605400 0.000000
-9.574300 0.000000
-9.543200 0.000000
-9.512200 0.000000
-9.481100 0.000000
-9.450000 0.000000
-9.419000 0.000000
-9.387900 0.002300
-9.356800 0.039300
-9.325800 0.093600
-9.294700 0.165300
-9.263600 0.252000
-9.232600 0.352500
-9.201500 0.467000
-9.170500 0.610200
-9.139400 0.761000
-9.108300 0.779300
-9.077300 0.823500
-9.046200 0.872200
-9.015100 0.910500
-8.984100 0.929000
-8.953000 0.897100
-8.921900 0.836000
-8.890900 0.859100
-8.859800 0.882200
-8.828700 0.905200
-8.797700 0.928300
-8.766600 0.951400
-8.735500 0.974500
-8.704500 0.997600
-8.673400 1.020700
-8.642300 1.048000
-8.611300 1.079800
-8.580200 1.115400
-8.549100 1.155200
-8.518100 1.200100
-8.487000 1.251500
-8.455900 1.305900
-8.424900 1.363900
-8.393800 1.424800
-8.362700 1.489500
-8.331700 1.559900
-8.300600 1.631200
-8.269500 1.702600
-8.238500 1.774200
-8.207400 1.845900
-8.176300 1.917800
-8.145300 1.989900
-8.114200 2.062100
-8.083200 2.134600
-8.052100 4.999400
-8.021000 5.396200
-7.990000 2.515300
-7.958900 2.064300
-7.927800 1.611500
-7.896800 1.156800
-7.865700 0.700200
-7.834600 0.241700
-7.803600 0.000000
-7.772500 0.000000
-7.741400 0.000000
-7.710400 0.000000
-7.679300 0.000000
-7.648200 0.000000
-7.617200 0.000000
-7.586100 0.000000
-7.555000 0.000000
-7.524000 0.000000
-7.492900 0.000000
-7.461800 0.000000
-7.430800 0.000000
-7.399700 0.000000
-7.368600 0.003000
-7.337600 0.029000
-7.306500 0.057700
-7.275400 0.089100
-7.244400 0.123200
-7.213300 0.159900
-7.182200 0.199400
-7.151200 0.241500
-7.120100 0.286400
-7.089000 0.313100
-7.058000 0.325300
-7.026900 0.338600
-6.995800 0.352900
-6.964800 0.369100
-6.933700 0.388000
-6.902700 0.409600
-6.871600 0.432800
-6.840500 0.456500
-6.809500 0.480700
-6.778400 0.505400
-6.747300 0.535700
-6.716300 0.579400
-6.685200 0.625600
-6.654100 0.673000
-6.623100 0.713600
-6.592000 0.746200
-6.560900 0.770500
-6.529900 0.783500
-6.498800 0.783500
-6.467700 0.769500
-6.436700 0.741600
-6.405600 0.745800
-6.374500 0.757200
-6.343500 0.768200
-6.312400 0.778900
-6.281300 0.789400
-6.250300 0.799500
-6.219200 0.809900
-6.188100 0.821400
-6.157100 0.833800
-6.126000 0.846700
-6.094900 0.860200
-6.063900 0.874200
-6.032800 0.888800
-6.001700 0.904000
-5.970700 0.919800
-5.939600 0.935800
-5.908500 0.952600
-5.877500 0.970700
-5.846400 0.990100
-5.815300 1.010800
-5.784300 1.033000
-5.753200 1.058900
-5.722200 1.089200
-5.691100 1.122100
-5.660000 1.155400
-5.629000 1.189300
-5.597900 1.223700
-5.566800 1.258500
-5.535800 1.297100
-5.504700 1.406500
-5.473600 1.584000
-5.442600 1.990200
-5.411500 2.423700
-5.380400 2.762000
-5.349400 3.030400
-5.318300 1.991900
-5.287200 1.411000
-5.256200 1.185700
-5.225100 1.053100
-5.194000 0.958500
-5.163000 0.849800
-5.131900 0.739700
-5.100800 0.628100
-5.069800 0.515100
-5.038700 0.400700
-5.007600 0.284800
-4.976600 0.167500
-4.945500 0.048700
-4.914400 0.000000
-4.883400 0.000000
-4.852300 0.000000
-4.821200 0.000000
-4.790200 0.000000
-4.759100 0.000000
-4.728000 0.000000
-4.697000 0.000000
-4.665900 0.000000
-4.634800 0.000000
-4.603800 0.000000
-4.572700 0.000000
-4.541700 0.000000
-4.510600 0.000000
-4.479500 0.000000
-4.448500 0.000000
-4.417400 0.000000
-4.386300 0.000000
-4.355300 0.000000
-4.324200 0.000000
-4.293100 0.000000
-4.262100 0.000000
-4.231000 0.000000
-4.199900 0.000000
-4.168900 0.000000
-4.137800 0.000000
-4.106700 0.000000
-4.075700 0.000000
-4.044600 0.000000
-4.013500 0.000000
-3.982500 0.000000
-3.951400 0.000000
-3.920300 0.000000
-3.889300 0.000000
-3.858200 0.000000
-3.827100 0.000000
-3.796100 0.000000
-3.765000 0.000000
-3.733900 0.000000
-3.702900 0.000000
-3.671800 0.000000
-3.640700 0.000000
-3.609700 0.000000
-3.578600 0.000000
-3.547500 0.000000
-3.516500 0.339600
-3.485400 1.409500
-3.454300 2.594800
-3.423300 3.198900
-3.392200 2.817300
-3.361200 2.651300
-3.330100 2.520000
-3.299000 2.881900
-3.268000 3.058600
-3.236900 3.009700
-3.205800 2.627500
-3.174800 2.196600
-3.143700 2.072100
-3.112600 1.941600
-3.081600 1.805300
-3.050500 1.663000
-3.019400 1.519000
-2.988400 1.376600
-2.957300 1.232900
-2.926200 1.128600
-2.895200 1.073400
-2.864100 1.020600
-2.833000 1.004500
-2.802000 0.991600
-2.770900 0.978000
-2.739800 0.963500
-2.708800 0.948300
-2.677700 0.938200
-2.646600 0.949300
-2.615600 0.960000
-2.584500 1.019300
-2.553400 1.115000
-2.522400 1.216600
-2.491300 1.323900
-2.460200 1.437100
-2.429200 1.556200
-2.398100 1.643800
-2.367000 1.555400
-2.336000 1.484900
-2.304900 1.429600
-2.273800 1.389000
-2.242800 1.362700
-2.211700 1.350200
-2.180700 1.342300
-2.149600 1.332800
-2.118500 1.321600
-2.087500 1.308800
-2.056400 1.294300
-2.025300 1.278100
-1.994300 1.260200
-1.963200 1.244600
-1.932100 1.230500
-1.901100 1.215300
-1.870000 1.279900
-1.838900 1.340300
-1.807900 1.347300
-1.776800 1.302800
-1.745700 1.242200
-1.714700 1.171500
-1.683600 1.090600
-1.652500 0.999600
-1.621500 0.914500
-1.590400 0.912500
-1.559300 0.898100
-1.528300 0.858500
-1.497200 0.793700
-1.466100 0.703900
-1.435100 0.641500
-1.404000 0.632200
-1.372900 0.622800
-1.341900 0.613400
-1.310800 0.604100
-1.279700 0.594700
-1.248700 0.585200
-1.217600 0.575800
-1.186500 0.566300
-1.155500 0.556900
-1.124400 0.547300
-1.093300 0.537700
-1.062300 0.529400
-1.031200 0.521200
-1.000200 0.513100
-0.969100 0.505200
-0.938000 0.497400
-0.907000 0.489700
-0.875900 0.482200
-0.844800 0.474900
-0.813800 0.467800
-0.782700 0.460900
-0.751600 0.454300
-0.720600 0.448100
-0.689500 2.370100
-0.658400 2.054000
-0.627400 2.156500
-0.596300 2.376900
-0.565200 2.629700
-0.534200 3.272700
-0.503100 2.440300
-0.472000 2.473200
-0.441000 2.503900
-0.409900 2.535900
-0.378800 2.550900
-0.347800 2.580800
-0.316700 2.633700
-0.285600 2.709400
-0.254600 2.704900
-0.223500 2.591000
-0.192400 2.720300
-0.161400 3.179800
-0.130300 3.936500
-0.099200 3.231500
-0.068200 2.248400
-0.037100 1.703000
-0.006000 1.837200
0.025000 1.968800
0.056100 2.097600
0.087200 2.200500
0.118200 2.177000
0.149300 2.011300
0.180300 2.025500
0.211400 2.043800
0.242500 2.066200
0.273500 2.092700
0.304600 2.123200
0.335700 2.159000
0.366700 2.213900
0.397800 2.266300
0.428900 2.320300
0.459900 2.374300
0.491000 2.413800
0.522100 2.445500
0.553100 2.496900
0.584200 2.547600
0.615300 2.591400
0.646300 2.616500
0.677400 2.609100
0.708500 2.582700
0.739500 2.537400
0.770600 2.493700
0.801700 2.441900
0.832700 2.385500
0.863800 2.324400
0.894900 2.266700
0.925900 2.254600
0.957000 2.230100
0.988100 2.177900
1.019100 2.125500
1.050200 2.072900
1.081300 2.027100
1.112300 1.992400
1.143400 1.966100
1.174500 1.944800
1.205500 1.921900
1.236600 1.893800
1.267700 1.864500
1.298700 1.833900
1.329800 1.803600
1.360800 1.774500
1.391900 1.745500
1.423000 1.716700
1.454000 1.688100
1.485100 1.659700
1.516200 1.634700
1.547200 1.627900
1.578300 1.705300
1.609400 1.723000
1.640400 1.675100
1.671500 1.615900
1.702600 1.534900
1.733600 1.456900
1.764700 1.382100
1.795800 1.310600
1.826800 1.242500
1.857900 1.177500
1.889000 1.115100
1.920000 1.055400
1.951100 1.012600
1.982200 0.989000
2.013200 0.990900
2.044300 1.123100
2.075400 1.355400
2.106400 1.663400
2.137500 1.964300
2.168600 2.258100
2.199600 2.382800
2.230700 2.473900
2.261800 2.556100
2.292800 2.655600
2.323900 2.775400
2.355000 2.734900
2.386000 2.823800
2.417100 2.903800
2.448200 2.995900
2.479200 3.099300
2.510300 3.226800
2.541300 3.508500
2.572400 3.287700
2.603500 3.291000
2.634500 3.127200
2.665600 2.953700
2.696700 2.825700
2.727700 2.746400
2.758800 2.716100
2.789900 2.609500
2.820900 2.353300
2.852000 2.055400
2.883100 1.775300
2.914100 1.517900
2.945200 1.283300
2.976300 1.071500
3.007300 0.929300
3.038400 0.988000
3.069500 1.039500
3.100500 1.058300
3.131600 1.064800
3.162700 1.043200
3.193700 0.970300
3.224800 0.865900
3.255900 0.808700
3.286900 0.742800
3.318000 0.668900
3.349100 0.590300
3.380100 0.509600
3.411200 0.430000
3.442300 0.351800
3.473300 0.274800
3.504400 0.211300
3.535500 0.158900
3.566500 0.114100
3.597600 0.076800
3.628700 0.046100
3.659700 0.021400
3.690800 0.002800
3.721800 0.000000
3.752900 0.000000
3.784000 0.000000
3.815000 0.000000
3.846100 0.000000
3.877200 0.000000
3.908200 0.000000
3.939300 0.000000
3.970400 0.000000
4.001400 0.000000
4.032500 0.000000
4.063600 0.000000
4.094600 0.000000
4.125700 0.000000
4.156800 0.000000
4.187800 0.000000
4.218900 0.000000
4.250000 0.000000
4.281000 0.000000
4.312100 0.000000
4.343200 0.000000
4.374200 0.000000
4.405300 0.000000
4.436400 0.000000
4.467400 0.000000
4.498500 0.000000
4.529600 0.000000
4.560600 0.000000
4.591700 0.000000
4.622800 0.000000
4.653800 0.009800
4.684900 0.033500
4.716000 0.061200
4.747000 0.093000
4.778100 0.128700
4.809200 0.168500
4.840200 0.217000
4.871300 0.274800
4.902300 0.336900
4.933400 0.403100
4.964500 0.473200
4.995500 0.551300
5.026600 0.785300
5.057700 0.951100
5.088700 0.839900
5.119800 0.795100
5.150900 1.036400
5.181900 1.113300
5.213000 1.198200
5.244100 1.290900
5.275100 1.388500
5.306200 1.484500
5.337300 1.592000
5.368300 1.694300
5.399400 1.791300
5.430500 1.882900
5.461500 1.969200
5.492600 2.050100
5.523700 2.126400
5.554700 2.202700
5.585800 2.270700
5.616900 2.336600
5.647900 2.420600
5.679000 2.511400
5.710100 2.600400
5.741100 2.687800
5.772200 2.794300
5.803300 2.894100
5.834300 3.257900
5.865400 3.829300
5.896500 3.311000
5.927500 2.673900
5.958600 2.432700
5.989600 2.257800
6.020700 2.209900
6.051800 2.175900
6.082800 2.262200
6.113900 2.492300
6.145000 2.821900
6.176000 2.797300
6.207100 2.751000
6.238200 2.742800
6.269200 2.737400
6.300300 2.730800
6.331400 2.736900
6.362400 2.743600
6.393500 2.734200
6.424600 2.708400
6.455600 2.667100
6.486700 2.604800
6.517800 2.540900
6.548800 2.474500
6.579900 2.412300
6.611000 2.357900
6.642000 2.365400
6.673100 2.451100
6.704200 2.538100
6.735200 2.623500
6.766300 2.707300
6.797400 2.795900
6.828400 2.261900
6.859500 1.938400
6.890600 1.776400
6.921600 2.048800
6.952700 1.356300
6.983800 1.466600
7.014800 1.582500
7.045900 1.707900
7.077000 1.844000
7.108000 1.990700
7.139100 2.147900
7.170100 2.275100
7.201200 2.391100
7.232300 2.478000
7.263300 2.502500
7.294400 2.451600
7.325500 2.322200
7.356500 2.176100
7.387600 2.008800
7.418700 1.927900
7.449700 1.863300
7.480800 1.820500
7.511900 1.790700
7.542900 1.762200
7.574000 1.752100
7.605100 1.733500
7.636100 1.687900
7.667200 1.628400
7.698300 1.580600
7.729300 2.499500
7.760400 2.692900
7.791500 3.074700
7.822500 3.443200
7.853600 3.733200
7.884700 3.921200
7.915700 4.110500
7.946800 4.548200
7.977900 4.737200
8.008900 4.075000
8.040000 4.074500
8.071100 3.592000
8.102100 3.100700
8.133200 2.889000
8.164300 2.922500
8.195300 2.995000
8.226400 3.046000
8.257500 3.076500
8.288500 3.086300
8.319600 3.088100
8.350600 3.097400
8.381700 3.110200
8.412800 3.105500
8.443800 3.095900
8.474900 3.116500
8.506000 3.176300
8.537000 3.239800
8.568100 2.812400
8.599200 2.688500
8.630200 2.659500
8.661300 2.674000
8.692400 2.729100
8.723400 2.924100
8.754500 3.105200
8.785600 3.227200
8.816600 3.284100
8.847700 3.592200
8.878800 3.534800
8.909800 3.402400
8.940900 3.150500
8.972000 2.734300
9.003000 2.515900
9.034100 2.343200
9.065200 2.207300
9.096200 2.108600
9.127300 2.030200
9.158400 1.968000
9.189400 1.922000
9.220500 1.892000
9.251600 1.881600
9.282600 1.884300
9.313700 1.882800
9.344800 1.877800
9.375800 1.853600
9.406900 1.813600
9.438000 1.758900
9.469000 1.720400
9.500100 1.707200
9.531100 1.679500
9.562200 1.651200
9.593300 1.662600
9.624300 1.861800
9.655400 1.871600
9.686500 1.661800
9.717500 1.423200
9.748600 1.426400
9.779700 1.441200
9.810700 1.467500
9.841800 1.505200
9.872900 1.554500
9.903900 1.583300
9.935000 1.658300
9.966100 1.932100
9.997100 2.031100
10.028200 1.955000
10.059300 1.914100
10.090300 1.891400
10.121400 1.896400
10.152500 1.929200
10.183500 1.978800
10.214600 2.019300
10.245700 2.049800
10.276700 2.070300
10.307800 2.081000
10.338900 2.081800
10.369900 2.322900
10.401000 2.371100
10.432100 2.334600
10.463100 2.258300
10.494200 2.177800
10.525300 2.105600
10.556300 2.035800
10.587400 1.958400
10.618500 1.979800
10.649500 2.030400
10.680600 2.074800
10.711600 2.114200
10.742700 2.170300
10.773800 2.258700
10.804800 2.365900
10.835900 2.486300
10.867000 2.617000
10.898000 2.767000
10.929100 2.932200
10.960200 3.104100
10.991200 3.141600
11.022300 3.252300
11.053400 3.051900
11.084400 2.987900
11.115500 2.909300
11.146600 2.815900
11.177600 2.712900
11.208700 2.604300
11.239800 2.522400
11.270800 2.444700
11.301900 2.363100
11.333000 2.302100
11.364000 2.254000
11.395100 2.210800
11.426200 2.150600
11.457200 2.339300
11.488300 2.300500
11.519400 2.021100
11.550400 1.949100
11.581500 1.911700
11.612600 1.892500
11.643600 1.888100
11.674700 2.077200
11.705800 2.110400
11.736800 1.988900
11.767900 2.029500
11.799000 2.097400
11.830000 2.167600
11.861100 2.242900
11.892100 2.307200
11.923200 2.358600
11.954300 2.395700
11.985300 2.421800
12.016400 2.448400
12.047500 2.474700
12.078500 2.530800
12.109600 2.591400
12.140700 2.380800
12.171700 2.402700
12.202800 2.432900
12.233900 2.471400
12.264900 2.967000
12.296000 2.814100
12.327100 2.394100
12.358100 2.403900
12.389200 2.355800
12.420300 2.207400
12.451300 2.055500
12.482400 1.927300
12.513500 1.822100
12.544500 1.811500
12.575600 1.826700
12.606700 1.853200
12.637700 1.888800
12.668800 1.930400
12.699900 1.976700
12.730900 2.025600
12.762000 2.064300
12.793100 2.090600
12.824100 2.116500
12.855200 2.143500
12.886300 2.168200
12.917300 2.188100
12.948400 2.185000
12.979500 2.146000
13.010500 2.153800
13.041600 2.184200
13.072600 2.228900
13.103700 2.277300
13.134800 2.326200
13.165800 2.377000
13.196900 2.433600
13.228000 2.517600
13.259000 2.587600
13.290100 2.658700
13.321200 2.721600
13.352200 2.772700
13.383300 2.811800
13.414400 2.842100
13.445400 2.861600
13.476500 2.871600
13.507600 2.871400
13.538600 2.858900
13.569700 2.833900
13.600800 2.796800
13.631800 2.981100
13.662900 2.960100
13.694000 2.706700
13.725000 2.548800
13.756100 2.488700
13.787200 2.512700
13.818200 2.619100
13.849300 2.645900
13.880400 2.637000
13.911400 2.645400
13.942500 2.666600
13.973600 2.690500
14.004600 2.712500
14.035700 2.733900
14.066800 2.752200
14.097800 2.764800
14.128900 2.758500
14.160000 2.717800
14.191000 2.672300
14.222100 2.630200
14.253100 2.589300
14.284200 2.550400
14.315300 2.513700
14.346300 2.479100
14.377400 2.446700
14.408500 2.420700
14.439500 2.430700
14.470600 2.433900
14.501700 2.393000
14.532700 2.318600
14.563800 2.239900
14.594900 2.210600
14.625900 2.172300
14.657000 2.157500
14.688100 2.164900
14.719100 2.197700
14.750200 2.260700
14.781300 2.351600
14.812300 2.472800
14.843400 2.655400
14.874500 2.943400
14.905500 3.780900
14.936600 3.839900
14.967700 3.876600
14.998700 3.894800
15.029800 3.427900
15.060900 3.435900
15.091900 3.366600
15.123000 3.325800
15.154100 3.212300
15.185100 3.042700
15.216200 2.820900
15.247300 2.600700
15.278300 2.525400
15.309400 2.515100
15.340500 2.569900
15.371500 2.836700
15.402600 3.094100
15.433600 3.416600
15.464700 3.715800
15.495800 3.737900
15.526800 3.028700
15.557900 2.735000
15.589000 2.602200
15.620000 2.511500
15.651100 2.419600
15.682200 2.497300
15.713200 2.486300
15.744300 2.650800
15.775400 2.483100
15.806400 2.393400
15.837500 2.380800
15.868600 2.443900
15.899600 2.504500
15.930700 2.416800
15.961800 2.283900
15.992800 2.444900
16.023900 2.435300
16.055000 2.423300
16.086000 2.412800
16.117100 2.411100
16.148200 2.409400
16.179200 2.407000
16.210300 2.420500
16.241400 2.428900
16.272400 2.428500
16.303500 2.429500
16.334600 2.434600
16.365600 2.446100
16.396700 2.850000
16.427800 3.122600
16.458800 3.217900
16.489900 3.136400
16.521000 3.217800
16.552000 3.228400
16.583100 3.181000
16.614100 3.110300
16.645200 3.098700
16.676300 3.023800
16.707300 2.895700
16.738400 2.725700
16.769500 2.662100
16.800500 2.734700
16.831600 2.791000
16.862700 2.797000
16.893700 2.757900
16.924800 2.725200
16.955900 2.864000
16.986900 2.968300
17.018000 3.114100
17.049100 3.212500
17.080100 3.219100
17.111200 3.128800
17.142300 3.019600
17.173300 2.928700
17.204400 2.858000
17.235500 2.806300
17.266500 2.763700
17.297600 2.922000
17.328700 3.092700
17.359700 3.197100
17.390800 3.255200
17.421900 3.274900
17.452900 3.261000
17.484000 3.291300
17.515100 3.340500
17.546100 3.356500
17.577200 3.339000
17.608300 3.299900
17.639300 3.242300
17.670400 3.248900
17.701500 3.274300
17.732500 3.086000
17.763600 2.968800
17.794600 2.879900
17.825700 2.814500
17.856800 2.756700
17.887800 2.705200
17.918900 2.659200
17.950000 2.613500
17.981000 2.576200
18.012100 2.417100
18.043200 2.395800
18.074200 2.387200
18.105300 2.393600
18.136400 2.413100
18.167400 2.431000
18.198500 2.607100
18.229600 2.920500
18.260600 3.040800
18.291700 3.111000
18.322800 3.131100
18.353800 3.101100
18.384900 3.025100
18.416000 2.874300
18.447000 2.632000
18.478100 2.353200
18.509200 2.186100
18.540200 2.094000
18.571300 2.058200
18.602400 2.046700
18.633400 2.060600
18.664500 2.126100
18.695600 2.375800
18.726600 2.748600
18.757700 3.232200
18.788800 3.572700
18.819800 3.612300
18.850900 3.448000
18.882000 3.296400
18.913000 3.158000
18.944100 3.033000
18.975100 2.921900
19.006200 2.831800
19.037300 2.758000
19.068300 2.697700
19.099400 2.659800
19.130500 2.613000
19.161500 2.563000
19.192600 2.520800
19.223700 2.479200
19.254700 2.447800
19.285800 2.395700
19.316900 2.322700
19.347900 2.232400
19.379000 2.135100
19.410100 2.033700
19.441100 1.942500
19.472200 1.910500
19.503300 1.897300
19.534300 1.906700
19.565400 1.939600
19.596500 2.446800
19.627500 2.512200
19.658600 2.612500
19.689700 2.728400
19.720700 2.885500
19.751800 3.010900
19.782900 3.648800
19.813900 3.567600
19.845000 3.331000
19.876100 3.433700
19.907100 3.505900
19.938200 3.547600
19.969300 3.563100
20.000300 3.558200
20.031400 3.542800
20.062400 3.632200
20.093500 3.665400
20.124600 3.521600
20.155600 3.346000
20.186700 3.303600
20.217800 3.525800
20.248800 3.915500
20.279900 3.095200
20.311000 2.894100
20.342000 2.647900
20.373100 2.393100
20.404200 2.019300
20.435200 1.822600
20.466300 1.902700
20.497400 1.961100
20.528400 2.023200
20.559500 2.093100
20.590600 2.200800
20.621600 2.440400
20.652700 2.769900
20.683800 3.056700
20.714800 3.265600
20.745900 3.409500
20.777000 3.457700
20.808000 3.420500
20.839100 3.302100
20.870200 3.143600
20.901200 3.043700
20.932300 3.073200
20.963400 2.517400
20.994400 2.478200
21.025500 2.476700
21.056600 2.495500
21.087600 2.543700
21.118700 2.621300
21.149800 2.733200
21.180800 2.894600
21.211900 3.083800
21.242900 3.277900
21.274000 3.467300
21.305100 3.619400
21.336100 3.722700
21.367200 3.815100
21.398300 4.011100
21.429300 4.073900
21.460400 3.983600
21.491500 3.875100
21.522500 3.809000
21.553600 3.748500
21.584700 3.648500
21.615700 3.613400
21.646800 3.574900
21.677900 3.567100
21.708900 3.560700
21.740000 3.542500
21.771100 3.520600
21.802100 3.426100
21.833200 3.286500
21.864300 3.233000
21.895300 3.225700
21.926400 3.261300
21.957500 3.331600
21.988500 3.464800
22.019600 3.655100
22.050700 3.845500
22.081700 4.073600
22.112800 5.177500
22.143900 4.428000
22.174900 4.421500
22.206000 4.237500
22.237100 4.099900
22.268100 3.966900
22.299200 3.816700
22.330300 3.589100
22.361300 2.730500
22.392400 2.602600
22.423400 2.341900
22.454500 1.993700
22.485600 2.074200
22.516600 2.179700
22.547700 2.310100
22.578800 2.484300
22.609800 3.100600
22.640900 4.587500
22.672000 3.234800
22.703000 3.218400
22.734100 3.219200
22.765200 3.236200
22.796200 3.269300
22.827300 3.368000
22.858400 3.537900
22.889400 3.579800
22.920500 3.595900
22.951600 3.527800
22.982600 3.370000
23.013700 3.170800
23.044800 3.018200
23.075800 2.902600
23.106900 2.744900
23.138000 2.719100
23.169000 2.198500
23.200100 2.142400
23.231200 2.132700
23.262200 2.167500
23.293300 2.237800
23.324400 2.307600
23.355400 2.372900
23.386500 2.433700
23.417600 2.490900
23.448600 2.666300
23.479700 3.081600
23.510800 3.311600
23.541800 3.408200
23.572900 3.438600
23.603900 3.356100
23.635000 3.203500
23.666100 3.060700
23.697100 2.914000
23.728200 2.848500
23.759300 2.795800
23.790300 2.787000
23.821400 2.868500
23.852500 3.041500
23.883500 2.859900
23.914600 2.757000
23.945700 2.612000
23.976700 2.480600
24.007800 2.428600
24.038900 2.413900
24.069900 2.398000
24.101000 2.379300
24.132100 2.357800
24.163100 2.373200
24.194200 2.404500
24.225300 2.447800
24.256300 2.522300
24.287400 2.615700
24.318500 2.671100
24.349500 2.731100
24.380600 2.815300
24.411700 2.926300
24.442700 3.049200
24.473800 3.195800
24.504900 3.330600
24.535900 3.394500
24.567000 3.438400
24.598100 3.347100
24.629100 3.066700
24.660200 3.104500
24.691300 3.168700
24.722300 3.254100
24.753400 3.346500
24.784400 3.406900
24.815500 3.945400
24.846600 3.675500
24.877600 3.672000
24.908700 3.680200
24.939800 3.970700
24.970800 4.057600
25.001900 4.090300
25.033000 4.041900
25.064000 3.919000
25.095100 3.753000
25.126200 4.631900
25.157200 3.094600
25.188300 3.270300
25.219400 3.284200
25.250400 3.255900
25.281500 3.203400
25.312600 3.124100
25.343600 3.123800
25.374700 3.305500
25.405800 3.282700
25.436800 3.299000
25.467900 3.248200
25.499000 3.116500
25.530000 2.943900
25.561100 2.776600
25.592200 2.550400
25.623200 2.375200
25.654300 2.284500
25.685400 2.254100
25.716400 2.283900
25.747500 2.372700
25.778600 2.528200
25.809600 2.729400
25.840700 2.960300
25.871800 3.238300
25.902800 4.437800
25.933900 4.952200
25.964900 5.184600
25.996000 5.134900
26.027100 4.829400
26.058100 3.828100
26.089200 3.132000
26.120300 2.781300
26.151300 2.630000
26.182400 3.144400
26.213500 2.958300
26.244500 3.029900
26.275600 3.078000
26.306700 3.082800
26.337700 3.063400
26.368800 3.056100
26.399900 3.060900
26.430900 3.075800
26.462000 3.098300
26.493100 3.125600
26.524100 3.122300
26.555200 3.082900
26.586300 3.469400
26.617300 3.955100
26.648400 2.982800
26.679500 2.792400
26.710500 2.668200
26.741600 2.610200
26.772700 2.618000
26.803700 2.667500
26.834800 2.724700
26.865900 2.818200
26.896900 2.961100
26.928000 3.521400
26.959100 3.936400
26.990100 4.363500
27.021200 4.773700
27.052300 4.926700
27.083300 4.806400
27.114400 5.330500
27.145400 2.556800
27.176500 2.420900
27.207600 2.368300
27.238600 2.413900
27.269700 2.491900
27.300800 2.615500
27.331800 2.720100
27.362900 2.871600
27.394000 3.001500
27.425000 3.220900
27.456100 4.059600
27.487200 4.591900
27.518200 4.991900
27.549300 5.241500
27.580400 5.335500
27.611400 6.867600
27.642500 4.051700
27.673600 3.270200
27.704600 2.829900
27.735700 2.456200
27.766800 2.327800
27.797800 2.599000
27.828900 5.029000
27.860000 4.561600
27.891000 4.196400
27.922100 3.894500
27.953200 3.676200
27.984200 3.629800
28.015300 3.670100
28.046400 3.710500
28.077400 3.750200
28.108500 4.101700
28.139600 4.461800
28.170600 4.988800
28.201700 4.823000
28.232800 3.652200
28.263800 3.576100
28.294900 3.494200
28.325900 3.412900
28.357000 3.337900
28.388100 3.270700
28.419100 3.208400
28.450200 3.129900
28.481300 3.026100
28.512300 2.897200
28.543400 2.786300
28.574500 2.777100
28.605500 2.773800
28.636600 2.869100
28.667700 2.965000
28.698700 3.180000
28.729800 3.386500
28.760900 3.371300
28.791900 3.410700
28.823000 3.441400
28.854100 3.495200
28.885100 3.548700
28.916200 3.591900
28.947300 3.622600
28.978300 3.751300
29.009400 3.351400
29.040500 3.063300
29.071500 2.925000
29.102600 2.759900
29.133700 2.568500
29.164700 2.390700
29.195800 2.282800
29.226900 2.244700
29.257900 2.286400
29.289000 2.399800
29.320100 2.434400
29.351100 2.467100
29.382200 2.533500
29.413300 2.645800
29.444300 2.796300
29.475400 2.991800
29.506400 3.157800
29.537500 2.987400
29.568600 2.926200
29.599600 2.907900
29.630700 2.885800
29.661800 2.849300
29.692800 2.834100
29.723900 2.891400
29.755000 2.997400
29.786000 3.062800
29.817100 3.107500
29.848200 3.182200
29.879200 3.263600
29.910300 3.350800
29.941400 3.442300
29.972400 3.513600
30.003500 3.620900
30.034600 3.704300
30.065600 3.712500
30.096700 3.639000
30.127800 3.506900
30.158800 3.419900
30.189900 3.388100
30.221000 3.349700
30.252000 3.304900
30.283100 3.256200
30.314200 3.184800
30.345200 3.077700
30.376300 3.014100
30.407400 2.991200
30.438400 2.973400
30.469500 2.942700
30.500600 2.908300
30.531600 2.885000
30.562700 2.864400
30.593800 2.846400
30.624800 2.859600
30.655900 2.878400
30.686900 2.887000
30.718000 3.020000
30.749100 3.089400
30.780100 3.149800
30.811200 3.201200
30.842300 3.243700
30.873300 3.279900
30.904400 3.373600
30.935500 3.545900
30.966500 3.672400
30.997600 3.667500
31.028700 3.610600
31.059700 3.618700
31.090800 3.576700
31.121900 3.518000
31.152900 3.430600
31.184000 3.327200
31.215100 3.579400
31.246100 3.554900
31.277200 3.504700
31.308300 3.507100
31.339300 3.521400
31.370400 3.556200
31.401500 3.604500
31.432500 3.645600
31.463600 3.605900
31.494700 3.479300
31.525700 3.834700
31.556800 3.965300
31.587900 4.042000
31.618900 4.044700
31.650000 3.934600
31.681100 3.787300
31.712100 3.616100
31.743200 3.483400
31.774300 3.399700
31.805300 3.385200
31.836400 3.545400
31.867400 3.682800
31.898500 3.758700
31.929600 3.840100
31.960600 3.973600
31.991700 4.148100
32.022800 4.343200
32.053800 4.496700
32.084900 4.619700
32.116000 4.651000
32.147000 4.014900
32.178100 3.797200
32.209200 3.705200
32.240200 3.609100
32.271300 3.549700
32.302400 4.004800
32.333400 3.930800
32.364500 4.150900
32.395600 4.429000
32.426600 4.618100
32.457700 4.642600
32.488800 4.441400
32.519800 4.316700
32.550900 4.322800
32.582000 4.327000
32.613000 4.333200
32.644100 4.342600
32.675200 4.339100
32.706200 4.339600
32.737300 4.549100
32.768400 4.737100
32.799400 4.832400
32.830500 4.828800
32.861600 4.747500
32.892600 4.697000
32.923700 4.805500
32.954800 4.889600
32.985800 4.949600
33.016900 4.990900
33.047900 4.633000
33.079000 3.966600
33.110100 3.684400
33.141100 3.687500
33.172200 3.729200
33.203300 3.781000
33.234300 3.827600
33.265400 3.867600
33.296500 3.877800
33.327500 3.716000
33.358600 3.647400
33.389700 3.673300
33.420700 3.708400
33.451800 3.742700
33.482900 3.787100
33.513900 3.842600
33.545000 3.892700
33.576100 3.934600
33.607100 3.946000
33.638200 3.925700
33.669300 3.897400
33.700300 3.882500
33.731400 3.860700
33.762500 3.835700
33.793500 3.812800
33.824600 3.817300
33.855700 3.990200
33.886700 4.284400
33.917800 4.360200
33.948900 4.285300
33.979900 4.186100
34.011000 4.090700
34.042100 3.985400
34.073100 3.876500
34.104200 3.759600
34.135300 3.683100
34.166300 3.675800
34.197400 3.723600
34.228400 4.013900
34.259500 4.388600
34.290600 4.666600
34.321600 4.543600
34.352700 4.390800
34.383800 4.244200
34.414800 4.092100
34.445900 3.948600
34.477000 3.856400
34.508000 3.782200
34.539100 3.712700
34.570200 3.651800
34.601200 3.600600
34.632300 3.572300
34.663400 3.578600
34.694400 3.601900
34.725500 3.651700
34.756600 3.702000
34.787600 4.495000
34.818700 4.421200
34.849800 3.892300
34.880800 3.389200
34.911900 3.219700
34.943000 3.151600
34.974000 3.160400
35.005100 3.161100
35.036200 3.054800
35.067200 2.864500
35.098300 2.697800
35.129400 2.655900
35.160400 2.654800
35.191500 2.664100
35.222600 2.680100
35.253600 2.697300
35.284700 2.713700
35.315700 2.729500
35.346800 2.743700
35.377900 2.740900
35.408900 2.741100
35.440000 2.729300
35.471100 2.721300
35.502100 2.717300
35.533200 2.730400
35.564300 2.899000
35.595300 2.980000
35.626400 3.127600
35.657500 3.377100
35.688500 3.510300
35.719600 3.111200
35.750700 3.121500
35.781700 3.185300
35.812800 3.274700
35.843900 3.337600
35.874900 3.410200
35.906000 3.494300
35.937100 3.580800
35.968100 3.665700
35.999200 3.750700
36.030300 3.838600
36.061300 3.740300
36.092400 3.638900
36.123500 3.533800
36.154500 3.448500
36.185600 3.354200
36.216700 3.275300
36.247700 3.222200
36.278800 3.141400
36.309900 3.093500
36.340900 3.057300
36.372000 3.039100
36.403100 3.070000
36.434100 3.266100
36.465200 3.407600
36.496200 3.567300
36.527300 3.617700
36.558400 3.800500
36.589400 4.034300
36.620500 4.093700
36.651600 4.238100
36.682600 4.312900
36.713700 4.185800
36.744800 3.871400
36.775800 3.730900
36.806900 3.629700
36.838000 3.592000
36.869000 3.602800
36.900100 3.970200
36.931200 4.604200
36.962200 5.484800
36.993300 5.196000
37.024400 4.991800
37.055400 4.740100
37.086500 4.457400
37.117600 4.164100
37.148600 3.869400
37.179700 3.846900
37.210800 3.804200
37.241800 3.725600
37.272900 3.875300
37.304000 3.965500
37.335000 3.928800
37.366100 3.838200
37.397200 3.704300
37.428200 3.503800
37.459300 3.444600
37.490400 3.408000
37.521400 3.369300
37.552500 3.328700
37.583600 3.297500
37.614600 3.277900
37.645700 3.479600
37.676700 3.237200
37.707800 3.235100
37.738900 3.239000
37.769900 3.249400
37.801000 3.269500
37.832100 3.296000
37.863100 3.326800
37.894200 3.357600
37.925300 3.380900
37.956300 3.378400
37.987400 3.420700
38.018500 3.467600
38.049500 3.471500
38.080600 3.461100
38.111700 3.558400
38.142700 3.632500
38.173800 3.695800
38.204900 3.774300
38.235900 3.977600
38.267000 4.046400
38.298100 4.161300
38.329100 4.288800
38.360200 4.279100
38.391300 4.223100
38.422300 4.210100
38.453400 4.222100
38.484500 4.266500
38.515500 4.316300
38.546600 4.375800
38.577700 4.440300
38.608700 4.819500
38.639800 4.420100
38.670900 4.004300
38.701900 3.872800
38.733000 3.857200
38.764100 3.839700
38.795100 3.815900
38.826200 4.548300
38.857200 4.287100
38.888300 4.095600
38.919400 3.972700
38.950400 3.833100
38.981500 3.636900
39.012600 3.421800
39.043600 3.311000
39.074700 3.209300
39.105800 3.120000
39.136800 3.038400
39.167900 2.992400
39.199000 2.944100
39.230000 3.290200
39.261100 3.389900
39.292200 3.013200
39.323200 3.218400
39.354300 3.564000
39.385400 3.975800
39.416400 4.348100
39.447500 4.681900
39.478600 5.123900
39.509600 4.868100
39.540700 4.878700
39.571800 4.818200
39.602800 4.663600
39.633900 4.482100
39.665000 4.955000
39.696000 4.297900
39.727100 3.888700
39.758200 3.967100
39.789200 4.052000
39.820300 4.160200
39.851400 4.662800
39.882400 4.778100
39.913500 4.790300
39.944600 5.527200
39.975600 6.088800
40.006700 4.984400
40.037700 4.936000
40.068800 4.754100
40.099900 4.429500
40.130900 4.139200
40.162000 3.898100
40.193100 3.702800
40.224100 3.439900
40.255200 3.264900
40.286300 3.159300
40.317300 3.214200
40.348400 3.341900
40.379500 3.481500
40.410500 3.644100
40.441600 3.805400
40.472700 3.933400
40.503700 4.028400
40.534800 4.105800
40.565900 4.202000
40.596900 4.313100
40.628000 4.410000
40.659100 5.371300
40.690100 5.019700
40.721200 4.936400
40.752300 4.662700
40.783300 4.413100
40.814400 4.156200
40.845500 3.842500
40.876500 3.657400
40.907600 3.522700
40.938700 4.109800
40.969700 3.480500
41.000800 3.261500
41.031900 3.264700
41.062900 3.282600
41.094000 3.301200
41.125100 3.318600
41.156100 3.328900
41.187200 3.331400
41.218200 3.543400
41.249300 3.735700
41.280400 3.599900
41.311400 3.404400
41.342500 3.092400
41.373600 2.889100
41.404600 2.978200
41.435700 3.084800
41.466800 3.547900
41.497800 4.224800
41.528900 4.850900
41.560000 4.790800
41.591000 4.670400
41.622100 4.469800
41.653200 4.377300
41.684200 4.588700
41.715300 4.542500
41.746400 4.411200
41.777400 4.158100
41.808500 4.089200
41.839600 4.040800
41.870600 3.993100
41.901700 3.915000
41.932800 3.911200
41.963800 5.374900
41.994900 5.414100
42.026000 4.704700
42.057000 4.283900
42.088100 3.854000
42.119200 3.545800
42.150200 3.136200
42.181300 3.275200
42.212400 3.444900
42.243400 3.125900
42.274500 3.056800
42.305600 3.014900
42.336600 3.000100
42.367700 3.014000
42.398700 3.094800
42.429800 3.243600
42.460900 3.493400
42.491900 3.868900
42.523000 4.206200
42.554100 4.253300
42.585100 4.398100
42.616200 5.419300
42.647300 5.439100
42.678300 5.238500
42.709400 5.394500
42.740500 5.091700
42.771500 4.603900
42.802600 4.012700
42.833700 3.731700
42.864700 3.569600
42.895800 3.401900
42.926900 3.252300
42.957900 3.121000
42.989000 3.011100
43.020100 3.267000
43.051100 3.131700
43.082200 3.176700
43.113300 3.255800
43.144300 3.371900
43.175400 3.922600
43.206500 4.526900
43.237500 4.421100
43.268600 4.281600
43.299700 4.213100
43.330700 4.256500
43.361800 3.911100
43.392900 3.654800
43.423900 3.672500
43.455000 3.709500
43.486100 3.758500
43.517100 3.829600
43.548200 3.914500
43.579200 4.004700
43.610300 4.075400
43.641400 4.405400
43.672400 4.447700
43.703500 4.373400
43.734600 4.227200
43.765600 4.146600
43.796700 4.071900
43.827800 3.965000
43.858800 3.786700
43.889900 3.588500
43.921000 3.663000
43.952000 3.388100
43.983100 3.037300
44.014200 2.552700
44.045200 2.169700
44.076300 1.845500
44.107400 1.539900
44.138400 1.372700
44.169500 1.222200
44.200600 1.086200
44.231600 0.964800
44.262700 0.857900
44.293800 0.762400
44.324800 0.673800
44.355900 0.592100
44.387000 0.518300
44.418000 0.452200
44.449100 0.394700
44.480200 0.299900
44.511200 0.172900
44.542300 0.110200
44.573400 0.097100
44.604400 0.092500
44.635500 0.088000
44.666600 0.083500
44.697600 0.079100
44.728700 0.074800
44.759700 0.070500
44.790800 0.066200
44.821900 0.062100
44.852900 0.058000
44.884000 0.053900
44.915100 0.049900
44.946100 0.046000
44.977200 0.042100
45.008300 0.038300
45.039300 0.034500
45.070400 0.030800
45.101500 0.027100
45.132500 0.023600
45.163600 0.020100
45.194700 0.016900
45.225700 0.013900
45.256800 0.011100
45.287900 0.008500
45.318900 0.006100
45.350000 0.003900
45.381100 0.001900
45.412100 0.000200
45.443200 0.000000
45.474300 0.000000
45.505300 0.000000
45.536400 0.000000
45.567500 0.000000
45.598500 0.000000
45.629600 0.000000
45.660700 0.000000
45.691700 0.000000
45.722800 0.000000
45.753900 0.000000
45.784900 0.000000
45.816000 0.000000
45.847100 0.000000
45.878100 0.000000
45.909200 0.000000
45.940200 0.000000
45.971300 0.000000
46.002400 0.000000
46.033400 0.000000
46.064500 0.000000
46.095600 0.000000
46.126600 0.000000
46.157700 0.000000
46.188800 0.000000
46.219800 0.000000
46.250900 0.000000
46.282000 0.000000
46.313000 0.000000
46.344100 0.000000
46.375200 0.000000
46.406200 0.000000
46.437300 0.000000
46.468400 0.000000
46.499400 0.000000
46.530500 0.000000
46.561600 0.000000
46.592600 0.000000
46.623700 0.000000
46.654800 0.000000
46.685800 0.000000
46.716900 0.000000
46.748000 0.000000
46.779000 0.000000
46.810100 0.000000
46.841200 0.000000
46.872200 0.000000
46.903300 0.000000
46.934400 0.000000
46.965400 0.000000
46.996500 0.000000
47.027600 0.000000
47.058600 0.000000
47.089700 0.000000
47.120700 0.000000
47.151800 0.000000
47.182900 0.000000
47.213900 0.000000
47.245000 0.000000
47.276100 0.000000
47.307100 0.000000
47.338200 0.000000
47.369300 0.000000
47.400300 0.000000
47.431400 0.000000
47.462500 0.000000
47.493500 0.000000
47.524600 0.000000
47.555700 0.000000
47.586700 0.000000
47.617800 0.000000
47.648900 0.000000
47.679900 0.000000
47.711000 0.000000
47.742100 0.000000
47.773100 0.000000
47.804200 0.000000
47.835300 0.000000
47.866300 0.000000
47.897400 0.000000
47.928500 0.000000
47.959500 0.000000
47.990600 0.000000
48.021700 0.000000
48.052700 0.000000
48.083800 0.000000
48.114900 0.000000
48.145900 0.000000
48.177000 0.000000
48.208100 0.000000
48.239100 0.000000
e
