set title 'mp-124 - Density of States'
set xlabel 'Energy (eV)'
set ylabel 'DOS (states/eV)'
set grid
set xrange [-10:10]
set yrange [0:7.434]
set xzeroaxis lt -1
set terminal png size 800,600
set output 'mp-124_dos_gnuplot.png'
plot '-' using 1:2 with lines title 'DOS'
-6.660800 0.000000
-6.635100 0.000000
-6.609500 0.000000
-6.583800 0.000000
-6.558200 0.000000
-6.532500 0.000000
-6.506900 0.000000
-6.481200 0.000000
-6.455600 0.000000
-6.429900 0.000000
-6.404200 0.000000
-6.378600 0.000000
-6.352900 0.000000
-6.327300 0.000000
-6.301600 0.000000
-6.276000 0.000000
-6.250300 0.000000
-6.224600 0.000000
-6.199000 0.000000
-6.173300 0.000000
-6.147700 0.000000
-6.122000 0.000000
-6.096400 0.000000
-6.070700 0.000000
-6.045100 0.000000
-6.019400 0.000000
-5.993700 0.000000
-5.968100 0.000000
-5.942400 0.000000
-5.916800 0.000000
-5.891100 0.000000
-5.865500 0.000000
-5.839800 0.000000
-5.814100 0.000000
-5.788500 0.000000
-5.762800 0.000000
-5.737200 0.000000
-5.711500 0.000000
-5.685900 0.000000
-5.660200 0.000000
-5.634600 0.000000
-5.608900 0.000000
-5.583200 0.000000
-5.557600 0.000000
-5.531900 0.000000
-5.506300 0.000000
-5.480600 0.000000
-5.455000 0.000000
-5.429300 0.000000
-5.403600 0.000000
-5.378000 0.000000
-5.352300 0.000000
-5.326700 0.000000
-5.301000 0.000000
-5.275400 0.000000
-5.249700 0.000000
-5.224100 0.000000
-5.198400 0.000000
-5.172700 0.000000
-5.147100 0.000000
-5.121400 0.000000
-5.095800 0.000000
-5.070100 0.000000
-5.044500 0.000000
-5.018800 0.000000
-4.993100 0.000000
-4.967500 0.000000
-4.941800 0.000000
-4.916200 0.000000
-4.890500 0.000000
-4.864900 0.000000
-4.839200 0.000000
-4.813600 0.000000
-4.787900 0.000000
-4.762200 0.000000
-4.736600 0.000000
-4.710900 0.000000
-4.685300 0.000000
-4.659600 0.000000
-4.634000 0.000000
-4.608300 0.000000
-4.582600 0.000000
-4.557000 0.000000
-4.531300 0.000000
-4.505700 0.000000
-4.480000 0.000000
-4.454400 0.000000
-4.428700 0.000000
-4.403100 0.000000
-4.377400 0.000000
-4.351700 0.000000
-4.326100 0.000000
-4.300400 0.006300
-4.274800 0.023100
-4.249100 0.023300
-4.223500 0.028100
-4.197800 0.033300
-4.172100 0.038800
-4.146500 0.042700
-4.120800 0.044200
-4.095200 0.046900
-4.069500 0.050100
-4.043900 0.053500
-4.018200 0.056900
-3.992600 0.060500
-3.966900 0.063000
-3.941200 0.065300
-3.915600 0.067800
-3.889900 0.070200
-3.864300 0.072700
-3.838600 0.075400
-3.813000 0.078300
-3.787300 0.081300
-3.761700 0.084400
-3.736000 0.087400
-3.710300 0.089900
-3.684700 0.092200
-3.659000 0.094900
-3.633400 0.097700
-3.607700 0.100700
-3.582100 0.103600
-3.556400 0.106700
-3.530700 0.110000
-3.505100 0.113400
-3.479400 0.116900
-3.453800 0.120400
-3.428100 0.123900
-3.402500 0.127600
-3.376800 0.131400
-3.351200 0.135500
-3.325500 0.140000
-3.299800 0.144800
-3.274200 0.149800
-3.248500 0.155000
-3.222900 0.160600
-3.197200 0.166600
-3.171600 0.173000
-3.145900 0.179700
-3.120200 0.186800
-3.094600 0.195100
-3.068900 0.240300
-3.043300 0.377400
-3.017600 0.594600
-2.992000 0.816200
-2.966300 1.015600
-2.940700 1.285500
-2.915000 1.621700
-2.889300 1.911200
-2.863700 1.999500
-2.838000 2.132500
-2.812400 2.251500
-2.786700 2.374000
-2.761100 2.529100
-2.735400 2.668400
-2.709700 2.829200
-2.684100 3.001400
-2.658400 3.218600
-2.632800 3.550900
-2.607100 4.051700
-2.581500 4.720300
-2.555800 4.447300
-2.530200 4.257900
-2.504500 3.807900
-2.478800 3.541100
-2.453200 3.413700
-2.427500 3.323000
-2.401900 3.259600
-2.376200 3.266700
-2.350600 3.151500
-2.324900 2.994300
-2.299200 2.821800
-2.273600 2.704000
-2.247900 2.621900
-2.222300 2.414300
-2.196600 2.185300
-2.171000 2.058500
-2.145300 2.018200
-2.119700 2.000600
-2.094000 2.290500
-2.068300 2.561900
-2.042700 2.458400
-2.017000 2.612500
-1.991400 2.750300
-1.965700 3.015400
-1.940100 3.032800
-1.914400 3.028300
-1.888700 3.028200
-1.863100 3.060200
-1.837400 3.005300
-1.811800 2.695600
-1.786100 2.524200
-1.760500 2.456400
-1.734800 3.195100
-1.709200 2.894000
-1.683500 2.885800
-1.657800 2.814800
-1.632200 2.768000
-1.606500 2.614900
-1.580900 2.775900
-1.555200 3.057300
-1.529600 3.333300
-1.503900 3.521100
-1.478200 3.663600
-1.452600 4.035000
-1.426900 4.326700
-1.401300 5.138100
-1.375600 6.013600
-1.350000 6.757900
-1.324300 4.609400
-1.298700 4.002100
-1.273000 3.751800
-1.247300 3.518900
-1.221700 3.412400
-1.196000 3.234000
-1.170400 2.822800
-1.144700 2.394500
-1.119100 2.031500
-1.093400 2.024500
-1.067700 2.312400
-1.042100 2.844600
-1.016400 3.748600
-0.990800 3.629900
-0.965100 3.030100
-0.939500 2.957100
-0.913800 2.925900
-0.888200 3.007800
-0.862500 3.228000
-0.836800 3.455200
-0.811200 3.610900
-0.785500 3.601100
-0.759900 3.585100
-0.734200 3.396800
-0.708600 3.444100
-0.682900 3.308900
-0.657200 3.733600
-0.631600 4.175200
-0.605900 3.617100
-0.580300 3.377700
-0.554600 3.234100
-0.529000 3.143800
-0.503300 3.022500
-0.477700 2.958600
-0.452000 2.944100
-0.426300 2.897000
-0.400700 2.884500
-0.375000 2.862500
-0.349400 2.746200
-0.323700 2.741900
-0.298100 2.777900
-0.272400 2.874300
-0.246800 2.930800
-0.221100 3.014900
-0.195400 3.001000
-0.169800 3.072200
-0.144100 3.149500
-0.118500 3.303800
-0.092800 3.341900
-0.067200 3.569500
-0.041500 3.955800
-0.015800 4.435300
0.009800 5.590900
0.035500 5.390000
0.061100 6.194500
0.086800 4.019100
0.112400 3.370600
0.138100 2.684600
0.163700 2.271800
0.189400 2.014300
0.215100 1.918000
0.240700 1.463200
0.266400 0.233700
0.292000 0.222100
0.317700 0.220000
0.343300 0.219000
0.369000 0.219000
0.394700 0.219400
0.420300 0.220000
0.446000 0.220900
0.471600 0.221800
0.497300 0.222800
0.522900 0.223800
0.548600 0.224800
0.574200 0.225900
0.599900 0.227000
0.625600 0.228100
0.651200 0.229200
0.676900 0.230300
0.702500 0.229800
0.728200 0.228000
0.753800 0.224300
0.779500 0.220000
0.805200 0.218300
0.830800 0.217500
0.856500 0.217100
0.882100 0.217100
0.907800 0.217300
0.933400 0.217600
0.959100 0.218100
0.984700 0.218700
1.010400 0.219400
1.036100 0.220000
1.061700 0.220800
1.087400 0.221500
1.113000 0.222300
1.138700 0.223100
1.164300 0.224000
1.190000 0.224800
1.215700 0.225700
1.241300 0.226600
1.267000 0.227500
1.292600 0.228400
1.318300 0.229300
1.343900 0.230300
1.369600 0.227500
1.395200 0.226000
1.420900 0.225400
1.446600 0.225100
1.472200 0.225100
1.497900 0.225300
1.523500 0.225600
1.549200 0.226000
1.574800 0.226400
1.600500 0.227000
1.626200 0.227600
1.651800 0.228200
1.677500 0.228900
1.703100 0.229700
1.728800 0.230400
1.754400 0.231200
1.780100 0.232000
1.805700 0.232900
1.831400 0.233800
1.857100 0.234600
1.882700 0.235500
1.908400 0.236400
1.934000 0.237400
1.959700 0.238300
1.985300 0.239200
2.011000 0.240200
2.036700 0.241200
2.062300 0.242200
2.088000 0.241900
2.113600 0.241700
2.139300 0.241700
2.164900 0.241900
2.190600 0.242200
2.216200 0.242700
2.241900 0.243300
2.267600 0.243900
2.293200 0.244700
2.318900 0.245500
2.344500 0.246400
2.370200 0.247300
2.395800 0.248300
2.421500 0.249400
2.447200 0.250600
2.472800 0.251800
2.498500 0.253200
2.524100 0.254600
2.549800 0.256000
2.575400 0.257600
2.601100 0.259200
2.626700 0.260800
2.652400 0.262600
2.678100 0.264900
2.703700 0.268900
2.729400 0.272300
2.755000 0.275000
2.780700 0.277100
2.806300 0.278600
2.832000 0.279500
2.857700 0.279700
2.883300 0.279100
2.909000 0.277400
2.934600 0.276100
2.960300 0.277400
2.985900 0.278600
3.011600 0.279700
3.037200 0.280800
3.062900 0.281500
3.088600 0.281400
3.114200 0.280400
3.139900 0.279300
3.165500 0.278500
3.191200 0.277800
3.216800 0.277300
3.242500 0.277000
3.268100 0.276800
3.293800 0.276800
3.319500 0.277000
3.345100 0.277100
3.370800 0.277000
3.396400 0.276800
3.422100 0.276700
3.447700 0.276500
3.473400 0.276400
3.499100 0.276200
3.524700 0.276100
3.550400 0.276000
3.576000 0.275800
3.601700 0.275600
3.627300 0.275500
3.653000 0.275300
3.678600 0.275200
3.704300 0.275200
3.730000 0.274800
3.755600 0.274000
3.781300 0.273900
3.806900 0.273900
3.832600 0.273900
3.858200 0.273900
3.883900 0.273700
3.909600 0.273500
3.935200 0.273200
3.960900 0.272900
3.986500 0.272500
4.012200 0.272100
4.037800 0.271600
4.063500 0.270900
4.089100 0.270200
4.114800 0.269500
4.140500 0.269000
4.166100 0.268500
4.191800 0.268200
4.217400 0.267900
4.243100 0.267700
4.268700 0.267500
4.294400 0.267500
4.320100 0.267400
4.345700 0.267400
4.371400 0.267400
4.397000 0.267500
4.422700 0.267700
4.448300 0.267900
4.474000 0.268100
4.499600 0.268500
4.525300 0.268800
4.551000 0.269300
4.576600 0.269900
4.602300 0.271100
4.627900 0.272100
4.653600 0.272900
4.679200 0.273600
4.704900 0.274200
4.730600 0.274400
4.756200 0.274400
4.781900 0.284200
4.807500 0.274700
4.833200 0.269200
4.858800 0.269500
4.884500 0.269700
4.910100 0.269700
4.935800 0.269500
4.961500 0.267600
4.987100 0.265000
5.012800 0.262600
5.038400 0.260400
5.064100 0.258300
5.089700 0.256500
5.115400 0.254800
5.141100 0.253300
5.166700 0.252000
5.192400 0.252000
5.218000 0.252400
5.243700 0.251000
5.269300 0.248000
5.295000 0.246700
5.320600 0.246300
5.346300 0.245700
5.372000 0.245000
5.397600 0.244200
5.423300 0.243200
5.448900 0.240700
5.474600 0.237100
5.500200 0.234400
5.525900 0.232700
5.551600 0.231500
5.577200 0.230300
5.602900 0.229200
5.628500 0.228200
5.654200 0.227200
5.679800 0.226300
5.705500 0.225000
5.731100 0.222600
5.756800 0.221200
5.782500 0.220100
5.808100 0.218600
5.833800 0.217300
5.859400 0.216100
5.885100 0.214500
5.910700 0.212000
5.936400 0.209100
5.962100 0.205900
5.987700 0.203200
6.013400 0.201300
6.039000 0.200000
6.064700 0.198800
6.090300 0.197800
6.116000 0.197000
6.141600 0.192300
6.167300 0.191000
6.193000 0.189600
6.218600 0.188200
6.244300 0.186700
6.269900 0.185100
6.295600 0.183500
6.321200 0.181800
6.346900 0.179900
6.372600 0.178000
6.398200 0.178100
6.423900 0.199900
6.449500 0.225700
6.475200 0.257900
6.500800 0.299400
6.526500 0.307700
6.552100 0.286100
6.577800 0.303100
6.603500 0.329000
6.629100 0.358400
6.654800 0.327000
6.680400 0.355700
6.706100 0.333500
6.731700 0.323400
6.757400 0.327200
6.783000 0.335300
6.808700 0.344500
6.834400 0.353200
6.860000 0.364500
6.885700 0.389800
6.911300 0.386700
6.937000 0.349500
6.962600 0.348300
6.988300 0.347100
7.014000 0.347200
7.039600 0.347700
7.065300 0.348500
7.090900 0.336500
7.116600 0.334600
7.142200 0.332900
7.167900 0.330500
7.193500 0.329100
7.219200 0.329100
7.244900 0.331100
7.270500 0.335000
7.296200 0.336400
7.321800 0.332400
7.347500 0.319200
7.373100 0.313400
7.398800 0.312500
7.424500 0.331400
7.450100 0.321400
7.475800 0.296700
7.501400 0.297100
7.527100 0.297400
7.552700 0.297600
7.578400 0.297600
7.604000 0.298200
7.629700 0.298300
7.655400 0.297900
7.681000 0.297500
7.706700 0.297500
7.732300 0.297600
7.758000 0.298100
7.783600 0.304800
7.809300 0.307300
7.835000 0.303200
7.860600 0.295100
7.886300 0.291700
7.911900 0.360600
7.937600 0.350400
7.963200 0.339800
7.988900 0.328500
8.014500 0.316800
8.040200 0.308300
8.065900 0.304700
8.091500 0.303600
8.117200 0.304400
8.142800 0.306800
8.168500 0.310200
8.194100 0.314500
8.219800 0.336000
8.245500 0.320000
8.271100 0.306900
8.296800 0.300100
8.322400 0.298000
8.348100 0.296100
8.373700 0.294400
8.399400 0.293100
8.425000 0.292100
8.450700 0.291300
8.476400 0.290900
8.502000 0.290900
8.527700 0.291700
8.553300 0.292600
8.579000 0.293800
8.604600 0.292700
8.630300 0.294300
8.656000 0.296100
8.681600 0.298100
8.707300 0.308500
8.732900 0.312400
8.758600 0.310500
8.784200 0.303000
8.809900 0.282900
8.835500 0.279400
8.861200 0.278500
8.886900 0.277700
8.912500 0.277000
8.938200 0.276600
8.963800 0.277000
8.989500 0.278400
9.015100 0.280600
9.040800 0.282700
9.066500 0.284000
9.092100 0.284900
9.117800 0.285200
9.143400 0.284600
9.169100 0.284400
9.194700 0.284500
9.220400 0.285000
9.246000 0.285700
9.271700 0.286500
9.297400 0.287200
9.323000 0.288100
9.348700 0.289600
9.374300 0.290200
9.400000 0.293500
9.425600 0.310400
9.451300 0.342500
9.477000 0.388100
9.502600 0.429300
9.528300 0.452300
9.553900 0.457700
9.579600 0.447400
9.605200 0.427600
9.630900 0.402200
9.656500 0.391000
9.682200 0.383400
9.707900 0.368500
9.733500 0.353400
9.759200 0.341500
9.784800 0.331000
9.810500 0.322100
9.836100 0.315700
9.861800 0.313800
9.887500 0.317600
9.913100 0.329400
9.938800 0.340800
9.964400 0.422500
9.990100 0.385200
10.015700 0.399900
10.041400 0.409000
10.067000 0.419900
10.092700 0.429900
10.118400 0.435600
10.144000 0.435500
10.169700 0.434200
10.195300 0.430800
10.221000 0.430500
10.246600 0.435100
10.272300 0.438100
10.297900 0.438200
10.323600 0.435600
10.349300 0.440200
10.374900 0.445900
10.400600 0.443300
10.426200 0.438900
10.451900 0.442200
10.477500 0.445900
10.503200 0.443500
10.528900 0.434900
10.554500 0.434700
10.580200 0.434900
10.605800 0.425600
10.631500 0.426100
10.657100 0.428100
10.682800 0.436400
10.708400 0.437700
10.734100 0.439900
10.759800 0.436100
10.785400 0.437900
10.811100 0.428400
10.836700 0.428700
10.862400 0.429200
10.888000 0.477500
10.913700 0.423300
10.939400 0.423500
10.965000 0.421600
10.990700 0.414200
11.016300 0.413900
11.042000 0.414000
11.067600 0.414500
11.093300 0.414600
11.118900 0.414400
11.144600 0.434400
11.170300 0.465500
11.195900 0.429700
11.221600 0.423500
11.247200 0.424000
11.272900 0.425400
11.298500 0.427100
11.324200 0.429200
11.349900 0.430100
11.375500 0.426300
11.401200 0.430400
11.426800 0.432600
11.452500 0.434300
11.478100 0.437200
11.503800 0.442300
11.529400 0.445400
11.555100 0.442600
11.580800 0.437900
11.606400 0.437800
11.632100 0.443100
11.657700 0.446700
11.683400 0.448600
11.709000 0.448500
11.734700 0.460200
11.760400 0.460800
11.786000 0.458100
11.811700 0.457800
11.837300 0.457800
11.863000 0.450500
11.888600 0.450200
11.914300 0.450300
11.939900 0.450900
11.965600 0.455200
11.991300 0.458300
12.016900 0.461500
12.042600 0.463700
12.068200 0.459900
12.093900 0.462500
12.119500 0.464800
12.145200 0.466700
12.170900 0.468200
12.196500 0.468600
12.222200 0.467700
12.247800 0.468300
12.273500 0.470600
12.299100 0.473700
12.324800 0.471900
12.350400 0.466300
12.376100 0.465800
12.401800 0.462100
12.427400 0.462700
12.453100 0.463800
12.478700 0.459200
12.504400 0.461600
12.530000 0.466500
12.555700 0.470900
12.581400 0.474800
12.607000 0.476900
12.632700 0.482400
12.658300 0.479900
12.684000 0.479800
12.709600 0.480400
12.735300 0.481600
12.760900 0.484800
12.786600 0.486500
12.812300 0.488300
12.837900 0.490200
12.863600 0.491500
12.889200 0.491900
12.914900 0.492000
12.940500 0.494000
12.966200 0.499800
12.991900 0.501100
13.017500 0.499900
13.043200 0.496800
13.068800 0.496300
13.094500 0.496400
13.120100 0.496800
13.145800 0.497700
13.171400 0.499000
13.197100 0.500600
13.222800 0.502700
13.248400 0.504500
13.274100 0.508800
13.299700 0.518200
13.325400 0.522700
13.351000 0.523000
13.376700 0.528500
13.402300 0.537600
13.428000 0.538400
13.453700 0.540500
13.479300 0.543100
13.505000 0.545700
13.530600 0.550800
13.556300 0.556100
13.581900 0.562400
13.607600 0.569200
13.633300 0.565000
13.658900 0.579100
13.684600 0.563500
13.710200 0.565600
13.735900 0.568600
13.761500 0.572500
13.787200 0.572200
13.812800 0.568000
13.838500 0.561200
13.864200 0.556800
13.889800 0.554800
13.915500 0.555000
13.941100 0.555600
13.966800 0.556700
13.992400 0.557000
14.018100 0.554900
14.043800 0.553500
14.069400 0.552600
14.095100 0.552600
14.120700 0.551700
14.146400 0.550600
14.172000 0.551000
14.197700 0.550000
14.223300 0.548400
14.249000 0.547500
14.274700 0.546100
14.300300 0.545200
14.326000 0.544600
14.351600 0.543500
14.377300 0.540000
14.402900 0.538800
14.428600 0.538600
14.454300 0.538400
14.479900 0.537600
14.505600 0.536400
14.531200 0.536200
14.556900 0.540600
14.582500 0.538100
14.608200 0.535700
14.633800 0.533600
14.659500 0.532100
14.685200 0.530400
14.710800 0.529100
14.736500 0.528200
14.762100 0.527600
14.787800 0.529400
14.813400 0.529500
14.839100 0.528800
14.864800 0.528200
14.890400 0.527900
14.916100 0.527600
14.941700 0.527200
14.967400 0.526500
14.993000 0.525900
15.018700 0.525200
15.044300 0.524700
15.070000 0.524100
15.095700 0.523100
15.121300 0.522400
15.147000 0.521700
15.172600 0.520500
15.198300 0.519400
15.223900 0.518300
15.249600 0.517000
15.275300 0.514600
15.300900 0.512400
15.326600 0.510500
15.352200 0.508800
15.377900 0.507300
15.403500 0.506100
15.429200 0.505000
15.454800 0.504200
15.480500 0.503300
15.506200 0.502500
15.531800 0.501800
15.557500 0.501300
15.583100 0.500400
15.608800 0.499500
15.634400 0.498700
15.660100 0.498000
15.685800 0.497400
15.711400 0.496800
15.737100 0.496400
15.762700 0.496000
15.788400 0.495700
15.814000 0.495300
15.839700 0.494500
15.865300 0.493800
15.891000 0.493100
15.916700 0.492300
15.942300 0.491400
15.968000 0.490300
15.993600 0.487900
16.019300 0.485300
16.044900 0.484300
16.070600 0.483400
16.096300 0.482500
16.121900 0.481300
16.147600 0.480100
16.173200 0.478600
16.198900 0.476900
16.224500 0.475400
16.250200 0.474000
16.275800 0.472700
16.301500 0.471500
16.327200 0.470400
16.352800 0.469400
16.378500 0.468600
16.404100 0.467800
16.429800 0.467200
16.455400 0.466600
16.481100 0.466100
16.506800 0.465800
16.532400 0.465300
16.558100 0.464800
16.583700 0.465700
16.609400 0.464800
16.635000 0.464100
16.660700 0.463500
16.686300 0.462800
16.712000 0.462100
16.737700 0.461000
16.763300 0.459700
16.789000 0.458800
16.814600 0.457800
16.840300 0.457000
16.865900 0.456200
16.891600 0.455700
16.917200 0.454900
16.942900 0.454200
16.968600 0.452700
16.994200 0.450700
17.019900 0.448700
17.045500 0.447100
17.071200 0.445800
17.096800 0.444600
17.122500 0.443000
17.148200 0.441400
17.173800 0.439900
17.199500 0.438500
17.225100 0.437100
17.250800 0.435900
17.276400 0.434800
17.302100 0.433800
17.327700 0.432900
17.353400 0.432100
17.379100 0.431300
17.404700 0.430700
17.430400 0.430100
17.456000 0.429600
17.481700 0.429200
17.507300 0.428800
17.533000 0.428500
17.558700 0.428200
17.584300 0.428000
17.610000 0.428100
17.635600 0.428400
17.661300 0.428700
17.686900 0.428300
17.712600 0.427800
17.738200 0.427300
17.763900 0.426900
17.789600 0.426500
17.815200 0.426100
17.840900 0.425800
17.866500 0.425600
17.892200 0.425100
17.917800 0.424100
17.943500 0.422600
17.969200 0.421100
17.994800 0.420200
18.020500 0.419400
18.046100 0.418600
18.071800 0.417500
18.097400 0.416300
18.123100 0.415300
18.148700 0.414400
18.174400 0.413700
18.200100 0.413100
18.225700 0.412700
18.251400 0.412500
18.277000 0.412400
18.302700 0.412500
18.328300 0.412700
18.354000 0.413100
18.379700 0.413600
18.405300 0.414400
18.431000 0.416700
18.456600 0.420700
18.482300 0.421300
18.507900 0.422300
18.533600 0.423700
18.559200 0.424400
18.584900 0.425000
18.610600 0.425800
18.636200 0.426700
18.661900 0.427000
18.687500 0.427100
18.713200 0.452900
18.738800 0.464100
18.764500 0.443400
18.790200 0.426200
18.815800 0.418000
18.841500 0.412400
18.867100 0.403200
18.892800 0.392300
18.918400 0.389300
18.944100 0.386400
18.969700 0.383500
18.995400 0.380900
19.021100 0.378600
19.046700 0.375500
19.072400 0.371600
19.098000 0.367800
19.123700 0.367100
19.149300 0.366500
19.175000 0.366100
19.200700 0.365800
19.226300 0.365600
19.252000 0.365400
19.277600 0.365000
19.303300 0.364400
19.328900 0.363700
19.354600 0.363000
19.380200 0.363700
19.405900 0.395700
19.431600 0.455300
19.457200 0.538100
19.482900 0.641700
19.508500 0.744900
19.534200 0.966000
19.559800 1.011900
19.585500 1.043000
19.611200 1.063300
19.636800 1.090500
19.662500 1.105200
19.688100 1.103000
19.713800 1.142500
19.739400 1.070200
19.765100 1.077200
19.790700 1.084600
19.816400 1.092200
19.842100 1.106000
19.867700 1.116500
19.893400 1.110000
19.919000 1.044400
19.944700 1.005500
19.970300 0.979700
19.996000 0.963700
20.021700 0.947500
20.047300 0.926200
20.073000 0.904800
20.098600 0.893200
20.124300 0.883800
20.149900 0.876700
20.175600 0.871600
20.201200 0.868100
20.226900 0.867000
20.252600 0.868400
20.278200 0.889200
20.303900 0.905100
20.329500 0.904000
20.355200 0.899000
20.380800 0.889600
20.406500 0.876800
20.432100 0.875100
20.457800 0.873700
20.483500 0.870700
20.509100 0.868200
20.534800 0.855600
20.560400 0.842000
20.586100 0.834500
20.611700 0.827400
20.637400 0.820400
20.663100 0.813800
20.688700 0.807900
20.714400 0.801500
20.740000 0.795800
20.765700 0.792400
20.791300 0.788600
20.817000 0.784400
20.842600 0.780300
20.868300 0.776800
20.894000 0.775400
20.919600 0.775000
20.945300 0.774000
20.970900 0.769600
20.996600 0.762900
21.022200 0.750600
21.047900 0.743600
21.073600 0.738400
21.099200 0.733300
21.124900 0.726900
21.150500 0.721700
21.176200 0.717800
21.201800 0.714800
21.227500 0.711300
21.253100 0.708200
21.278800 0.705600
21.304500 0.703200
21.330100 0.700900
21.355800 0.698900
21.381400 0.697000
21.407100 0.694900
21.432700 0.692300
21.458400 0.689200
21.484100 0.685700
21.509700 0.681600
21.535400 0.676900
21.561000 0.672300
21.586700 0.669400
21.612300 0.668100
21.638000 0.665500
21.663600 0.664600
21.689300 0.664300
21.715000 0.663900
21.740600 0.663400
21.766300 0.663500
21.791900 0.664000
21.817600 0.664600
21.843200 0.665100
21.868900 0.665100
21.894600 0.664300
21.920200 0.662700
21.945900 0.655300
21.971500 0.640600
21.997200 0.625800
22.022800 0.612500
22.048500 0.602100
22.074100 0.595900
22.099800 0.590900
22.125500 0.585700
22.151100 0.579600
22.176800 0.573800
22.202400 0.567600
22.228100 0.559600
22.253700 0.551800
22.279400 0.545000
22.305100 0.538600
22.330700 0.532100
22.356400 0.525500
22.382000 0.518800
22.407700 0.509400
22.433300 0.501500
22.459000 0.495300
22.484600 0.491600
22.510300 0.488500
22.536000 0.488400
22.561600 0.489000
22.587300 0.489400
22.612900 0.489400
22.638600 0.488800
22.664200 0.487900
22.689900 0.487600
22.715600 0.490400
22.741200 0.503600
22.766900 0.489300
22.792500 0.486400
22.818200 0.483300
22.843800 0.480400
22.869500 0.476900
22.895100 0.473200
22.920800 0.469800
22.946500 0.466900
22.972100 0.464500
22.997800 0.462100
23.023400 0.459500
23.049100 0.456900
23.074700 0.454100
23.100400 0.451400
23.126100 0.448700
23.151700 0.449100
23.177400 0.447200
23.203000 0.445700
23.228700 0.443800
23.254300 0.438800
23.280000 0.433100
23.305600 0.425400
23.331300 0.417400
23.357000 0.409800
23.382600 0.403500
23.408300 0.399400
23.433900 0.398700
23.459600 0.392800
23.485200 0.376500
23.510900 0.366400
23.536600 0.357200
23.562200 0.345700
23.587900 0.335800
23.613500 0.328300
23.639200 0.320700
23.664800 0.312600
23.690500 0.304100
23.716100 0.296000
23.741800 0.290500
23.767500 0.286200
23.793100 0.282700
23.818800 0.279700
23.844400 0.277600
23.870100 0.276500
23.895700 0.277000
23.921400 0.277300
23.947000 0.278100
23.972700 0.281900
23.998400 0.286200
24.024000 0.288200
24.049700 0.288200
24.075300 0.288300
24.101000 0.289500
24.126600 0.290400
24.152300 0.291400
24.178000 0.292400
24.203600 0.296000
24.229300 0.299900
24.254900 0.304300
24.280600 0.309000
24.306200 0.313200
24.331900 0.313900
24.357500 0.318200
24.383200 0.325500
24.408900 0.334600
24.434500 0.344600
24.460200 0.356900
24.485800 0.370900
24.511500 0.387100
24.537100 0.405400
24.562800 0.425200
24.588500 0.440400
24.614100 0.437600
24.639800 0.446000
24.665400 0.453000
24.691100 0.459300
24.716700 0.466100
24.742400 0.475000
24.768000 0.483400
24.793700 0.490300
24.819400 0.495000
24.845000 0.500700
24.870700 0.505300
24.896300 0.509200
24.922000 0.512700
24.947600 0.516300
24.973300 0.527700
24.999000 0.542100
25.024600 0.552900
25.050300 0.552700
25.075900 0.567600
25.101600 0.616900
25.127200 0.660200
25.152900 0.667900
25.178500 0.657700
25.204200 0.634200
25.229900 0.608800
25.255500 0.607200
25.281200 0.613700
25.306800 0.620800
25.332500 0.627200
25.358100 0.634600
25.383800 0.643400
25.409500 0.650000
25.435100 0.662300
25.460800 0.637700
25.486400 0.656400
25.512100 0.678700
25.537700 0.700100
25.563400 0.719700
25.589000 0.739300
25.614700 0.753600
25.640400 0.769700
25.666000 0.785300
25.691700 0.801500
25.717300 0.823500
25.743000 0.857000
25.768600 0.898000
25.794300 0.997800
25.820000 0.992800
25.845600 0.979800
25.871300 0.977900
25.896900 0.980200
25.922600 0.981700
25.948200 0.976400
25.973900 0.961200
25.999500 0.924700
26.025200 0.882100
26.050900 0.820400
26.076500 0.778400
26.102200 0.760500
26.127800 0.748000
26.153500 0.736300
26.179100 0.724400
26.204800 0.712100
26.230500 0.700200
26.256100 0.681600
26.281800 0.671900
26.307400 0.661600
26.333100 0.652100
26.358700 0.643500
26.384400 0.635800
26.410000 0.628200
26.435700 0.621500
26.461400 0.615800
26.487000 0.611100
26.512700 0.607400
26.538300 0.604500
26.564000 0.601500
26.589600 0.597500
26.615300 0.592400
26.641000 0.586100
26.666600 0.578800
26.692300 0.574400
26.717900 0.571400
26.743600 0.568300
26.769200 0.564200
26.794900 0.560000
26.820500 0.556100
26.846200 0.552500
26.871900 0.549200
26.897500 0.546500
26.923200 0.544600
26.948800 0.543400
26.974500 0.543800
27.000100 0.547000
27.025800 0.546500
27.051500 0.545300
27.077100 0.544700
27.102800 0.552300
27.128400 0.548400
27.154100 0.542700
27.179700 0.543100
27.205400 0.543000
27.231000 0.543100
27.256700 0.543000
27.282400 0.543000
27.308000 0.543900
27.333700 0.545900
27.359300 0.549100
27.385000 0.552600
27.410600 0.556100
27.436300 0.558400
27.461900 0.561200
27.487600 0.569600
27.513300 0.583800
27.538900 0.660500
27.564600 0.687000
27.590200 0.669800
27.615900 0.657500
27.641500 0.651100
27.667200 0.641500
27.692900 0.626400
27.718500 0.620600
27.744200 0.615400
27.769800 0.615200
27.795500 0.619500
27.821100 0.625800
27.846800 0.631000
27.872400 0.635300
27.898100 0.643200
27.923800 0.655000
27.949400 0.673500
27.975100 0.698900
28.000700 0.730800
28.026400 0.759200
28.052000 0.777000
28.077700 0.790200
28.103400 0.796700
28.129000 0.808600
28.154700 0.830200
28.180300 0.865800
28.206000 0.939000
28.231600 0.989100
28.257300 1.008400
28.282900 1.012500
28.308600 1.000100
28.334300 0.975900
28.359900 0.948800
28.385600 0.921600
28.411200 0.893800
28.436900 0.876200
28.462500 0.863800
28.488200 0.853800
28.513900 0.859400
28.539500 0.888900
28.565200 0.861800
28.590800 0.845200
28.616500 0.846900
28.642100 0.830000
28.667800 0.811400
28.693400 0.810900
28.719100 0.810300
28.744800 0.804400
28.770400 0.802600
28.796100 0.801900
28.821700 0.803000
28.847400 0.807000
28.873000 0.819500
28.898700 0.825900
28.924400 0.828500
28.950000 0.831500
28.975700 0.832000
29.001300 0.832800
29.027000 0.834700
29.052600 0.836500
29.078300 0.840000
29.103900 0.838400
29.129600 0.835500
29.155300 0.831900
29.180900 0.828900
29.206600 0.827800
29.232200 0.826600
29.257900 0.825200
29.283500 0.823000
29.309200 0.821200
29.334900 0.829800
29.360500 0.851600
29.386200 0.859400
29.411800 0.839100
29.437500 0.838200
29.463100 0.835000
29.488800 0.828900
29.514400 0.819800
29.540100 0.800700
29.565800 0.785000
29.591400 0.773100
29.617100 0.764000
29.642700 0.757600
29.668400 0.752400
29.694000 0.747700
29.719700 0.741600
29.745400 0.738000
29.771000 0.735400
29.796700 0.733500
29.822300 0.730800
29.848000 0.725000
29.873600 0.721200
29.899300 0.718700
29.924900 0.717000
29.950600 0.715200
29.976300 0.713300
30.001900 0.711600
30.027600 0.710000
30.053200 0.708300
30.078900 0.707000
30.104500 0.706100
30.130200 0.706800
30.155900 0.709100
30.181500 0.713100
30.207200 0.711600
30.232800 0.708100
30.258500 0.704200
30.284100 0.700600
30.309800 0.697400
30.335400 0.695600
30.361100 0.694100
30.386800 0.692900
30.412400 0.691800
30.438100 0.691100
30.463700 0.691400
30.489400 0.693000
30.515000 0.689700
30.540700 0.690000
30.566400 0.690200
30.592000 0.688600
30.617700 0.686700
30.643300 0.684600
30.669000 0.682100
30.694600 0.680000
30.720300 0.680200
30.745900 0.679000
30.771600 0.674400
30.797300 0.665000
30.822900 0.657500
30.848600 0.648200
30.874200 0.642700
30.899900 0.640700
30.925500 0.640200
30.951200 0.642000
30.976800 0.646800
31.002500 0.644400
31.028200 0.653400
31.053800 0.660800
31.079500 0.664900
31.105100 0.667000
31.130800 0.667300
31.156400 0.666300
31.182100 0.668000
31.207800 0.670500
31.233400 0.673700
31.259100 0.677200
31.284700 0.681100
31.310400 0.684300
31.336000 0.689100
31.361700 0.694900
31.387300 0.701300
31.413000 0.708400
31.438700 0.716500
31.464300 0.723300
31.490000 0.731600
31.515600 0.743000
31.541300 0.758000
31.566900 0.772500
31.592600 0.781100
31.618300 0.782200
31.643900 0.777000
31.669600 0.776200
31.695200 0.782600
31.720900 0.788700
31.746500 0.793700
31.772200 0.799800
31.797800 0.804200
31.823500 0.806400
31.849200 0.808800
31.874800 0.811000
31.900500 0.811900
31.926100 0.811400
31.951800 0.809700
31.977400 0.807000
32.003100 0.799900
32.028800 0.789200
32.054400 0.782400
32.080100 0.778100
32.105700 0.773900
32.131400 0.770100
32.157000 0.766300
32.182700 0.762200
32.208300 0.757700
32.234000 0.752200
32.259700 0.746400
32.285300 0.741200
32.311000 0.737500
32.336600 0.734200
32.362300 0.731000
32.387900 0.730600
32.413600 0.732800
32.439300 0.735800
32.464900 0.740100
32.490600 0.746500
32.516200 0.756300
32.541900 0.768600
32.567500 0.779800
32.593200 0.803100
32.618800 0.804200
32.644500 0.787300
32.670200 0.769300
32.695800 0.760300
32.721500 0.756900
32.747100 0.755900
32.772800 0.754200
32.798400 0.751500
32.824100 0.749300
32.849800 0.746800
32.875400 0.745700
32.901100 0.748300
32.926700 0.758700
32.952400 0.773500
32.978000 0.791000
33.003700 0.811300
33.029300 0.826000
33.055000 0.828400
33.080700 0.823500
33.106300 0.814200
33.132000 0.807900
33.157600 0.806700
33.183300 0.805500
33.208900 0.804200
33.234600 0.802800
33.260300 0.801200
33.285900 0.799400
33.311600 0.797900
33.337200 0.796800
33.362900 0.795600
33.388500 0.793400
33.414200 0.792100
33.439800 0.791500
33.465500 0.790500
33.491200 0.788900
33.516800 0.787000
33.542500 0.784900
33.568100 0.782700
33.593800 0.780700
33.619400 0.778900
33.645100 0.777500
33.670800 0.776200
33.696400 0.774400
33.722100 0.772700
33.747700 0.770200
33.773400 0.766700
33.799000 0.762000
33.824700 0.756400
33.850300 0.749700
33.876000 0.742900
33.901700 0.736600
33.927300 0.730800
33.953000 0.726600
33.978600 0.724000
34.004300 0.723800
34.029900 0.727900
34.055600 0.728100
34.081300 0.728500
34.106900 0.728500
34.132600 0.728900
34.158200 0.730700
34.183900 0.732100
34.209500 0.732200
34.235200 0.730900
34.260800 0.730700
34.286500 0.730400
34.312200 0.729400
34.337800 0.729200
34.363500 0.729500
34.389100 0.730500
34.414800 0.732200
34.440400 0.734300
34.466100 0.736000
34.491700 0.736900
34.517400 0.737200
34.543100 0.737300
34.568700 0.736400
34.594400 0.735800
34.620000 0.735600
34.645700 0.735600
34.671300 0.735900
34.697000 0.736800
34.722700 0.738000
34.748300 0.739300
34.774000 0.741000
34.799600 0.742900
34.825300 0.744900
34.850900 0.746700
34.876600 0.748100
34.902200 0.749200
34.927900 0.750200
34.953600 0.752500
34.979200 0.755100
35.004900 0.757300
35.030500 0.759200
35.056200 0.760700
35.081800 0.761900
35.107500 0.762300
35.133200 0.762200
35.158800 0.761300
35.184500 0.758600
35.210100 0.768100
35.235800 0.776900
35.261400 0.781100
35.287100 0.788300
35.312700 0.795600
35.338400 0.807900
35.364100 0.890700
35.389700 0.856100
35.415400 0.849000
35.441000 0.859600
35.466700 0.867100
35.492300 0.861400
35.518000 0.846200
35.543700 0.834300
35.569300 0.824800
35.595000 0.817800
35.620600 0.814100
35.646300 0.808100
35.671900 0.806100
35.697600 0.772100
35.723200 0.764600
35.748900 0.761400
35.774600 0.761400
35.800200 0.762000
35.825900 0.763200
35.851500 0.765700
35.877200 0.769300
35.902800 0.771600
35.928500 0.775000
35.954200 0.781900
35.979800 0.785600
36.005500 0.785100
36.031100 0.780500
36.056800 0.771600
36.082400 0.758600
36.108100 0.753000
36.133700 0.752200
36.159400 0.750500
36.185100 0.751300
36.210700 0.752000
36.236400 0.752000
36.262000 0.751200
36.287700 0.799800
36.313300 0.821500
36.339000 0.784400
36.364700 0.772100
36.390300 0.766700
36.416000 0.769200
36.441600 0.775200
36.467300 0.763100
36.492900 0.768700
36.518600 0.781900
36.544200 0.792600
36.569900 0.804000
36.595600 0.807100
36.621200 0.813000
36.646900 0.818400
36.672500 0.823200
36.698200 0.827600
36.723800 0.833200
36.749500 0.838000
36.775200 0.842400
36.800800 0.853400
36.826500 0.858100
36.852100 0.852100
36.877800 0.837000
36.903400 0.825700
36.929100 0.822800
36.954700 0.821700
36.980400 0.821000
37.006100 0.822000
37.031700 0.824500
37.057400 0.824500
37.083000 0.823000
37.108700 0.820400
37.134300 0.821500
37.160000 0.823300
37.185700 0.825700
37.211300 0.828800
37.237000 0.831500
37.262600 0.834600
37.288300 0.837600
37.313900 0.846000
37.339600 0.858700
37.365200 0.873800
37.390900 0.890200
37.416600 0.937800
37.442200 0.987500
37.467900 0.957800
37.493500 0.938400
37.519200 0.937600
37.544800 0.939300
37.570500 0.942600
37.596200 0.946500
37.621800 0.947100
37.647500 0.947900
37.673100 0.942200
37.698800 0.931000
37.724400 0.913700
37.750100 0.892400
37.775700 0.884700
37.801400 0.878200
37.827100 0.875600
37.852700 0.872300
37.878400 0.868000
37.904000 0.865800
37.929700 0.865300
37.955300 0.852700
37.981000 0.846500
38.006600 0.840400
38.032300 0.835000
38.058000 0.830400
38.083600 0.826100
38.109300 0.822600
38.134900 0.820100
38.160600 0.817300
38.186200 0.814300
38.211900 0.811000
38.237600 0.807600
38.263200 0.804300
38.288900 0.801100
38.314500 0.801700
38.340200 0.791000
38.365800 0.778000
38.391500 0.766500
38.417100 0.756400
38.442800 0.746200
38.468500 0.736700
38.494100 0.725800
38.519800 0.714300
38.545400 0.698000
38.571100 0.683200
38.596700 0.674600
38.622400 0.667400
38.648100 0.660800
38.673700 0.654100
38.699400 0.657700
38.725000 0.645500
38.750700 0.630700
38.776300 0.615600
38.802000 0.605600
38.827600 0.596800
38.853300 0.591900
38.879000 0.585900
38.904600 0.581000
38.930300 0.580900
38.955900 0.585800
38.981600 0.589200
39.007200 0.575500
39.032900 0.561800
39.058600 0.547900
39.084200 0.529500
39.109900 0.505300
39.135500 0.480800
39.161200 0.461000
39.186800 0.450100
39.212500 0.443300
39.238100 0.441500
39.263800 0.439500
39.289500 0.439200
39.315100 0.438000
39.340800 0.439800
39.366400 0.445100
39.392100 0.453200
39.417700 0.461500
39.443400 0.467700
39.469100 0.470000
39.494700 0.468300
39.520400 0.451800
39.546000 0.441700
39.571700 0.438600
39.597300 0.433100
39.623000 0.422700
39.648600 0.408400
39.674300 0.390800
39.700000 0.370200
39.725600 0.350800
39.751300 0.332900
39.776900 0.315400
39.802600 0.304800
39.828200 0.286800
39.853900 0.273700
39.879600 0.262500
39.905200 0.252100
39.930900 0.242600
39.956500 0.234200
39.982200 0.226800
40.007800 0.220100
40.033500 0.213800
40.059100 0.207800
40.084800 0.202200
40.110500 0.198800
40.136100 0.195300
40.161800 0.192200
40.187400 0.189400
40.213100 0.187100
40.238700 0.185400
40.264400 0.184000
40.290100 0.182900
40.315700 0.182200
40.341400 0.182000
40.367000 0.183000
40.392700 0.184500
40.418300 0.186400
40.444000 0.188600
40.469600 0.190700
40.495300 0.192900
40.521000 0.195300
40.546600 0.198000
40.572300 0.199500
40.597900 0.200900
40.623600 0.202200
40.649200 0.203600
40.674900 0.204900
40.700600 0.206300
40.726200 0.207600
40.751900 0.208900
40.777500 0.210300
40.803200 0.211600
40.828800 0.213200
40.854500 0.215100
40.880100 0.217400
40.905800 0.220100
40.931500 0.223100
40.957100 0.226700
40.982800 0.231600
41.008400 0.237100
41.034100 0.243900
41.059700 0.251100
41.085400 0.258300
41.111100 0.264400
41.136700 0.272800
41.162400 0.272400
41.188000 0.268500
41.213700 0.261900
41.239300 0.251600
41.265000 0.237900
41.290600 0.222000
41.316300 0.205800
41.342000 0.189400
41.367600 0.172700
41.393300 0.155700
41.418900 0.137900
41.444600 0.113800
41.470200 0.096500
41.495900 0.081400
41.521500 0.068700
41.547200 0.058300
41.572900 0.049100
41.598500 0.041100
41.624200 0.034600
41.649800 0.029600
41.675500 0.025300
41.701100 0.021300
41.726800 0.017700
41.752500 0.014500
41.778100 0.011600
41.803800 0.009200
41.829400 0.007700
41.855100 0.006400
41.880700 0.005800
41.906400 0.005100
41.932000 0.004500
41.957700 0.003900
41.983400 0.003400
42.009000 0.002900
42.034700 0.002400
42.060300 0.002000
42.086000 0.001600
42.111600 0.001300
42.137300 0.001000
42.163000 0.000700
42.188600 0.000500
42.214300 0.000300
42.239900 0.000200
42.265600 0.000100
42.291200 0.000000
42.316900 0.000000
42.342500 0.000000
42.368200 0.000000
42.393900 0.000000
42.419500 0.000000
42.445200 0.000000
42.470800 0.000000
42.496500 0.000000
42.522100 0.000000
42.547800 0.000000
42.573500 0.000000
42.599100 0.000000
42.624800 0.000000
42.650400 0.000000
42.676100 0.000000
42.701700 0.000000
42.727400 0.000000
42.753000 0.000000
42.778700 0.000000
42.804400 0.000000
42.830000 0.000000
42.855700 0.000000
42.881300 0.000000
42.907000 0.000000
42.932600 0.000000
42.958300 0.000000
42.984000 0.000000
43.009600 0.000000
43.035300 0.000000
43.060900 0.000000
43.086600 0.000000
43.112200 0.000000
43.137900 0.000000
43.163500 0.000000
43.189200 0.000000
43.214900 0.000000
43.240500 0.000000
43.266200 0.000000
43.291800 0.000000
43.317500 0.000000
43.343100 0.000000
43.368800 0.000000
43.394500 0.000000
43.420100 0.000000
43.445800 0.000000
43.471400 0.000000
43.497100 0.000000
43.522700 0.000000
43.548400 0.000000
43.574000 0.000000
43.599700 0.000000
43.625400 0.000000
43.651000 0.000000
43.676700 0.000000
43.702300 0.000000
43.728000 0.000000
43.753600 0.000000
43.779300 0.000000
43.805000 0.000000
43.830600 0.000000
43.856300 0.000000
43.881900 0.000000
43.907600 0.000000
43.933200 0.000000
43.958900 0.000000
43.984500 0.000000
44.010200 0.000000
44.035900 0.000000
44.061500 0.000000
44.087200 0.000000
44.112800 0.000000
44.138500 0.000000
44.164100 0.000000
44.189800 0.000000
44.215500 0.000000
44.241100 0.000000
44.266800 0.000000
44.292400 0.000000
44.318100 0.000000
44.343700 0.000000
44.369400 0.000000
44.395000 0.000000
44.420700 0.000000
44.446400 0.000000
44.472000 0.000000
44.497700 0.000000
44.523300 0.000000
44.549000 0.000000
44.574600 0.000000
44.600300 0.000000
44.626000 0.000000
44.651600 0.000000
e
