set title 'mp-1184565 - Density of States'
set xlabel 'Energy (eV)'
set ylabel 'DOS (states/eV)'
set grid
set xrange [-10:10]
set yrange [0:3.508]
set xzeroaxis lt -1
set terminal png size 800,600
set output 'mp-1184565_dos_gnuplot.png'
plot '-' using 1:2 with lines title 'DOS'
-21.031600 0.000000
-21.000100 0.000000
-20.968700 0.000000
-20.937200 0.000000
-20.905800 0.000000
-20.874300 0.000000
-20.842900 0.000000
-20.811400 0.000000
-20.780000 0.000000
-20.748500 0.000000
-20.717100 0.000000
-20.685600 0.000000
-20.654200 0.000000
-20.622700 0.000000
-20.591300 0.000000
-20.559800 0.000000
-20.528400 0.000000
-20.496900 0.000000
-20.465500 0.000000
-20.434000 0.000000
-20.402600 0.000000
-20.371100 0.000000
-20.339700 0.000000
-20.308200 0.000000
-20.276800 0.000000
-20.245300 0.000000
-20.213900 0.000000
-20.182400 0.000000
-20.151000 0.000000
-20.119500 0.000000
-20.088100 0.000000
-20.056600 0.000000
-20.025200 0.000000
-19.993700 0.000000
-19.962300 0.000000
-19.930800 0.000000
-19.899400 0.000000
-19.867900 0.000000
-19.836500 0.000000
-19.805000 0.000000
-19.773600 0.000000
-19.742100 0.000000
-19.710700 0.000000
-19.679200 0.000000
-19.647800 0.000000
-19.616300 0.000000
-19.584900 0.000000
-19.553400 0.000000
-19.522000 0.000000
-19.490500 0.000000
-19.459100 0.000000
-19.427600 0.000000
-19.396200 0.000000
-19.364800 0.000000
-19.333300 0.000000
-19.301900 0.000000
-19.270400 0.000000
-19.239000 0.000000
-19.207500 0.000000
-19.176100 0.000000
-19.144600 0.000000
-19.113200 0.000000
-19.081700 0.000000
-19.050300 0.000000
-19.018800 0.000000
-18.987400 0.000000
-18.955900 0.000000
-18.924500 0.000000
-18.893000 0.000000
-18.861600 0.000000
-18.830100 0.000000
-18.798700 0.000000
-18.767200 0.000000
-18.735800 0.000000
-18.704300 0.000000
-18.672900 0.000000
-18.641400 0.000000
-18.610000 0.000000
-18.578500 0.000000
-18.547100 0.000000
-18.515600 0.000000
-18.484200 0.000000
-18.452700 0.000000
-18.421300 0.000000
-18.389800 0.000000
-18.358400 0.000000
-18.326900 0.000000
-18.295500 0.000000
-18.264000 0.000000
-18.232600 0.000000
-18.201100 0.000000
-18.169700 68.343200
-18.138200 72.422200
-18.106800 0.013700
-18.075300 325.510100
-18.043900 0.000000
-18.012400 0.000000
-17.981000 0.000000
-17.949500 0.000000
-17.918100 0.000000
-17.886600 0.000000
-17.855200 0.000000
-17.823700 0.000000
-17.792300 0.000000
-17.760800 0.000000
-17.729400 0.000000
-17.697900 0.000000
-17.666500 0.000000
-17.635000 0.000000
-17.603600 0.000000
-17.572100 0.000000
-17.540700 0.000000
-17.509200 0.000000
-17.477800 0.000000
-17.446300 0.000000
-17.414900 0.000000
-17.383400 0.000000
-17.352000 0.000000
-17.320500 0.000000
-17.289100 0.000000
-17.257600 0.000000
-17.226200 0.000000
-17.194700 0.000000
-17.163300 0.000000
-17.131800 0.000000
-17.100400 0.000000
-17.068900 0.000000
-17.037500 0.000000
-17.006000 0.000000
-16.974600 0.000000
-16.943100 0.000000
-16.911700 0.000000
-16.880200 0.000000
-16.848800 0.000000
-16.817300 0.000000
-16.785900 0.000000
-16.754400 0.000000
-16.723000 0.000000
-16.691500 0.000000
-16.660100 0.000000
-16.628600 0.000000
-16.597200 0.000000
-16.565700 0.000000
-16.534300 0.000000
-16.502800 0.000000
-16.471400 0.000000
-16.439900 0.000000
-16.408500 0.000000
-16.377000 0.000000
-16.345600 0.000000
-16.314100 0.000000
-16.282700 0.000000
-16.251200 0.000000
-16.219800 0.000000
-16.188400 0.000000
-16.156900 0.000000
-16.125500 0.000000
-16.094000 0.000000
-16.062600 0.000000
-16.031100 0.000000
-15.999700 0.000000
-15.968200 0.000000
-15.936800 0.000000
-15.905300 0.000000
-15.873900 0.000000
-15.842400 0.000000
-15.811000 0.000000
-15.779500 0.000000
-15.748100 0.000000
-15.716600 0.000000
-15.685200 0.000000
-15.653700 0.000000
-15.622300 0.000000
-15.590800 0.000000
-15.559400 0.000000
-15.527900 0.000000
-15.496500 0.000000
-15.465000 0.000000
-15.433600 0.000000
-15.402100 0.000000
-15.370700 0.000000
-15.339200 0.000000
-15.307800 0.000000
-15.276300 0.000000
-15.244900 0.000000
-15.213400 0.000000
-15.182000 0.000000
-15.150500 0.000000
-15.119100 0.000000
-15.087600 0.000000
-15.056200 0.000000
-15.024700 0.000000
-14.993300 0.000000
-14.961800 0.000000
-14.930400 0.000000
-14.898900 0.000000
-14.867500 0.000000
-14.836000 0.000000
-14.804600 0.000000
-14.773100 0.000000
-14.741700 0.000000
-14.710200 0.000000
-14.678800 0.000000
-14.647300 0.000000
-14.615900 0.000000
-14.584400 0.000000
-14.553000 0.000000
-14.521500 0.000000
-14.490100 0.000000
-14.458600 0.000000
-14.427200 0.000000
-14.395700 0.000000
-14.364300 0.000000
-14.332800 0.000000
-14.301400 0.000000
-14.269900 0.000000
-14.238500 0.000000
-14.207000 0.000000
-14.175600 0.000000
-14.144100 0.000000
-14.112700 0.000000
-14.081200 0.000000
-14.049800 0.000000
-14.018300 0.000000
-13.986900 0.000000
-13.955400 0.000000
-13.924000 0.000000
-13.892500 0.000000
-13.861100 0.000000
-13.829600 0.000000
-13.798200 0.000000
-13.766700 0.000000
-13.735300 0.000000
-13.703800 0.000000
-13.672400 0.000000
-13.640900 0.000000
-13.609500 0.000000
-13.578000 0.000000
-13.546600 0.000000
-13.515100 0.000000
-13.483700 0.000000
-13.452200 0.000000
-13.420800 0.000000
-13.389300 0.000000
-13.357900 0.000000
-13.326400 0.000000
-13.295000 0.000000
-13.263500 0.000000
-13.232100 0.000000
-13.200600 0.000000
-13.169200 0.000000
-13.137700 0.000000
-13.106300 0.000000
-13.074800 0.000000
-13.043400 0.000000
-13.012000 0.000000
-12.980500 0.000000
-12.949100 0.000000
-12.917600 0.000000
-12.886200 0.000000
-12.854700 0.000000
-12.823300 0.000000
-12.791800 0.000000
-12.760400 0.000000
-12.728900 0.000000
-12.697500 0.000000
-12.666000 0.000000
-12.634600 0.000000
-12.603100 0.000000
-12.571700 0.000000
-12.540200 0.000000
-12.508800 0.000000
-12.477300 0.000000
-12.445900 0.000000
-12.414400 0.000000
-12.383000 0.000000
-12.351500 0.000000
-12.320100 0.000000
-12.288600 0.000000
-12.257200 0.000000
-12.225700 0.000000
-12.194300 0.000000
-12.162800 0.000000
-12.131400 0.000000
-12.099900 0.000000
-12.068500 0.000000
-12.037000 0.000000
-12.005600 0.000000
-11.974100 0.000000
-11.942700 0.000000
-11.911200 0.000000
-11.879800 0.000000
-11.848300 0.000000
-11.816900 0.000000
-11.785400 0.000000
-11.754000 0.000000
-11.722500 0.000000
-11.691100 0.000000
-11.659600 0.000000
-11.628200 0.000000
-11.596700 0.000000
-11.565300 0.000000
-11.533800 0.000000
-11.502400 0.000000
-11.470900 0.000000
-11.439500 0.000000
-11.408000 0.000000
-11.376600 0.000000
-11.345100 0.000000
-11.313700 0.000000
-11.282200 0.000000
-11.250800 0.000000
-11.219300 0.000000
-11.187900 0.000000
-11.156400 0.000000
-11.125000 0.000000
-11.093500 0.000000
-11.062100 0.000000
-11.030600 0.000000
-10.999200 0.000000
-10.967700 0.000000
-10.936300 0.000000
-10.904800 0.000000
-10.873400 0.000000
-10.841900 0.000000
-10.810500 0.000000
-10.779000 0.000000
-10.747600 0.000000
-10.716100 0.000000
-10.684700 0.000000
-10.653200 0.000000
-10.621800 0.000000
-10.590300 0.000000
-10.558900 0.000000
-10.527400 0.000000
-10.496000 0.000000
-10.464500 0.000000
-10.433100 0.000000
-10.401600 0.000000
-10.370200 0.000000
-10.338700 0.000000
-10.307300 0.000000
-10.275800 0.000000
-10.244400 0.000000
-10.212900 0.000000
-10.181500 0.000000
-10.150000 0.000000
-10.118600 0.000000
-10.087100 0.000000
-10.055700 0.000000
-10.024200 0.000000
-9.992800 0.000000
-9.961300 0.000000
-9.929900 0.000000
-9.898400 0.000000
-9.867000 0.000000
-9.835600 0.000000
-9.804100 0.000000
-9.772700 0.000000
-9.741200 0.000000
-9.709800 0.000000
-9.678300 0.000000
-9.646900 0.000000
-9.615400 0.000000
-9.584000 0.000000
-9.552500 0.000000
-9.521100 0.000000
-9.489600 0.000000
-9.458200 0.000000
-9.426700 0.000000
-9.395300 0.000000
-9.363800 0.000000
-9.332400 0.000000
-9.300900 0.000000
-9.269500 0.000000
-9.238000 0.000000
-9.206600 0.000000
-9.175100 0.000000
-9.143700 0.000000
-9.112200 0.000000
-9.080800 0.000000
-9.049300 0.000000
-9.017900 0.000000
-8.986400 0.000000
-8.955000 0.000000
-8.923500 0.000000
-8.892100 0.000000
-8.860600 0.000000
-8.829200 0.000000
-8.797700 0.000000
-8.766300 0.000000
-8.734800 0.000000
-8.703400 0.000000
-8.671900 0.000000
-8.640500 0.000000
-8.609000 0.000000
-8.577600 0.000000
-8.546100 0.000000
-8.514700 0.000000
-8.483200 0.000000
-8.451800 0.000000
-8.420300 0.000000
-8.388900 0.000000
-8.357400 0.000000
-8.326000 0.000000
-8.294500 0.000000
-8.263100 0.000000
-8.231600 0.000000
-8.200200 0.000000
-8.168700 0.000000
-8.137300 0.000000
-8.105800 0.000000
-8.074400 0.000000
-8.042900 0.000000
-8.011500 0.000000
-7.980000 0.000000
-7.948600 0.000000
-7.917100 0.000000
-7.885700 0.000000
-7.854200 0.000000
-7.822800 0.000000
-7.791300 0.000000
-7.759900 0.001600
-7.728400 0.037000
-7.697000 0.113500
-7.665500 0.139400
-7.634100 0.145000
-7.602600 0.170300
-7.571200 0.196900
-7.539700 0.223100
-7.508300 0.240600
-7.476800 0.247100
-7.445400 0.255700
-7.413900 0.270000
-7.382500 0.284600
-7.351000 0.299200
-7.319600 0.313800
-7.288100 0.329100
-7.256700 0.340700
-7.225200 0.350300
-7.193800 0.359900
-7.162300 0.367900
-7.130900 0.376800
-7.099400 0.386100
-7.068000 0.395800
-7.036500 0.405700
-7.005100 0.416200
-6.973600 0.427300
-6.942200 0.438800
-6.910700 0.449500
-6.879300 0.457900
-6.847800 0.465400
-6.816400 0.473700
-6.784900 0.481200
-6.753500 0.488400
-6.722000 0.496200
-6.690600 0.503900
-6.659200 0.511800
-6.627700 0.520100
-6.596300 0.528800
-6.564800 0.537800
-6.533400 0.546900
-6.501900 0.556100
-6.470500 0.565300
-6.439000 0.572900
-6.407600 0.579700
-6.376100 0.587300
-6.344700 0.594900
-6.313200 0.602300
-6.281800 0.609400
-6.250300 0.616700
-6.218900 0.624300
-6.187400 0.632000
-6.156000 0.639800
-6.124500 0.647600
-6.093100 0.655500
-6.061600 0.663500
-6.030200 0.671600
-5.998700 0.679900
-5.967300 0.688300
-5.935800 0.696900
-5.904400 0.705200
-5.872900 0.712600
-5.841500 0.720100
-5.810000 0.728100
-5.778600 0.736300
-5.747100 0.744500
-5.715700 0.752900
-5.684200 0.761400
-5.652800 0.770100
-5.621300 0.779100
-5.589900 0.788200
-5.558400 0.797500
-5.527000 0.807000
-5.495500 0.816600
-5.464100 0.826300
-5.432600 0.836200
-5.401200 0.846200
-5.369700 0.856400
-5.338300 0.866800
-5.306800 0.877500
-5.275400 0.888000
-5.243900 0.898700
-5.212500 0.910600
-5.181000 0.927700
-5.149600 0.948000
-5.118100 0.966700
-5.086700 0.986200
-5.055200 1.006500
-5.023800 1.027700
-4.992300 1.049300
-4.960900 1.072400
-4.929400 1.090800
-4.898000 1.099700
-4.866500 1.114500
-4.835100 1.130100
-4.803600 1.145900
-4.772200 1.162000
-4.740700 1.213000
-4.709300 1.245600
-4.677800 1.247000
-4.646400 1.243000
-4.614900 1.235100
-4.583500 1.270600
-4.552000 1.334600
-4.520600 1.240800
-4.489100 1.229500
-4.457700 1.219700
-4.426200 1.210600
-4.394800 1.201700
-4.363300 1.177000
-4.331900 1.166800
-4.300400 1.155200
-4.269000 1.140500
-4.237500 1.125800
-4.206100 1.111000
-4.174600 1.098800
-4.143200 1.093300
-4.111700 1.085400
-4.080300 1.084600
-4.048800 1.085000
-4.017400 1.085200
-3.985900 1.056400
-3.954500 1.034800
-3.923000 1.021200
-3.891600 1.007600
-3.860100 0.994000
-3.828700 0.981000
-3.797200 0.973800
-3.765800 0.968200
-3.734300 0.958600
-3.702900 0.948100
-3.671400 0.937500
-3.640000 0.926800
-3.608500 0.916000
-3.577100 0.908400
-3.545600 0.901100
-3.514200 0.892400
-3.482800 0.882900
-3.451300 0.881500
-3.419900 0.896700
-3.388400 0.911800
-3.357000 0.925400
-3.325500 0.950600
-3.294100 0.978700
-3.262600 1.028000
-3.231200 1.102000
-3.199700 1.137900
-3.168300 1.192200
-3.136800 1.332900
-3.105400 1.463000
-3.073900 1.520200
-3.042500 1.813900
-3.011000 1.913300
-2.979600 1.189300
-2.948100 1.012800
-2.916700 0.839800
-2.885200 0.665100
-2.853800 0.535500
-2.822300 0.443500
-2.790900 0.369200
-2.759400 0.318500
-2.728000 0.147600
-2.696500 0.061000
-2.665100 0.012100
-2.633600 0.000000
-2.602200 0.000000
-2.570700 0.000000
-2.539300 0.000000
-2.507800 0.000000
-2.476400 0.000000
-2.444900 0.000000
-2.413500 0.000000
-2.382000 0.000000
-2.350600 0.000000
-2.319100 0.000000
-2.287700 0.000000
-2.256200 0.003700
-2.224800 0.017600
-2.193300 0.027900
-2.161900 0.039200
-2.130400 0.051400
-2.099000 0.064400
-2.067500 0.076900
-2.036100 0.088900
-2.004600 0.101200
-1.973200 0.114000
-1.941700 0.127100
-1.910300 0.140800
-1.878800 0.294200
-1.847400 0.433100
-1.815900 0.539600
-1.784500 0.616700
-1.753000 0.742700
-1.721600 1.205400
-1.690100 1.299200
-1.658700 1.336600
-1.627200 1.330700
-1.595800 1.366900
-1.564300 1.428100
-1.532900 1.543000
-1.501400 1.657600
-1.470000 1.759600
-1.438500 1.945300
-1.407100 2.245900
-1.375600 2.420700
-1.344200 2.353200
-1.312700 2.081300
-1.281300 1.898500
-1.249800 1.734900
-1.218400 1.639600
-1.186900 1.552000
-1.155500 1.466800
-1.124000 1.384900
-1.092600 1.300200
-1.061100 1.220300
-1.029700 1.178300
-0.998200 1.143600
-0.966800 1.110800
-0.935300 1.079600
-0.903900 1.050600
-0.872400 1.025300
-0.841000 1.007900
-0.809500 0.993900
-0.778100 0.980900
-0.746600 0.968500
-0.715200 0.956800
-0.683700 0.945800
-0.652300 0.935000
-0.620800 0.924000
-0.589400 0.914200
-0.557900 0.905700
-0.526500 0.897800
-0.495000 0.891400
-0.463600 0.884700
-0.432100 0.877000
-0.400700 0.870400
-0.369200 0.866000
-0.337800 0.863200
-0.306400 0.861600
-0.274900 0.861000
-0.243500 0.860800
-0.212000 0.860700
-0.180600 0.862300
-0.149100 0.868000
-0.117700 0.878200
-0.086200 0.892800
-0.054800 0.910700
-0.023300 0.940200
0.008100 0.971700
0.039600 0.981400
0.071000 0.983100
0.102500 0.977200
0.133900 0.962900
0.165400 0.941300
0.196800 0.899600
0.228300 0.861500
0.259700 0.860400
0.291200 0.863800
0.322600 0.871200
0.354100 0.885900
0.385500 0.908700
0.417000 0.939200
0.448400 0.965600
0.479900 1.009700
0.511300 1.051200
0.542800 1.082500
0.574200 1.099100
0.605700 1.109300
0.637100 1.118700
0.668600 1.143900
0.700000 1.166400
0.731500 1.223800
0.762900 1.284100
0.794400 1.379900
0.825800 1.450700
0.857300 1.470500
0.888700 1.489600
0.920200 1.505100
0.951600 1.508800
0.983100 1.492500
1.014500 1.453600
1.046000 1.389400
1.077400 1.298600
1.108900 1.231200
1.140300 1.218500
1.171800 1.211700
1.203200 1.205300
1.234700 1.199300
1.266100 1.193700
1.297600 1.190200
1.329000 1.191200
1.360500 1.204700
1.391900 1.260000
1.423400 1.285100
1.454800 1.284800
1.486300 1.289200
1.517700 1.299900
1.549200 1.324700
1.580600 1.365300
1.612100 1.404400
1.643500 1.418700
1.675000 1.396100
1.706400 1.387000
1.737900 1.414800
1.769300 1.427400
1.800800 1.417700
1.832200 1.417000
1.863700 1.425000
1.895100 1.433500
1.926600 1.442000
1.958000 1.449900
1.989500 1.454700
2.020900 1.482400
2.052400 1.539700
2.083800 1.576300
2.115300 1.593000
2.146700 1.602100
2.178200 1.606300
2.209600 1.624200
2.241100 1.619700
2.272500 1.591000
2.304000 1.563800
2.335400 1.572500
2.366900 1.537300
2.398300 1.506700
2.429800 1.481700
2.461200 1.475700
2.492700 1.477900
2.524100 1.488300
2.555600 1.496100
2.587000 1.508700
2.618500 1.526200
2.649900 1.600000
2.681400 1.666100
2.712800 1.714200
2.744300 1.732300
2.775700 1.758600
2.807100 1.796200
2.838600 1.861700
2.870000 1.927300
2.901500 1.976800
2.932900 2.033200
2.964400 2.131700
2.995800 2.255500
3.027300 2.279900
3.058700 2.236300
3.090200 2.185300
3.121600 2.196300
3.153100 2.212000
3.184500 2.230700
3.216000 2.252200
3.247400 2.293100
3.278900 2.344500
3.310300 2.396000
3.341800 2.451400
3.373200 2.490100
3.404700 2.545800
3.436100 2.595900
3.467600 2.613100
3.499000 2.644300
3.530500 2.684200
3.561900 2.691400
3.593400 2.689300
3.624800 2.680800
3.656300 2.675800
3.687700 2.697400
3.719200 2.773700
3.750600 2.936800
3.782100 2.993000
3.813500 3.189500
3.845000 2.941000
3.876400 2.749700
3.907900 2.665100
3.939300 2.551400
3.970800 2.432300
4.002200 2.434300
4.033700 2.384300
4.065100 2.316600
4.096600 2.198600
4.128000 2.125900
4.159500 2.085600
4.190900 2.039800
4.222400 1.996500
4.253800 1.959000
4.285300 1.922800
4.316700 1.889200
4.348200 1.858000
4.379600 1.824500
4.411100 1.801300
4.442500 1.796400
4.474000 1.799500
4.505400 1.770400
4.536900 1.736800
4.568300 1.704500
4.599800 1.672700
4.631200 1.642100
4.662700 1.612600
4.694100 1.581500
4.725600 1.557500
4.757000 1.546100
4.788500 1.533700
4.819900 1.517000
4.851400 1.497600
4.882800 1.478400
4.914300 1.459600
4.945700 1.440400
4.977200 1.422500
5.008600 1.464100
5.040100 1.442400
5.071500 1.453800
5.103000 1.436000
5.134400 1.397700
5.165900 1.364300
5.197300 1.334300
5.228800 1.310300
5.260200 1.283900
5.291700 1.255200
5.323100 1.221200
5.354600 1.179000
5.386000 1.122900
5.417500 1.063600
5.448900 1.023500
5.480400 0.998100
5.511800 0.964900
5.543300 0.922900
5.574700 0.876400
5.606200 0.827800
5.637600 0.784300
5.669100 0.718800
5.700500 0.687700
5.732000 0.665300
5.763400 0.645000
5.794900 0.626700
5.826300 0.628500
5.857800 0.595500
5.889200 0.567700
5.920700 0.545100
5.952100 0.527300
5.983500 0.513000
6.015000 0.499000
6.046400 0.485400
6.077900 0.472000
6.109300 0.459800
6.140800 0.465500
6.172200 0.464000
6.203700 0.439700
6.235100 0.418600
6.266600 0.402700
6.298000 0.388500
6.329500 0.374700
6.360900 0.361400
6.392400 0.348500
6.423800 0.338300
6.455300 0.329400
6.486700 0.321100
6.518200 0.313300
6.549600 0.302100
6.581100 0.290100
6.612500 0.278100
6.644000 0.266200
6.675400 0.254500
6.706900 0.243000
6.738300 0.231600
6.769800 0.220500
6.801200 0.209500
6.832700 0.202500
6.864100 0.199600
6.895600 0.195500
6.927000 0.189700
6.958500 0.175500
6.989900 0.157700
7.021400 0.140700
7.052800 0.124500
7.084300 0.109100
7.115700 0.100600
7.147200 0.092900
7.178600 0.081000
7.210100 0.063100
7.241500 0.030300
7.273000 0.009400
7.304400 0.000400
7.335900 0.000000
7.367300 0.000000
7.398800 0.000000
7.430200 0.000000
7.461700 0.000900
7.493100 0.004200
7.524600 0.009900
7.556000 0.018100
7.587500 0.028700
7.618900 0.041700
7.650400 0.052600
7.681800 0.061600
7.713300 0.070700
7.744700 0.079600
7.776200 0.087200
7.807600 0.093400
7.839100 0.098100
7.870500 0.101400
7.902000 0.103400
7.933400 0.108600
7.964900 0.115100
7.996300 0.121700
8.027800 0.128300
8.059200 0.135000
8.090700 0.141400
8.122100 0.147400
8.153600 0.153200
8.185000 0.166300
8.216500 0.215800
8.247900 0.287800
8.279400 0.369300
8.310800 0.460700
8.342300 0.566900
8.373700 0.660300
8.405200 0.747100
8.436600 0.828900
8.468100 0.904300
8.499500 0.987000
8.531000 1.074300
8.562400 1.241200
8.593900 1.337100
8.625300 1.408200
8.656800 1.488300
8.688200 1.565200
8.719700 1.647700
8.751100 1.745500
8.782600 1.874000
8.814000 2.062100
8.845500 2.141100
8.876900 2.218700
8.908400 2.254800
8.939800 2.089000
8.971300 1.711300
9.002700 1.619700
9.034200 1.578800
9.065600 1.567600
9.097100 1.561200
9.128500 1.558900
9.159900 1.560500
9.191400 1.574100
9.222800 1.663700
9.254300 1.676000
9.285700 1.700900
9.317200 1.906300
9.348600 1.857700
9.380100 1.729800
9.411500 1.626000
9.443000 1.564100
9.474400 1.553500
9.505900 1.560800
9.537300 1.559400
9.568800 1.500000
9.600200 1.425800
9.631700 1.370900
9.663100 1.345800
9.694600 1.330500
9.726000 1.325700
9.757500 1.323600
9.788900 1.336500
9.820400 1.371900
9.851800 1.424500
9.883300 1.502900
9.914700 1.517100
9.946200 1.510100
9.977600 1.518400
10.009100 1.515400
10.040500 1.541500
10.072000 1.610300
10.103400 1.701900
10.134900 1.842800
10.166300 1.947100
10.197800 2.043400
10.229200 2.122700
10.260700 2.166000
10.292100 2.189300
10.323600 2.187100
10.355000 2.142000
10.386500 2.085300
10.417900 2.083000
10.449400 2.162200
10.480800 2.219400
10.512300 2.285700
10.543700 2.310200
10.575200 2.250300
10.606600 2.095000
10.638100 2.085700
10.669500 2.118100
10.701000 2.190200
10.732400 2.388800
10.763900 2.673700
10.795300 2.670800
10.826800 2.762800
10.858200 2.903300
10.889700 3.005600
10.921100 2.942800
10.952600 2.860800
10.984000 2.909100
11.015500 2.897000
11.046900 2.495200
11.078400 2.246700
11.109800 2.087000
11.141300 1.969600
11.172700 1.895800
11.204200 1.847000
11.235600 1.815100
11.267100 1.804700
11.298500 1.821800
11.330000 1.851500
11.361400 1.898900
11.392900 1.948500
11.424300 2.010100
11.455800 2.080800
11.487200 2.172300
11.518700 2.271100
11.550100 2.364300
11.581600 2.403700
11.613000 2.392000
11.644500 2.381700
11.675900 2.377200
11.707400 2.392900
11.738800 2.433400
11.770300 2.462700
11.801700 2.582000
11.833200 2.528600
11.864600 2.602500
11.896100 2.695000
11.927500 2.809600
11.959000 3.016100
11.990400 2.702000
12.021900 2.755500
12.053300 2.847500
12.084800 2.735800
12.116200 2.701500
12.147700 2.496500
12.179100 2.633100
12.210600 1.935500
12.242000 1.873200
12.273500 1.836900
12.304900 1.811600
12.336300 1.791800
12.367800 1.791100
12.399200 1.828400
12.430700 1.838200
12.462100 1.890100
12.493600 1.866700
12.525000 1.849200
12.556500 1.864300
12.587900 1.905300
12.619400 1.913000
12.650800 1.892900
12.682300 1.851300
12.713700 1.820200
12.745200 1.813700
12.776600 1.815800
12.808100 1.852700
12.839500 1.905300
12.871000 2.022500
12.902400 2.169000
12.933900 2.360600
12.965300 2.570700
12.996800 2.457700
13.028200 2.318000
13.059700 2.277600
13.091100 2.181300
13.122600 2.056100
13.154000 1.923600
13.185500 1.768800
13.216900 1.708500
13.248400 1.744800
13.279800 1.754900
13.311300 1.585900
13.342700 1.585000
13.374200 1.585700
13.405600 1.598300
13.437100 1.611900
13.468500 1.621500
13.500000 1.622500
13.531400 1.627100
13.562900 1.638900
13.594300 1.653200
13.625800 1.679200
13.657200 1.740500
13.688700 1.705300
13.720100 1.711100
13.751600 1.730300
13.783000 1.751500
13.814500 1.782400
13.845900 1.822400
13.877400 1.870700
13.908800 1.941500
13.940300 2.059300
13.971700 2.247300
14.003200 2.569100
14.034600 2.591100
14.066100 2.640700
14.097500 2.660300
14.129000 2.646300
14.160400 2.623000
14.191900 2.616000
14.223300 2.704700
14.254800 2.788300
14.286200 2.787500
14.317700 2.696100
14.349100 2.592600
14.380600 2.482400
14.412000 2.381700
14.443500 2.272500
14.474900 2.180700
14.506400 2.088800
14.537800 2.007200
14.569300 1.939800
14.600700 1.848700
14.632200 1.750300
14.663600 1.670300
14.695100 1.702100
14.726500 1.711700
14.758000 1.235500
14.789400 1.150300
14.820900 1.195400
14.852300 1.275000
14.883800 1.363300
14.915200 1.463000
14.946700 1.610300
14.978100 1.819200
15.009600 2.062000
15.041000 2.194500
15.072500 2.322600
15.103900 2.436900
15.135400 2.612100
15.166800 2.709300
15.198300 2.798100
15.229700 2.787900
15.261200 3.170500
15.292600 3.226600
15.324100 3.252400
15.355500 2.945800
15.387000 2.775700
15.418400 2.600300
15.449900 2.480000
15.481300 2.384300
15.512700 2.298900
15.544200 2.186100
15.575600 2.087600
15.607100 2.027100
15.638500 1.948700
15.670000 1.879000
15.701400 1.797300
15.732900 1.741900
15.764300 1.725000
15.795800 1.744500
15.827200 1.676200
15.858700 1.614700
15.890100 1.554200
15.921600 1.488700
15.953000 1.468200
15.984500 1.454400
16.015900 1.441500
16.047400 1.430700
16.078800 1.423800
16.110300 1.422300
16.141700 1.422400
16.173200 1.442800
16.204600 1.480200
16.236100 1.495500
16.267500 1.514100
16.299000 1.529800
16.330400 1.554800
16.361900 1.829100
16.393300 1.719900
16.424800 1.709600
16.456200 1.717400
16.487700 1.729200
16.519100 1.745800
16.550600 1.773400
16.582000 1.833100
16.613500 1.953000
16.644900 2.076200
16.676400 2.189900
16.707800 2.401800
16.739300 2.400500
16.770700 2.226400
16.802200 2.153500
16.833600 1.978400
16.865100 1.765000
16.896500 1.787200
16.928000 1.851100
16.959400 1.933700
16.990900 1.926900
17.022300 1.862800
17.053800 1.837600
17.085200 1.942200
17.116700 2.063500
17.148100 2.070100
17.179600 2.101900
17.211000 2.168200
17.242500 2.216400
17.273900 2.195300
17.305400 2.071300
17.336800 2.060200
17.368300 2.058200
17.399700 2.176700
17.431200 2.297200
17.462600 2.323900
17.494100 2.280900
17.525500 2.183600
17.557000 2.004200
17.588400 1.923400
17.619900 1.873200
17.651300 1.817900
17.682800 1.772700
17.714200 1.749000
17.745700 1.728700
17.777100 1.720500
17.808600 1.721300
17.840000 1.708800
17.871500 1.704400
17.902900 1.723900
17.934400 1.751500
17.965800 1.777200
17.997300 1.771500
18.028700 1.758800
18.060200 1.742800
18.091600 1.715800
18.123100 1.678500
18.154500 1.634800
18.186000 1.588400
18.217400 1.566800
18.248900 1.512100
18.280300 1.420100
18.311800 1.375700
18.343200 1.350400
18.374700 1.338700
18.406100 1.329800
18.437600 1.323700
18.469000 1.328600
18.500500 1.348500
18.531900 1.400400
18.563400 1.448900
18.594800 1.498600
18.626300 1.546200
18.657700 1.603600
18.689100 1.698400
18.720600 1.846000
18.752000 1.981300
18.783500 1.870600
18.814900 1.882700
18.846400 1.871800
18.877800 1.890100
18.909300 1.911000
18.940700 1.927900
18.972200 1.953300
19.003600 1.959700
19.035100 1.964700
19.066500 1.980800
19.098000 2.013500
19.129400 2.028800
19.160900 2.055800
19.192300 2.216800
19.223800 2.313100
19.255200 2.394600
19.286700 2.483400
19.318100 2.541500
19.349600 2.524600
19.381000 2.687600
19.412500 2.588800
19.443900 2.427800
19.475400 2.282500
19.506800 2.114200
19.538300 1.961900
19.569700 1.897200
19.601200 1.857300
19.632600 1.635100
19.664100 1.532200
19.695500 1.421300
19.727000 1.381400
19.758400 1.352700
19.789900 1.331800
19.821300 1.327000
19.852800 1.337700
19.884200 1.350200
19.915700 1.365400
19.947100 1.383200
19.978600 1.429400
20.010000 1.540500
20.041500 1.721000
20.072900 1.558000
20.104400 1.543700
20.135800 1.535400
20.167300 1.544000
20.198700 1.569400
20.230200 1.615400
20.261600 1.676600
20.293100 1.787300
20.324500 1.875400
20.356000 1.969200
20.387400 1.988500
20.418900 2.017100
20.450300 2.049900
20.481800 2.066500
20.513200 2.067400
20.544700 2.060900
20.576100 2.049200
20.607600 2.051900
20.639000 2.068400
20.670500 2.099300
20.701900 2.132800
20.733400 2.163000
20.764800 2.186300
20.796300 2.216600
20.827700 2.239600
20.859200 2.274800
20.890600 2.308900
20.922100 2.257700
20.953500 2.253800
20.985000 2.379600
21.016400 2.402300
21.047900 2.380400
21.079300 2.427600
21.110800 2.473900
21.142200 2.479800
21.173700 2.513400
21.205100 2.549300
21.236600 2.601800
21.268000 2.344100
21.299500 2.145200
21.330900 2.055200
21.362400 2.133300
21.393800 2.269700
21.425300 2.291200
21.456700 2.299500
21.488200 2.260000
21.519600 2.138800
21.551100 2.082700
21.582500 2.022900
21.614000 1.917500
21.645400 1.910900
21.676900 1.908100
21.708300 1.891000
21.739800 1.858900
21.771200 1.833300
21.802700 1.801200
21.834100 1.776100
21.865500 1.755500
21.897000 1.738200
21.928400 1.746600
21.959900 1.757300
21.991300 1.747800
22.022800 1.730700
22.054200 1.682200
22.085700 1.650100
22.117100 1.611100
22.148600 1.594600
22.180000 1.578400
22.211500 1.564600
22.242900 1.563500
22.274400 1.567200
22.305800 1.572000
22.337300 1.575900
22.368700 1.578400
22.400200 1.650100
22.431600 1.625700
22.463100 1.616200
22.494500 1.614600
22.526000 1.610500
22.557400 1.604700
22.588900 1.603100
22.620300 1.596500
22.651800 1.587700
22.683200 1.579200
22.714700 1.578500
22.746100 1.582500
22.777600 1.597700
22.809000 1.609800
22.840500 1.621000
22.871900 1.637900
22.903400 1.643900
22.934800 1.618500
22.966300 1.585500
22.997700 1.582000
23.029200 1.589900
23.060600 1.603800
23.092100 1.616800
23.123500 1.594300
23.155000 1.585900
23.186400 1.587900
23.217900 1.530300
23.249300 1.470900
23.280800 1.411900
23.312200 1.362800
23.343700 1.330300
23.375100 1.345300
23.406600 1.345400
23.438000 1.322800
23.469500 1.309200
23.500900 1.306100
23.532400 1.312600
23.563800 1.329900
23.595300 1.362700
23.626700 1.417000
23.658200 1.465600
23.689600 1.514600
23.721100 1.571500
23.752500 1.625900
23.784000 1.674300
23.815400 1.695800
23.846900 1.701200
23.878300 1.641500
23.909800 1.634200
23.941200 1.692600
23.972700 1.767000
24.004100 1.853100
24.035600 1.888600
24.067000 1.870500
24.098500 1.836300
24.129900 1.877600
24.161400 1.932400
24.192800 1.984100
24.224300 2.032100
24.255700 2.084700
24.287200 2.140000
24.318600 2.246800
24.350100 2.397800
24.381500 2.507600
24.413000 2.607400
24.444400 2.715800
24.475900 2.766400
24.507300 2.856000
24.538800 2.733800
24.570200 2.526700
24.601700 2.459300
24.633100 2.418100
24.664600 2.384200
24.696000 2.356500
24.727500 2.354200
24.758900 2.390800
24.790400 2.498500
24.821800 2.603400
24.853300 2.837300
24.884700 3.029700
24.916200 3.016000
24.947600 3.215200
24.979100 3.354500
25.010500 3.359700
25.041900 3.250900
25.073400 3.034800
25.104800 2.795400
25.136300 2.722100
25.167700 2.582400
25.199200 2.369200
25.230600 2.163700
25.262100 2.144300
25.293500 2.295300
25.325000 1.622900
25.356400 1.451300
25.387900 1.338200
25.419300 1.241400
25.450800 1.177800
25.482200 1.141500
25.513700 1.185500
25.545100 1.255400
25.576600 1.330500
25.608000 1.402500
25.639500 1.471800
25.670900 1.543100
25.702400 1.618400
25.733800 1.718900
25.765300 1.859000
25.796700 1.986900
25.828200 2.140800
25.859600 2.308600
25.891100 2.487000
25.922500 2.603800
25.954000 2.701300
25.985400 2.621100
26.016900 2.355700
26.048300 2.216500
26.079800 2.159500
26.111200 2.161200
26.142700 2.112700
26.174100 2.076800
26.205600 2.057100
26.237000 2.054200
26.268500 2.069700
26.299900 2.101500
26.331400 2.140200
26.362800 2.167400
26.394300 2.216400
26.425700 2.303800
26.457200 2.504300
26.488600 2.520800
26.520100 2.542300
26.551500 2.570000
26.583000 2.603600
26.614400 2.652800
26.645900 2.729500
26.677300 2.767600
26.708800 2.784300
26.740200 2.787600
26.771700 2.790400
26.803100 2.807800
26.834600 2.682200
26.866000 2.661500
26.897500 2.639500
26.928900 2.577200
26.960400 2.517300
26.991800 2.467700
27.023300 2.424200
27.054700 2.423200
27.086200 2.524800
27.117600 3.251900
27.149100 2.800400
27.180500 2.903600
27.212000 2.996900
27.243400 2.968700
27.274900 2.913600
27.306300 2.860900
27.337800 2.808600
27.369200 2.800100
27.400700 2.888500
27.432100 3.059100
27.463600 3.101800
27.495000 3.145000
27.526500 2.986900
27.557900 2.847800
27.589400 2.650300
27.620800 2.436900
27.652300 2.274900
27.683700 2.159000
27.715200 2.092900
27.746600 2.054400
27.778100 2.034000
27.809500 1.992100
27.841000 1.992800
27.872400 2.037800
27.903900 2.056400
27.935300 2.041000
27.966800 2.020300
27.998200 1.988200
28.029700 1.930400
28.061100 1.844600
28.092600 1.844000
28.124000 1.870600
28.155500 1.926200
28.186900 1.964900
28.218300 1.981200
28.249800 1.992100
28.281200 2.004000
28.312700 1.871600
28.344100 1.855700
28.375600 1.787700
28.407000 1.734500
28.438500 1.705100
28.469900 1.692900
28.501400 1.686400
28.532800 1.721600
28.564300 1.800100
28.595700 1.939500
28.627200 2.064800
28.658600 2.219400
28.690100 2.358300
28.721500 2.451400
28.753000 2.546500
28.784400 2.674000
28.815900 2.817200
28.847300 2.894800
28.878800 2.892200
28.910200 2.930100
28.941700 2.962300
28.973100 2.986600
29.004600 2.979500
29.036000 2.958400
29.067500 2.828200
29.098900 2.598200
29.130400 2.485200
29.161800 2.337400
29.193300 2.287600
29.224700 2.266700
29.256200 2.221700
29.287600 2.074600
29.319100 2.058800
29.350500 2.037200
29.382000 2.015200
29.413400 2.030700
29.444900 2.059500
29.476300 2.101900
29.507800 2.182100
29.539200 2.259000
29.570700 2.360700
29.602100 2.502600
29.633600 2.674800
29.665000 2.893000
29.696500 2.992200
29.727900 2.901200
29.759400 2.721400
29.790800 2.558100
29.822300 2.431300
29.853700 2.298800
29.885200 2.281300
29.916600 2.337100
29.948100 2.381200
29.979500 2.462500
30.011000 2.534100
30.042400 2.658700
30.073900 2.895200
30.105300 3.068600
30.136800 3.060500
30.168200 2.880500
30.199700 2.744500
30.231100 2.651900
30.262600 2.536300
30.294000 2.343200
30.325500 2.177900
30.356900 2.063800
30.388400 1.987100
30.419800 1.918900
30.451300 1.875700
30.482700 1.939500
30.514200 2.068500
30.545600 2.171900
30.577100 2.298700
30.608500 2.391500
30.640000 2.297500
30.671400 2.326000
30.702900 2.499900
30.734300 2.658100
30.765800 2.755000
30.797200 2.771900
30.828700 2.748300
30.860100 2.510100
30.891600 2.457900
30.923000 2.438900
30.954500 2.422100
30.985900 2.327600
31.017400 2.218000
31.048800 2.377600
31.080300 2.485800
31.111700 2.335600
31.143200 2.205800
31.174600 2.104400
31.206100 2.029700
31.237500 1.976900
31.269000 1.943400
31.300400 1.949500
31.331900 1.994200
31.363300 2.065400
31.394700 2.157100
31.426200 2.293800
31.457600 2.453800
31.489100 2.611700
31.520500 2.753800
31.552000 2.852600
31.583400 3.083900
31.614900 3.052300
31.646300 2.991300
31.677800 3.050100
31.709200 3.108600
31.740700 3.022100
31.772100 2.971100
31.803600 2.859400
31.835000 2.747700
31.866500 2.630600
31.897900 2.539200
31.929400 2.449100
31.960800 2.347000
31.992300 2.251100
32.023700 2.145200
32.055200 2.005100
32.086600 1.895700
32.118100 1.860700
32.149500 1.842900
32.181000 1.874500
32.212400 1.917700
32.243900 1.969800
32.275300 2.025200
32.306800 2.092700
32.338200 2.186100
32.369700 2.252300
32.401100 2.264300
32.432600 2.207600
32.464000 2.149600
32.495500 2.104300
32.526900 2.056900
32.558400 2.015500
32.589800 2.014000
32.621300 2.048900
32.652700 2.117200
32.684200 2.203500
32.715600 2.310000
32.747100 2.424600
32.778500 2.604100
32.810000 2.747100
32.841400 2.881400
32.872900 3.011000
32.904300 3.134200
32.935800 3.256000
32.967200 3.158200
32.998700 2.887600
33.030100 2.574500
33.061600 2.438800
33.093000 2.368000
33.124500 2.313300
33.155900 2.252800
33.187400 2.209600
33.218800 2.196100
33.250300 2.200300
33.281700 2.222800
33.313200 2.239300
33.344600 2.297300
33.376100 2.373800
33.407500 2.462100
33.439000 2.502700
33.470400 2.370000
33.501900 2.405200
33.533300 2.557900
33.564800 2.703900
33.596200 2.746100
33.627700 2.697800
33.659100 2.597500
33.690600 2.537700
33.722000 2.536700
33.753500 2.540100
33.784900 2.576800
33.816400 2.632800
33.847800 2.710600
33.879300 2.791400
33.910700 2.861600
33.942200 2.813500
33.973600 2.795000
34.005100 2.788300
34.036500 2.803200
34.068000 2.857300
34.099400 2.989800
34.130900 2.954200
34.162300 2.923800
34.193800 2.901200
34.225200 2.780800
34.256700 2.720400
34.288100 2.653700
34.319600 2.587100
34.351000 2.523800
34.382500 2.459900
34.413900 2.657100
34.445400 2.383100
34.476800 2.243800
34.508300 2.170900
34.539700 2.132500
34.571100 2.097300
34.602600 2.240400
34.634000 2.685300
34.665500 2.864300
34.696900 2.917200
34.728400 2.843000
34.759800 2.757100
34.791300 2.766900
34.822700 2.798800
34.854200 2.775900
34.885600 2.653500
34.917100 2.439600
34.948500 2.357300
34.980000 2.320500
35.011400 2.297700
35.042900 2.317200
35.074300 2.355700
35.105800 2.392600
35.137200 2.398200
35.168700 2.373500
35.200100 2.328300
35.231600 2.273200
35.263000 2.253100
35.294500 2.323600
35.325900 2.283000
35.357400 2.273600
35.388800 2.308200
35.420300 2.346400
35.451700 2.376700
35.483200 2.423200
35.514600 2.451700
35.546100 2.494700
35.577500 2.461800
35.609000 2.265900
35.640400 2.135200
35.671900 2.014600
35.703300 1.898700
35.734800 1.775500
35.766200 1.678400
35.797700 1.630300
35.829100 1.618000
35.860600 1.646100
35.892000 1.679600
35.923500 1.714500
35.954900 1.768700
35.986400 1.894000
36.017800 1.901800
36.049300 1.899900
36.080700 2.077000
36.112200 2.197300
36.143600 2.375300
36.175100 2.496900
36.206500 2.565600
36.238000 2.513500
36.269400 2.269000
36.300900 2.145800
36.332300 1.754500
36.363800 1.455100
36.395200 1.267800
36.426700 1.155400
36.458100 1.082600
36.489600 1.073000
36.521000 1.054600
36.552500 1.040300
36.583900 1.007500
36.615400 0.953900
36.646800 0.879900
36.678300 0.806900
36.709700 0.732300
36.741200 0.661600
36.772600 0.594500
36.804100 0.533400
36.835500 0.484900
36.867000 0.445700
36.898400 0.416000
36.929900 0.329800
36.961300 0.305700
36.992800 0.284300
37.024200 0.269100
37.055700 0.257200
37.087100 0.249200
37.118600 0.243700
37.150000 0.239100
37.181500 0.235100
37.212900 0.231400
37.244400 0.227300
37.275800 0.223400
37.307300 0.219800
37.338700 0.215700
37.370200 0.211000
37.401600 0.206300
37.433100 0.202500
37.464500 0.199600
37.496000 0.197600
37.527400 0.196500
37.558900 0.196200
37.590300 0.196600
37.621800 0.203700
37.653200 0.222100
37.684700 0.223400
37.716100 0.227000
37.747500 0.235200
37.779000 0.255600
37.810400 0.271300
37.841900 0.281900
37.873300 0.280300
37.904800 0.263600
37.936200 0.241200
37.967700 0.225000
37.999100 0.209900
38.030600 0.195800
38.062000 0.182700
38.093500 0.170600
38.124900 0.158500
38.156400 0.146500
38.187800 0.137900
38.219300 0.128300
38.250700 0.117500
38.282200 0.106300
38.313600 0.095500
38.345100 0.085300
38.376500 0.075600
38.408000 0.064500
38.439400 0.053300
38.470900 0.042900
38.502300 0.032700
38.533800 0.033200
38.565200 0.032400
38.596700 0.028900
38.628100 0.025600
38.659600 0.022400
38.691000 0.019400
38.722500 0.016500
38.753900 0.013800
38.785400 0.011200
38.816800 0.008800
38.848300 0.006500
38.879700 0.004400
38.911200 0.002500
38.942600 0.001100
38.974100 0.000300
39.005500 0.000000
39.037000 0.000000
39.068400 0.000000
39.099900 0.000000
39.131300 0.000000
39.162800 0.000000
39.194200 0.000000
39.225700 0.000000
39.257100 0.000000
39.288600 0.000000
39.320000 0.000000
39.351500 0.000000
39.382900 0.000000
39.414400 0.000000
39.445800 0.000000
39.477300 0.000000
39.508700 0.000000
39.540200 0.000000
39.571600 0.000000
39.603100 0.000000
39.634500 0.000000
39.666000 0.000000
39.697400 0.000000
39.728900 0.000000
39.760300 0.000000
39.791800 0.000000
39.823200 0.000000
39.854700 0.000000
39.886100 0.000000
39.917600 0.000000
39.949000 0.000000
39.980500 0.000000
40.011900 0.000000
40.043400 0.000000
40.074800 0.000000
40.106300 0.000000
40.137700 0.000000
40.169200 0.000000
40.200600 0.000000
40.232100 0.000000
40.263500 0.000000
40.295000 0.000000
40.326400 0.000000
40.357900 0.000000
40.389300 0.000000
40.420800 0.000000
40.452200 0.000000
40.483700 0.000000
40.515100 0.000000
40.546600 0.000000
40.578000 0.000000
40.609500 0.000000
40.640900 0.000000
40.672400 0.000000
40.703800 0.000000
40.735300 0.000000
40.766700 0.000000
40.798200 0.000000
40.829600 0.000000
40.861000 0.000000
40.892500 0.000000
40.923900 0.000000
40.955400 0.000000
40.986800 0.000000
41.018300 0.000000
41.049700 0.000000
41.081200 0.000000
41.112600 0.000000
41.144100 0.000000
41.175500 0.000000
41.207000 0.000000
41.238400 0.000000
41.269900 0.000000
41.301300 0.000000
41.332800 0.000000
41.364200 0.000000
41.395700 0.000000
41.427100 0.000000
41.458600 0.000000
41.490000 0.000000
41.521500 0.000000
41.552900 0.000000
41.584400 0.000000
41.615800 0.000000
41.647300 0.000000
41.678700 0.000000
41.710200 0.000000
41.741600 0.000000
41.773100 0.000000
41.804500 0.000000
41.836000 0.000000
41.867400 0.000000
e
