set title 'mp-14506 - Density of States'
set xlabel 'Energy (eV)'
set ylabel 'DOS (states/eV)'
set grid
set xrange [-10:10]
set yrange [0:70.016]
set xzeroaxis lt -1
set terminal png size 800,600
set output 'mp-14506_dos_gnuplot.png'
plot '-' using 1:2 with lines title 'DOS'
-9.077000 0.000000
-9.066800 0.000000
-9.056600 0.000000
-9.046400 0.000000
-9.036200 0.000000
-9.026000 0.000000
-9.015800 0.000000
-9.005600 0.000000
-8.995500 0.000000
-8.985300 0.000000
-8.975100 0.000000
-8.964900 0.000000
-8.954700 0.000000
-8.944500 0.000000
-8.934300 0.000000
-8.924100 0.000000
-8.914000 0.000000
-8.903800 0.000000
-8.893600 0.000000
-8.883400 0.000000
-8.873200 0.000000
-8.863000 0.000000
-8.852800 0.000000
-8.842600 0.000000
-8.832500 0.000000
-8.822300 0.000000
-8.812100 0.000000
-8.801900 0.000000
-8.791700 0.000000
-8.781500 0.000000
-8.771300 0.000000
-8.761100 0.000000
-8.750900 0.000000
-8.740800 0.000000
-8.730600 0.000000
-8.720400 0.000000
-8.710200 0.000000
-8.700000 0.000000
-8.689800 0.000000
-8.679600 0.000000
-8.669400 0.000000
-8.659300 0.000000
-8.649100 0.000000
-8.638900 0.000000
-8.628700 0.000000
-8.618500 0.000000
-8.608300 0.000000
-8.598100 0.000000
-8.587900 0.000000
-8.577800 0.000000
-8.567600 0.000000
-8.557400 0.000000
-8.547200 0.000000
-8.537000 0.000000
-8.526800 0.000000
-8.516600 0.000000
-8.506400 0.000000
-8.496300 0.000000
-8.486100 0.000000
-8.475900 0.000000
-8.465700 0.000000
-8.455500 0.000000
-8.445300 0.000000
-8.435100 0.000000
-8.424900 0.000000
-8.414800 0.000000
-8.404600 0.000000
-8.394400 0.000000
-8.384200 0.000000
-8.374000 0.000000
-8.363800 0.000000
-8.353600 0.000000
-8.343400 0.000000
-8.333200 0.000000
-8.323100 0.000100
-8.312900 0.000300
-8.302700 0.001000
-8.292500 0.003400
-8.282300 0.010600
-8.272100 0.031100
-8.261900 0.083600
-8.251700 0.207300
-8.241600 0.473800
-8.231400 0.998800
-8.221200 1.941700
-8.211000 3.481700
-8.200800 5.759300
-8.190600 8.791000
-8.180400 12.384600
-8.170200 16.106700
-8.160100 19.342500
-8.149900 21.454500
-8.139700 21.985800
-8.129500 20.822600
-8.119300 18.235900
-8.109100 14.784700
-8.098900 11.130600
-8.088700 7.851100
-8.078600 5.324600
-8.068400 3.710600
-8.058200 2.998300
-8.048000 3.078900
-8.037800 3.805400
-8.027600 5.031500
-8.017400 6.632900
-8.007200 8.517700
-7.997100 10.616700
-7.986900 12.848100
-7.976700 15.062700
-7.966500 17.007000
-7.956300 18.345700
-7.946100 18.762300
-7.935900 18.102100
-7.925700 16.485800
-7.915500 14.324800
-7.905400 12.216900
-7.895200 10.763300
-7.885000 10.376100
-7.874800 11.143400
-7.864600 12.795300
-7.854400 14.781700
-7.844200 16.444400
-7.834000 17.234800
-7.823900 16.899800
-7.813700 15.562300
-7.803500 13.660000
-7.793300 11.769200
-7.783100 10.390400
-7.772900 9.782500
-7.762700 9.904900
-7.752500 10.473800
-7.742400 11.101100
-7.732200 11.459300
-7.722000 11.412300
-7.711800 11.067700
-7.701600 10.731200
-7.691400 10.775400
-7.681200 11.470300
-7.671000 12.841300
-7.660900 14.618800
-7.650700 16.313700
-7.640500 17.402100
-7.630300 17.544700
-7.620100 16.744300
-7.609900 15.363000
-7.599700 13.985300
-7.589500 13.185100
-7.579400 13.292700
-7.569200 14.260700
-7.559000 15.681100
-7.548800 16.947400
-7.538600 17.493900
-7.528400 17.015200
-7.518200 15.570700
-7.508000 13.538900
-7.497800 11.448900
-7.487700 9.777500
-7.477500 8.799800
-7.467300 8.545500
-7.457100 8.857200
-7.446900 9.503100
-7.436700 10.291100
-7.426500 11.141200
-7.416300 12.103400
-7.406200 13.326600
-7.396000 14.994600
-7.385800 17.258400
-7.375600 20.192300
-7.365400 23.791400
-7.355200 27.998600
-7.345000 32.719900
-7.334800 37.784700
-7.324700 42.858200
-7.314500 47.372600
-7.304300 50.573200
-7.294100 51.715400
-7.283900 50.352200
-7.273700 46.568600
-7.263500 41.034700
-7.253300 34.841300
-7.243200 29.191300
-7.233000 25.076700
-7.222800 23.058800
-7.212600 23.207700
-7.202400 25.196700
-7.192200 28.495000
-7.182000 32.579800
-7.171800 37.084500
-7.161600 41.833100
-7.151500 46.755100
-7.141300 51.733000
-7.131100 56.467000
-7.120900 60.439800
-7.110700 63.017000
-7.100500 63.650800
-7.090300 62.091000
-7.080100 58.490800
-7.070000 53.352100
-7.059800 47.348700
-7.049600 41.135600
-7.039400 35.245600
-7.029200 30.094600
-7.019000 26.029300
-7.008800 23.323400
-6.998600 22.087200
-6.988500 22.143400
-6.978300 22.973500
-6.968100 23.816000
-6.957900 23.900600
-6.947700 22.718100
-6.937500 20.189200
-6.927300 16.655200
-6.917100 12.706200
-6.907000 8.946800
-6.896800 5.808400
-6.886600 3.475100
-6.876400 1.915400
-6.866200 0.972500
-6.856000 0.454800
-6.845800 0.195900
-6.835600 0.077700
-6.825500 0.028400
-6.815300 0.009600
-6.805100 0.003000
-6.794900 0.000900
-6.784700 0.000400
-6.774500 0.000700
-6.764300 0.002300
-6.754100 0.007600
-6.743900 0.023200
-6.733800 0.065100
-6.723600 0.169400
-6.713400 0.407400
-6.703200 0.907400
-6.693000 1.873900
-6.682800 3.591700
-6.672600 6.399500
-6.662400 10.617600
-6.652300 16.435400
-6.642100 23.785600
-6.631900 32.249900
-6.621700 41.045000
-6.611500 49.111400
-6.601300 55.300600
-6.591100 58.620100
-6.580900 58.475800
-6.570800 54.845000
-6.560600 48.318000
-6.550400 39.983000
-6.540200 31.186100
-6.530000 23.247000
-6.519800 17.231400
-6.509600 13.836500
-6.499400 13.383400
-6.489300 15.855700
-6.479100 20.926400
-6.468900 27.961600
-6.458700 36.036600
-6.448500 44.017600
-6.438300 50.726300
-6.428100 55.153000
-6.417900 56.648800
-6.407800 55.036000
-6.397600 50.609600
-6.387400 44.044300
-6.377200 36.239900
-6.367000 28.143700
-6.356800 20.583000
-6.346600 14.141200
-6.336400 9.103800
-6.326200 5.478700
-6.316100 3.075400
-6.305900 1.607300
-6.295700 0.780900
-6.285500 0.352200
-6.275300 0.147300
-6.265100 0.057100
-6.254900 0.020500
-6.244700 0.006800
-6.234600 0.002100
-6.224400 0.000600
-6.214200 0.000200
-6.204000 0.000000
-6.193800 0.000000
-6.183600 0.000000
-6.173400 0.000000
-6.163200 0.000000
-6.153100 0.000000
-6.142900 0.000000
-6.132700 0.000000
-6.122500 0.000000
-6.112300 0.000000
-6.102100 0.000000
-6.091900 0.000000
-6.081700 0.000000
-6.071600 0.000000
-6.061400 0.000000
-6.051200 0.000000
-6.041000 0.000000
-6.030800 0.000000
-6.020600 0.000000
-6.010400 0.000000
-6.000200 0.000000
-5.990000 0.000000
-5.979900 0.000000
-5.969700 0.000000
-5.959500 0.000000
-5.949300 0.000000
-5.939100 0.000000
-5.928900 0.000000
-5.918700 0.000000
-5.908500 0.000000
-5.898400 0.000000
-5.888200 0.000000
-5.878000 0.000000
-5.867800 0.000000
-5.857600 0.000000
-5.847400 0.000000
-5.837200 0.000000
-5.827000 0.000000
-5.816900 0.000000
-5.806700 0.000000
-5.796500 0.000000
-5.786300 0.000000
-5.776100 0.000000
-5.765900 0.000000
-5.755700 0.000000
-5.745500 0.000000
-5.735400 0.000000
-5.725200 0.000000
-5.715000 0.000000
-5.704800 0.000000
-5.694600 0.000000
-5.684400 0.000000
-5.674200 0.000000
-5.664000 0.000000
-5.653900 0.000000
-5.643700 0.000000
-5.633500 0.000000
-5.623300 0.000000
-5.613100 0.000000
-5.602900 0.000000
-5.592700 0.000000
-5.582500 0.000000
-5.572300 0.000000
-5.562200 0.000000
-5.552000 0.000000
-5.541800 0.000000
-5.531600 0.000000
-5.521400 0.000000
-5.511200 0.000000
-5.501000 0.000000
-5.490800 0.000000
-5.480700 0.000000
-5.470500 0.000000
-5.460300 0.000000
-5.450100 0.000000
-5.439900 0.000000
-5.429700 0.000000
-5.419500 0.000000
-5.409300 0.000000
-5.399200 0.000000
-5.389000 0.000000
-5.378800 0.000000
-5.368600 0.000000
-5.358400 0.000000
-5.348200 0.000000
-5.338000 0.000000
-5.327800 0.000000
-5.317700 0.000000
-5.307500 0.000000
-5.297300 0.000000
-5.287100 0.000000
-5.276900 0.000000
-5.266700 0.000000
-5.256500 0.000000
-5.246300 0.000000
-5.236200 0.000000
-5.226000 0.000000
-5.215800 0.000000
-5.205600 0.000000
-5.195400 0.000000
-5.185200 0.000000
-5.175000 0.000000
-5.164800 0.000000
-5.154600 0.000000
-5.144500 0.000000
-5.134300 0.000000
-5.124100 0.000000
-5.113900 0.000000
-5.103700 0.000000
-5.093500 0.000000
-5.083300 0.000000
-5.073100 0.000000
-5.063000 0.000000
-5.052800 0.000000
-5.042600 0.000000
-5.032400 0.000000
-5.022200 0.000000
-5.012000 0.000000
-5.001800 0.000000
-4.991600 0.000000
-4.981500 0.000000
-4.971300 0.000000
-4.961100 0.000000
-4.950900 0.000000
-4.940700 0.000000
-4.930500 0.000000
-4.920300 0.000000
-4.910100 0.000000
-4.900000 0.000000
-4.889800 0.000000
-4.879600 0.000000
-4.869400 0.000000
-4.859200 0.000000
-4.849000 0.000000
-4.838800 0.000000
-4.828600 0.000000
-4.818400 0.000000
-4.808300 0.000000
-4.798100 0.000000
-4.787900 0.000000
-4.777700 0.000000
-4.767500 0.000000
-4.757300 0.000000
-4.747100 0.000000
-4.736900 0.000000
-4.726800 0.000000
-4.716600 0.000000
-4.706400 0.000000
-4.696200 0.000000
-4.686000 0.000000
-4.675800 0.000000
-4.665600 0.000000
-4.655400 0.000000
-4.645300 0.000000
-4.635100 0.000000
-4.624900 0.000000
-4.614700 0.000000
-4.604500 0.000000
-4.594300 0.000000
-4.584100 0.000000
-4.573900 0.000000
-4.563800 0.000000
-4.553600 0.000000
-4.543400 0.000000
-4.533200 0.000000
-4.523000 0.000000
-4.512800 0.000000
-4.502600 0.000000
-4.492400 0.000000
-4.482300 0.000000
-4.472100 0.000000
-4.461900 0.000000
-4.451700 0.000000
-4.441500 0.000000
-4.431300 0.000000
-4.421100 0.000000
-4.410900 0.000000
-4.400700 0.000000
-4.390600 0.000000
-4.380400 0.000000
-4.370200 0.000000
-4.360000 0.000000
-4.349800 0.000000
-4.339600 0.000000
-4.329400 0.000000
-4.319200 0.000000
-4.309100 0.000000
-4.298900 0.000000
-4.288700 0.000000
-4.278500 0.000000
-4.268300 0.000000
-4.258100 0.000000
-4.247900 0.000000
-4.237700 0.000000
-4.227600 0.000000
-4.217400 0.000000
-4.207200 0.000000
-4.197000 0.000000
-4.186800 0.000000
-4.176600 0.000000
-4.166400 0.000000
-4.156200 0.000000
-4.146100 0.000000
-4.135900 0.000000
-4.125700 0.000000
-4.115500 0.000000
-4.105300 0.000000
-4.095100 0.000000
-4.084900 0.000000
-4.074700 0.000000
-4.064600 0.000000
-4.054400 0.000000
-4.044200 0.000000
-4.034000 0.000000
-4.023800 0.000000
-4.013600 0.000000
-4.003400 0.000000
-3.993200 0.000000
-3.983000 0.000000
-3.972900 0.000000
-3.962700 0.000000
-3.952500 0.000000
-3.942300 0.000000
-3.932100 0.000000
-3.921900 0.000000
-3.911700 0.000000
-3.901500 0.000000
-3.891400 0.000000
-3.881200 0.000000
-3.871000 0.000000
-3.860800 0.000000
-3.850600 0.000000
-3.840400 0.000000
-3.830200 0.000000
-3.820000 0.000000
-3.809900 0.000000
-3.799700 0.000000
-3.789500 0.000000
-3.779300 0.000000
-3.769100 0.000000
-3.758900 0.000000
-3.748700 0.000000
-3.738500 0.000000
-3.728400 0.000000
-3.718200 0.000000
-3.708000 0.000000
-3.697800 0.000000
-3.687600 0.000000
-3.677400 0.000000
-3.667200 0.000000
-3.657000 0.000000
-3.646900 0.000000
-3.636700 0.000000
-3.626500 0.000000
-3.616300 0.000000
-3.606100 0.000000
-3.595900 0.000000
-3.585700 0.000000
-3.575500 0.000000
-3.565300 0.000000
-3.555200 0.000000
-3.545000 0.000000
-3.534800 0.000000
-3.524600 0.000000
-3.514400 0.000000
-3.504200 0.000000
-3.494000 0.000000
-3.483800 0.000000
-3.473700 0.000000
-3.463500 0.000000
-3.453300 0.000000
-3.443100 0.000000
-3.432900 0.000000
-3.422700 0.000000
-3.412500 0.000000
-3.402300 0.000000
-3.392200 0.000000
-3.382000 0.000000
-3.371800 0.000000
-3.361600 0.000000
-3.351400 0.000000
-3.341200 0.000000
-3.331000 0.000000
-3.320800 0.000000
-3.310700 0.000000
-3.300500 0.000000
-3.290300 0.000000
-3.280100 0.000000
-3.269900 0.000000
-3.259700 0.000000
-3.249500 0.000000
-3.239300 0.000000
-3.229100 0.000000
-3.219000 0.000000
-3.208800 0.000000
-3.198600 0.000000
-3.188400 0.000000
-3.178200 0.000000
-3.168000 0.000000
-3.157800 0.000000
-3.147600 0.000000
-3.137500 0.000000
-3.127300 0.000000
-3.117100 0.000000
-3.106900 0.000000
-3.096700 0.000000
-3.086500 0.000000
-3.076300 0.000000
-3.066100 0.000000
-3.056000 0.000000
-3.045800 0.000000
-3.035600 0.000000
-3.025400 0.000000
-3.015200 0.000000
-3.005000 0.000000
-2.994800 0.000000
-2.984600 0.000000
-2.974500 0.000000
-2.964300 0.000000
-2.954100 0.000000
-2.943900 0.000000
-2.933700 0.000000
-2.923500 0.000000
-2.913300 0.000000
-2.903100 0.000000
-2.893000 0.000000
-2.882800 0.000000
-2.872600 0.000000
-2.862400 0.000000
-2.852200 0.000000
-2.842000 0.000000
-2.831800 0.000000
-2.821600 0.000000
-2.811400 0.000000
-2.801300 0.000000
-2.791100 0.000000
-2.780900 0.000000
-2.770700 0.000000
-2.760500 0.000000
-2.750300 0.000000
-2.740100 0.000000
-2.729900 0.000000
-2.719800 0.000000
-2.709600 0.000000
-2.699400 0.000000
-2.689200 0.000000
-2.679000 0.000000
-2.668800 0.000000
-2.658600 0.000000
-2.648400 0.000000
-2.638300 0.000000
-2.628100 0.000000
-2.617900 0.000000
-2.607700 0.000000
-2.597500 0.000000
-2.587300 0.000000
-2.577100 0.000000
-2.566900 0.000000
-2.556800 0.000000
-2.546600 0.000000
-2.536400 0.000000
-2.526200 0.000000
-2.516000 0.000000
-2.505800 0.000000
-2.495600 0.000000
-2.485400 0.000000
-2.475300 0.000000
-2.465100 0.000000
-2.454900 0.000000
-2.444700 0.000000
-2.434500 0.000000
-2.424300 0.000000
-2.414100 0.000000
-2.403900 0.000000
-2.393700 0.000000
-2.383600 0.000000
-2.373400 0.000000
-2.363200 0.000000
-2.353000 0.000000
-2.342800 0.000000
-2.332600 0.000000
-2.322400 0.000000
-2.312200 0.000000
-2.302100 0.000000
-2.291900 0.000000
-2.281700 0.000200
-2.271500 0.000800
-2.261300 0.002700
-2.251100 0.008700
-2.240900 0.026000
-2.230700 0.071300
-2.220600 0.180400
-2.210400 0.420500
-2.200200 0.903400
-2.190000 1.788900
-2.179800 3.264800
-2.169600 5.491300
-2.159400 8.512100
-2.149200 12.160100
-2.139100 16.009300
-2.128900 19.423600
-2.118700 21.717100
-2.108500 22.375900
-2.098300 21.245000
-2.088100 18.587400
-2.077900 14.985000
-2.067700 11.132000
-2.057500 7.620800
-2.047400 4.810300
-2.037200 2.807900
-2.027000 1.539700
-2.016800 0.855800
-2.006600 0.624400
-1.996400 0.793000
-1.986200 1.413900
-1.976000 2.635300
-1.965900 4.654400
-1.955700 7.628400
-1.945500 11.557500
-1.935300 16.178600
-1.925100 20.934400
-1.914900 25.069200
-1.904700 27.851700
-1.894500 28.846000
-1.884400 28.102500
-1.874200 26.157700
-1.864000 23.824800
-1.853800 21.865300
-1.843600 20.701700
-1.833400 20.306200
-1.823200 20.308600
-1.813000 20.250500
-1.802900 19.848900
-1.792700 19.144800
-1.782500 18.484200
-1.772300 18.367200
-1.762100 19.246900
-1.751900 21.358200
-1.741700 24.622400
-1.731500 28.645900
-1.721400 32.815400
-1.711200 36.471000
-1.701000 39.106700
-1.690800 40.514700
-1.680600 40.801200
-1.670400 40.263500
-1.660200 39.203500
-1.650000 37.793300
-1.639800 36.070900
-1.629700 34.048600
-1.619500 31.833800
-1.609300 29.663000
-1.599100 27.820100
-1.588900 26.504800
-1.578700 25.755900
-1.568500 25.494000
-1.558300 25.657900
-1.548200 26.335100
-1.538000 27.776400
-1.527800 30.256800
-1.517600 33.843000
-1.507400 38.199300
-1.497200 42.553600
-1.487000 45.868900
-1.476800 47.160200
-1.466700 45.824100
-1.456500 41.842400
-1.446300 35.779200
-1.436100 28.585500
-1.425900 21.303400
-1.415700 14.789800
-1.405500 9.553900
-1.395300 5.736400
-1.385200 3.198400
-1.375000 1.655000
-1.364800 0.796200
-1.354600 0.362500
-1.344400 0.175000
-1.334200 0.136000
-1.324000 0.218100
-1.313800 0.455300
-1.303700 0.935600
-1.293500 1.788400
-1.283300 3.152700
-1.273100 5.118800
-1.262900 7.653500
-1.252700 10.537400
-1.242500 13.359800
-1.232300 15.597300
-1.222100 16.768300
-1.212000 16.600300
-1.201800 15.133200
-1.191600 12.703800
-1.181400 9.820300
-1.171200 6.990400
-1.161000 4.582100
-1.150800 2.765900
-1.140600 1.537800
-1.130500 0.788600
-1.120300 0.376300
-1.110100 0.176800
-1.099900 0.106400
-1.089700 0.126900
-1.079500 0.242700
-1.069300 0.497300
-1.059100 0.969600
-1.049000 1.766700
-1.038800 3.006100
-1.028600 4.788200
-1.018400 7.161000
-1.008200 10.087900
-0.998000 13.426100
-0.987800 16.925200
-0.977600 20.250700
-0.967500 23.037300
-0.957300 24.972400
-0.947100 25.892000
-0.936900 25.853400
-0.926700 25.133900
-0.916500 24.131600
-0.906300 23.197600
-0.896100 22.482900
-0.886000 21.892300
-0.875800 21.178500
-0.865600 20.123600
-0.855400 18.695300
-0.845200 17.080300
-0.835000 15.579000
-0.824800 14.430800
-0.814600 13.679400
-0.804400 13.154700
-0.794300 12.573600
-0.784100 11.697900
-0.773900 10.462900
-0.763700 9.022900
-0.753500 7.703300
-0.743300 6.892100
-0.733100 6.912600
-0.722900 7.913300
-0.712800 9.795200
-0.702600 12.199900
-0.692400 14.573300
-0.682200 16.306700
-0.672000 16.918500
-0.661800 16.208500
-0.651600 14.315000
-0.641400 11.647100
-0.631300 8.728300
-0.621100 6.025000
-0.610900 3.833800
-0.600700 2.257600
-0.590500 1.252400
-0.580300 0.705400
-0.570100 0.503100
-0.559900 0.570500
-0.549800 0.876500
-0.539600 1.415400
-0.529400 2.173300
-0.519200 3.094700
-0.509000 4.064800
-0.498800 4.920800
-0.488600 5.494000
-0.478400 5.670900
-0.468200 5.446600
-0.458100 4.947600
-0.447900 4.413400
-0.437700 4.145000
-0.427500 4.432800
-0.417300 5.480100
-0.407100 7.329400
-0.396900 9.810200
-0.386700 12.532100
-0.376600 14.952300
-0.366400 16.517200
-0.356200 16.836800
-0.346000 15.818900
-0.335800 13.697800
-0.325600 10.943200
-0.315400 8.097500
-0.305200 5.618500
-0.295100 3.790100
-0.284900 2.713500
-0.274700 2.351300
-0.264500 2.580000
-0.254300 3.226100
-0.244100 4.085300
-0.233900 4.944100
-0.223700 5.621000
-0.213600 6.022300
-0.203400 6.191700
-0.193200 6.319600
-0.183000 6.693600
-0.172800 7.593100
-0.162600 9.160800
-0.152400 11.300700
-0.142200 13.656600
-0.132100 15.695100
-0.121900 16.877200
-0.111700 16.855400
-0.101500 15.609500
-0.091300 13.464800
-0.081100 10.990000
-0.070900 8.829100
-0.060700 7.540100
-0.050500 7.488200
-0.040400 8.801400
-0.030200 11.374000
-0.020000 14.904000
-0.009800 18.957400
0.000400 23.051000
0.010600 26.730300
0.020800 29.615800
0.031000 31.414800
0.041100 31.923800
0.051300 31.056600
0.061500 28.897900
0.071700 25.740700
0.081900 22.054900
0.092100 18.377100
0.102300 15.171700
0.112500 12.741200
0.122600 11.226700
0.132800 10.676700
0.143000 11.113000
0.153200 12.532600
0.163400 14.840300
0.173600 17.768000
0.183800 20.855300
0.194000 23.535800
0.204100 25.305200
0.214300 25.897600
0.224500 25.384300
0.234700 24.150400
0.244900 22.757800
0.255100 21.750900
0.265300 21.470400
0.275500 21.938400
0.285600 22.853700
0.295800 23.708300
0.306000 23.992400
0.316200 23.412700
0.326400 22.029600
0.336600 20.240600
0.346800 18.608300
0.357000 17.605000
0.367200 17.395500
0.377300 17.762200
0.387500 18.211000
0.397700 18.206800
0.407900 17.426100
0.418100 15.910000
0.428300 14.052700
0.438500 12.440800
0.448700 11.619700
0.458800 11.884900
0.469000 13.171000
0.479200 15.075600
0.489400 17.002000
0.499600 18.368000
0.509800 18.797500
0.520000 18.221600
0.530200 16.856600
0.540300 15.090200
0.550500 13.349300
0.560700 12.011200
0.570900 11.376000
0.581100 11.666600
0.591300 13.014700
0.601500 15.419300
0.611700 18.706600
0.621800 22.526200
0.632000 26.403000
0.642200 29.822500
0.652400 32.320700
0.662600 33.559100
0.672800 33.388300
0.683000 31.898900
0.693200 29.441100
0.703400 26.578100
0.713500 23.960500
0.723700 22.151400
0.733900 21.465400
0.744100 21.886700
0.754300 23.096000
0.764500 24.597200
0.774700 25.897400
0.784900 26.672100
0.795000 26.849300
0.805200 26.578100
0.815400 26.102900
0.825600 25.620600
0.835800 25.210600
0.846000 24.877500
0.856200 24.668100
0.866400 24.763200
0.876500 25.459500
0.886700 27.030900
0.896900 29.547900
0.907100 32.768300
0.917300 36.165400
0.927500 39.076800
0.937700 40.894800
0.947900 41.214400
0.958000 39.905300
0.968200 37.117700
0.978400 33.244800
0.988600 28.849600
0.998800 24.551300
1.009000 20.880400
1.019200 18.144800
1.029400 16.366000
1.039500 15.327700
1.049700 14.721900
1.059900 14.322700
1.070100 14.093700
1.080300 14.170200
1.090500 14.726400
1.100700 15.810000
1.110900 17.248400
1.121100 18.689800
1.131200 19.763000
1.141400 20.267100
1.151600 20.279800
1.161800 20.123800
1.172000 20.210700
1.182200 20.850200
1.192400 22.125600
1.202600 23.895000
1.212700 25.906100
1.222900 27.954300
1.233100 29.997700
1.243300 32.167500
1.253500 34.673900
1.263700 37.657200
1.273900 41.057500
1.284100 44.557600
1.294200 47.618500
1.304400 49.593500
1.314600 49.889900
1.324800 48.138900
1.335000 44.326700
1.345200 38.845100
1.355400 32.436100
1.365600 26.042400
1.375700 20.604500
1.385900 16.865900
1.396100 15.237000
1.406300 15.749600
1.416500 18.104900
1.426700 21.794200
1.436900 26.248100
1.447100 30.959000
1.457200 35.529000
1.467400 39.637300
1.477600 42.970400
1.487800 45.189700
1.498000 45.991400
1.508200 45.249800
1.518400 43.168100
1.528600 40.328900
1.538800 37.577900
1.548900 35.751000
1.559100 35.349600
1.569300 36.312300
1.579500 38.005500
1.589700 39.459300
1.599900 39.755900
1.610100 38.405000
1.620300 35.541500
1.630400 31.871700
1.640600 28.404800
1.650800 26.090500
1.661000 25.501000
1.671200 26.659300
1.681400 29.051600
1.691600 31.804500
1.701800 33.964800
1.711900 34.792800
1.722100 33.982300
1.732300 31.744000
1.742500 28.737900
1.752700 25.885400
1.762900 24.117300
1.773100 24.115400
1.783300 26.098600
1.793400 29.707700
1.803600 34.047400
1.813800 37.918700
1.824000 40.201800
1.834200 40.262100
1.844400 38.205800
1.854600 34.858100
1.864800 31.456600
1.875000 29.189200
1.885100 28.766800
1.895300 30.195500
1.905500 32.818400
1.915700 35.590400
1.925900 37.471100
1.936100 37.787400
1.946300 36.440800
1.956500 33.891400
1.966600 30.941500
1.976800 28.416800
1.987000 26.881700
1.997200 26.498700
2.007400 27.066400
2.017600 28.187000
2.027800 29.467500
2.038000 30.667600
2.048100 31.757200
2.058300 32.895100
2.068500 34.354300
2.078700 36.415000
2.088900 39.244000
2.099100 42.790300
2.109300 46.741200
2.119500 50.572600
2.129600 53.686300
2.139800 55.584700
2.150000 56.011100
2.160200 54.993500
2.170400 52.782600
2.180600 49.724500
2.190800 46.146400
2.201000 42.317400
2.211100 38.489400
2.221300 34.962200
2.231500 32.097300
2.241700 30.247500
2.251900 29.635600
2.262100 30.262600
2.272300 31.903000
2.282500 34.189800
2.292700 36.729000
2.302800 39.178700
2.313000 41.262900
2.323200 42.745200
2.333400 43.410600
2.343600 43.093200
2.353800 41.744600
2.364000 39.505000
2.374200 36.724100
2.384300 33.897100
2.394500 31.519600
2.404700 29.906300
2.414900 29.053900
2.425100 28.621200
2.435300 28.056100
2.445500 26.831000
2.455700 24.688800
2.465800 21.789100
2.476000 18.691300
2.486200 16.187000
2.496400 15.055300
2.506600 15.829200
2.516800 18.639700
2.527000 23.163700
2.537200 28.681000
2.547300 34.231500
2.557500 38.844600
2.567700 41.790600
2.577900 42.777300
2.588100 42.020200
2.598300 40.147400
2.608500 37.970500
2.618700 36.207800
2.628800 35.272000
2.639000 35.198800
2.649200 35.722700
2.659400 36.442300
2.669600 36.991400
2.679800 37.150400
2.690000 36.871600
2.700200 36.226400
2.710400 35.305200
2.720500 34.121700
2.730700 32.574200
2.740900 30.497400
2.751100 27.781400
2.761300 24.486100
2.771500 20.873900
2.781700 17.330100
2.791900 14.218500
2.802000 11.759600
2.812200 10.000600
2.822400 8.883700
2.832600 8.352500
2.842800 8.420200
2.853000 9.149400
2.863200 10.552800
2.873400 12.480200
2.883500 14.566500
2.893700 16.292500
2.903900 17.144200
2.914100 16.800900
2.924300 15.257800
2.934500 12.827200
2.944700 10.023100
2.954900 7.397900
2.965000 5.408700
2.975200 4.355300
2.985400 4.382000
2.995600 5.498000
3.005800 7.582200
3.016000 10.371300
3.026200 13.464200
3.036400 16.381200
3.046500 18.679300
3.056700 20.077900
3.066900 20.525100
3.077100 20.162800
3.087300 19.211900
3.097500 17.850700
3.107700 16.162100
3.117900 14.167300
3.128100 11.905900
3.138200 9.494900
3.148400 7.125400
3.158600 5.007400
3.168800 3.305900
3.179000 2.108100
3.189200 1.437200
3.199400 1.296100
3.209600 1.712100
3.219700 2.755400
3.229900 4.515600
3.240100 7.037300
3.250300 10.234300
3.260500 13.822000
3.270700 17.311300
3.280900 20.093800
3.291100 21.605100
3.301200 21.508300
3.311400 19.815400
3.321600 16.886400
3.331800 13.304700
3.342000 9.687400
3.352200 6.515700
3.362400 4.046700
3.372600 2.320100
3.382700 1.228100
3.392900 0.601700
3.403100 0.277900
3.413300 0.134500
3.423500 0.099300
3.433700 0.144800
3.443900 0.279500
3.454100 0.537300
3.464300 0.965600
3.474400 1.608100
3.484600 2.484600
3.494800 3.577000
3.505000 4.833700
3.515200 6.195300
3.525400 7.634700
3.535600 9.178900
3.545800 10.887200
3.555900 12.779200
3.566100 14.746600
3.576300 16.512000
3.586500 17.679800
3.596700 17.876700
3.606900 16.913400
3.617100 14.881500
3.627300 12.132200
3.637400 9.151300
3.647600 6.401600
3.657800 4.211600
3.668000 2.749700
3.678200 2.073200
3.688400 2.206100
3.698600 3.191300
3.708800 5.083000
3.718900 7.876100
3.729100 11.404400
3.739300 15.266200
3.749500 18.841400
3.759700 21.425000
3.769900 22.443000
3.780100 21.655600
3.790300 19.247900
3.800400 15.758600
3.810600 11.884100
3.820800 8.255200
3.831000 5.282000
3.841200 3.112900
3.851400 1.689800
3.861600 0.844900
3.871800 0.389100
3.882000 0.165100
3.892100 0.064500
3.902300 0.023200
3.912500 0.007700
3.922700 0.002300
3.932900 0.000700
3.943100 0.000200
3.953300 0.000000
3.963500 0.000000
3.973600 0.000000
3.983800 0.000000
3.994000 0.000000
4.004200 0.000000
4.014400 0.000000
4.024600 0.000000
4.034800 0.000000
4.045000 0.000000
4.055100 0.000000
4.065300 0.000000
4.075500 0.000000
4.085700 0.000000
4.095900 0.000000
4.106100 0.000000
4.116300 0.000000
4.126500 0.000000
4.136600 0.000000
4.146800 0.000000
4.157000 0.000000
4.167200 0.000000
4.177400 0.000000
4.187600 0.000000
4.197800 0.000000
4.208000 0.000000
4.218100 0.000000
4.228300 0.000000
4.238500 0.000000
4.248700 0.000000
4.258900 0.000000
4.269100 0.000000
4.279300 0.000000
4.289500 0.000000
4.299700 0.000000
4.309800 0.000000
4.320000 0.000000
4.330200 0.000000
4.340400 0.000000
4.350600 0.000000
4.360800 0.000000
4.371000 0.000000
4.381200 0.000000
4.391300 0.000000
4.401500 0.000000
4.411700 0.000000
4.421900 0.000000
4.432100 0.000000
4.442300 0.000000
4.452500 0.000000
4.462700 0.000000
4.472800 0.000000
4.483000 0.000000
4.493200 0.000000
4.503400 0.000000
4.513600 0.000000
4.523800 0.000000
4.534000 0.000000
4.544200 0.000000
4.554300 0.000000
4.564500 0.000000
4.574700 0.000000
4.584900 0.000000
4.595100 0.000000
4.605300 0.000000
4.615500 0.000000
4.625700 0.000000
4.635900 0.000000
4.646000 0.000000
4.656200 0.000000
4.666400 0.000000
4.676600 0.000000
4.686800 0.000000
4.697000 0.000000
4.707200 0.000000
4.717400 0.000000
4.727500 0.000000
4.737700 0.000000
4.747900 0.000000
4.758100 0.000000
4.768300 0.000000
4.778500 0.000000
4.788700 0.000000
4.798900 0.000000
4.809000 0.000000
4.819200 0.000000
4.829400 0.000000
4.839600 0.000000
4.849800 0.000000
4.860000 0.000000
4.870200 0.000000
4.880400 0.000000
4.890500 0.000000
4.900700 0.000000
4.910900 0.000000
4.921100 0.000000
4.931300 0.000000
4.941500 0.000000
4.951700 0.000000
4.961900 0.000000
4.972000 0.000000
4.982200 0.000000
4.992400 0.000100
5.002600 0.000400
5.012800 0.001400
5.023000 0.004400
5.033200 0.012400
5.043400 0.032600
5.053600 0.078600
5.063700 0.174600
5.073900 0.357200
5.084100 0.672900
5.094300 1.167600
5.104500 1.866600
5.114700 2.751500
5.124900 3.744700
5.135100 4.718800
5.145200 5.537800
5.155400 6.121700
5.165600 6.507000
5.175800 6.867200
5.186000 7.468000
5.196200 8.560400
5.206400 10.249200
5.216600 12.396800
5.226700 14.618600
5.236900 16.394100
5.247100 17.260000
5.257300 17.006300
5.267500 15.785400
5.277700 14.078100
5.287900 12.527900
5.298100 11.709600
5.308200 11.923700
5.318400 13.087900
5.328600 14.764000
5.338800 16.309000
5.349000 17.098100
5.359200 16.736800
5.369400 15.180800
5.379600 12.717700
5.389700 9.834300
5.399900 7.039200
5.410100 4.724200
5.420300 3.115100
5.430500 2.305000
5.440700 2.329600
5.450900 3.226000
5.461100 5.038300
5.471300 7.762500
5.481400 11.257900
5.491600 15.179300
5.501800 18.985800
5.512000 22.052300
5.522200 23.852100
5.532400 24.130700
5.542600 22.986400
5.552800 20.814900
5.562900 18.154400
5.573100 15.508200
5.583300 13.220600
5.593500 11.436500
5.603700 10.128500
5.613900 9.159800
5.624100 8.358600
5.634300 7.590300
5.644400 6.818100
5.654600 6.135100
5.664800 5.754700
5.675000 5.954000
5.685200 6.982600
5.695400 8.962900
5.705600 11.817000
5.715800 15.256400
5.725900 18.855300
5.736100 22.191700
5.746300 24.999900
5.756500 27.251800
5.766700 29.110200
5.776900 30.768100
5.787100 32.261400
5.797300 33.373800
5.807400 33.705900
5.817600 32.882300
5.827800 30.783500
5.838000 27.673100
5.848200 24.154700
5.858400 20.992900
5.868600 18.896700
5.878800 18.354100
5.889000 19.545800
5.899100 22.319100
5.909300 26.199300
5.919500 30.449800
5.929700 34.214800
5.939900 36.740900
5.950100 37.605200
5.960300 36.836200
5.970500 34.847900
5.980600 32.218500
5.990800 29.442500
6.001000 26.804100
6.011200 24.434800
6.021400 22.489700
6.031600 21.294800
6.041800 21.336800
6.052000 23.065700
6.062100 26.602200
6.072300 31.512100
6.082500 36.793400
6.092700 41.124200
6.102900 43.285800
6.113100 42.578600
6.123300 39.044200
6.133500 33.408200
6.143600 26.799000
6.153800 20.394400
6.164000 15.146000
6.174200 11.650400
6.184400 10.142800
6.194600 10.541200
6.204800 12.489100
6.215000 15.396400
6.225200 18.514200
6.235300 21.080400
6.245500 22.518200
6.255700 22.622400
6.265900 21.640200
6.276100 20.188300
6.286300 19.019200
6.296500 18.721800
6.306700 19.477900
6.316800 20.979700
6.327000 22.548600
6.337200 23.412500
6.347400 23.027600
6.357600 21.309800
6.367800 18.689200
6.378000 15.979400
6.388200 14.134800
6.398300 13.985800
6.408500 16.021700
6.418700 20.245500
6.428900 26.118400
6.439100 32.614700
6.449300 38.415400
6.459500 42.227200
6.469700 43.143300
6.479800 40.914300
6.490000 36.012800
6.500200 29.463200
6.510400 22.518900
6.520600 16.329500
6.530800 11.720300
6.541000 9.124200
6.551200 8.622700
6.561300 10.017300
6.571500 12.883200
6.581700 16.613900
6.591900 20.502600
6.602100 23.888400
6.612300 26.331800
6.622500 27.730600
6.632700 28.293600
6.642900 28.366200
6.653000 28.199900
6.663200 27.805300
6.673400 26.979600
6.683600 25.489200
6.693800 23.293000
6.704000 20.673600
6.714200 18.210600
6.724400 16.627900
6.734500 16.596600
6.744700 18.569600
6.754900 22.668400
6.765100 28.614200
6.775300 35.702400
6.785500 42.861200
6.795700 48.843000
6.805900 52.540600
6.816000 53.331300
6.826200 51.284600
6.836400 47.112000
6.846600 41.866000
6.856800 36.539500
6.867000 31.771600
6.877200 27.792000
6.887400 24.584600
6.897500 22.125700
6.907700 20.529700
6.917900 20.020600
6.928100 20.767500
6.938300 22.706000
6.948500 25.469600
6.958700 28.486700
6.968900 31.199200
6.979000 33.290000
6.989200 34.789500
6.999400 35.998700
7.009600 37.264300
7.019800 38.737000
7.030000 40.250700
7.040200 41.394900
7.050400 41.733500
7.060600 41.041600
7.070700 39.428900
7.080900 37.297200
7.091100 35.173100
7.101300 33.521100
7.111500 32.622900
7.121700 32.543400
7.131900 33.144000
7.142100 34.099900
7.152200 34.922500
7.162400 35.034800
7.172600 33.929300
7.182800 31.372100
7.193000 27.550400
7.203200 23.069000
7.213400 18.773100
7.223600 15.471900
7.233700 13.677200
7.243900 13.455400
7.254100 14.435000
7.264300 15.956500
7.274500 17.314100
7.284700 18.011400
7.294900 17.940200
7.305100 17.411200
7.315200 17.017000
7.325400 17.378700
7.335600 18.883500
7.345800 21.524500
7.356000 24.909000
7.366200 28.418300
7.376400 31.433600
7.386600 33.515400
7.396800 34.466700
7.406900 34.286600
7.417100 33.084900
7.427300 31.032400
7.437500 28.370400
7.447700 25.440400
7.457900 22.680000
7.468100 20.555700
7.478300 19.456100
7.488400 19.590100
7.498600 20.926800
7.508800 23.190600
7.519000 25.911000
7.529200 28.514700
7.539400 30.448700
7.549600 31.312200
7.559800 30.968800
7.569900 29.607000
7.580100 27.719500
7.590300 25.990900
7.600500 25.106700
7.610700 25.540000
7.620900 27.387900
7.631100 30.327800
7.641300 33.713800
7.651400 36.775800
7.661600 38.838700
7.671800 39.477800
7.682000 38.568600
7.692200 36.247200
7.702400 32.838100
7.712600 28.797100
7.722800 24.678200
7.732900 21.091500
7.743100 18.618300
7.753300 17.682000
7.763500 18.420700
7.773700 20.622100
7.783900 23.760400
7.794100 27.127400
7.804300 30.009000
7.814500 31.850600
7.824600 32.368900
7.834800 31.601100
7.845000 29.895300
7.855200 27.846000
7.865400 26.171100
7.875600 25.533300
7.885800 26.334200
7.896000 28.545500
7.906100 31.654100
7.916300 34.774600
7.926500 36.914900
7.936700 37.301600
7.946900 35.639400
7.957100 32.201900
7.967300 27.735800
7.977500 23.239900
7.987600 19.709700
7.997800 17.919700
8.008000 18.268800
8.018200 20.695800
8.028400 24.678400
8.038600 29.341300
8.048800 33.679200
8.059000 36.841300
8.069100 38.371900
8.079300 38.299500
8.089500 37.042300
8.099700 35.191100
8.109900 33.291400
8.120100 31.716200
8.130300 30.642800
8.140500 30.084500
8.150600 29.927500
8.160800 29.967800
8.171000 29.970200
8.181200 29.755100
8.191400 29.270900
8.201600 28.596600
8.211800 27.857800
8.222000 27.108100
8.232200 26.258300
8.242300 25.107400
8.252500 23.456300
8.262700 21.233800
8.272900 18.566400
8.283100 15.766400
8.293300 13.261500
8.303500 11.501000
8.313700 10.865100
8.323800 11.584700
8.334000 13.679200
8.344200 16.927500
8.354400 20.889700
8.364600 24.982900
8.374800 28.591100
8.385000 31.171500
8.395200 32.334100
8.405300 31.889400
8.415500 29.871300
8.425700 26.542200
8.435900 22.369500
8.446100 17.968500
8.456300 14.017300
8.466500 11.169300
8.476700 9.985000
8.486800 10.878200
8.497000 14.056500
8.507200 19.436000
8.517400 26.552000
8.527600 34.527200
8.537800 42.169000
8.548000 48.217400
8.558200 51.681100
8.568400 52.129300
8.578500 49.809900
8.588700 45.542700
8.598900 40.444100
8.609100 35.609000
8.619300 31.860400
8.629500 29.621300
8.639700 28.895400
8.649900 29.329400
8.660000 30.335200
8.670200 31.256500
8.680400 31.548400
8.690600 30.910800
8.700800 29.323400
8.711000 26.972600
8.721200 24.121100
8.731400 20.996700
8.741500 17.755800
8.751700 14.516900
8.761900 11.417700
8.772100 8.646300
8.782300 6.427700
8.792500 4.984000
8.802700 4.491700
8.812900 5.047200
8.823000 6.636300
8.833200 9.106300
8.843400 12.159100
8.853600 15.394400
8.863800 18.412400
8.874000 20.940300
8.884200 22.909600
8.894400 24.421900
8.904500 25.608400
8.914700 26.465800
8.924900 26.783800
8.935100 26.226700
8.945300 24.528600
8.955500 21.686100
8.965700 18.033600
8.975900 14.165300
8.986100 10.762200
8.996200 8.418400
9.006400 7.535900
9.016600 8.297100
9.026800 10.680400
9.037000 14.482600
9.047200 19.338100
9.057400 24.744300
9.067600 30.106600
9.077700 34.812700
9.087900 38.333300
9.098100 40.346000
9.108300 40.853900
9.118500 40.243500
9.128700 39.214300
9.138900 38.553200
9.149100 38.817500
9.159200 40.071900
9.169400 41.830000
9.179600 43.257100
9.189800 43.544600
9.200000 42.267400
9.210200 39.547600
9.220400 35.962100
9.230600 32.273600
9.240700 29.134000
9.250900 26.887200
9.261100 25.519500
9.271300 24.728500
9.281500 24.060700
9.291700 23.073200
9.301900 21.481600
9.312100 19.253500
9.322200 16.609200
9.332400 13.922100
9.342600 11.560700
9.352800 9.748400
9.363000 8.509200
9.373200 7.718600
9.383400 7.224300
9.393600 6.966300
9.403800 7.033600
9.413900 7.628700
9.424100 8.956500
9.434300 11.088200
9.444500 13.866700
9.454700 16.904400
9.464900 19.691700
9.475100 21.779700
9.485300 22.958600
9.495400 23.343700
9.505600 23.317400
9.515800 23.340800
9.526000 23.720000
9.536200 24.440800
9.546400 25.158700
9.556600 25.358400
9.566800 24.609900
9.576900 22.795300
9.587100 20.199900
9.597300 17.431600
9.607500 15.223800
9.617700 14.220200
9.627900 14.824300
9.638100 17.137000
9.648300 20.956200
9.658400 25.799900
9.668600 30.944700
9.678800 35.506100
9.689000 38.589900
9.699200 39.506600
9.709400 37.982400
9.719600 34.276500
9.729800 29.135000
9.739900 23.592600
9.750100 18.697600
9.760300 15.271300
9.770500 13.774500
9.780700 14.293500
9.790900 16.603800
9.801100 20.254600
9.811300 24.643600
9.821500 29.084300
9.831600 32.885000
9.841800 35.448300
9.852000 36.374100
9.862200 35.539900
9.872400 33.133000
9.882600 29.625400
9.892800 25.692100
9.903000 22.082900
9.913100 19.468200
9.923300 18.297400
9.933500 18.712300
9.943700 20.546300
9.953900 23.402500
9.964100 26.772200
9.974300 30.144500
9.984500 33.074200
9.994600 35.204700
10.004800 36.267400
10.015000 36.083800
10.025200 34.586900
10.035400 31.860300
10.045600 28.174600
10.055800 23.991000
10.066000 19.909900
10.076100 16.561300
10.086300 14.465100
10.096500 13.905400
10.106700 14.857100
10.116900 16.985700
10.127100 19.721100
10.137300 22.388900
10.147500 24.374700
10.157700 25.282100
10.167800 25.038500
10.178000 23.904400
10.188200 22.371400
10.198400 20.974100
10.208600 20.082800
10.218800 19.759000
10.229000 19.739900
10.239200 19.562500
10.249300 18.776000
10.259500 17.145200
10.269700 14.755200
10.279900 11.980400
10.290100 9.350500
10.300300 7.386100
10.310500 6.468700
10.320700 6.766100
10.330800 8.204000
10.341000 10.467600
10.351200 13.041000
10.361400 15.300900
10.371600 16.666600
10.381800 16.765600
10.392000 15.546100
10.402200 13.279100
10.412300 10.446200
10.422500 7.567500
10.432700 5.048300
10.442900 3.101100
10.453100 1.754200
10.463300 0.913700
10.473500 0.438300
10.483700 0.193600
10.493800 0.078700
10.504000 0.029500
10.514200 0.010200
10.524400 0.003200
10.534600 0.000900
10.544800 0.000300
10.555000 0.000100
10.565200 0.000000
10.575400 0.000000
10.585500 0.000000
10.595700 0.000000
10.605900 0.000000
10.616100 0.000000
10.626300 0.000000
10.636500 0.000000
10.646700 0.000000
10.656900 0.000000
10.667000 0.000000
10.677200 0.000000
10.687400 0.000000
10.697600 0.000000
10.707800 0.000000
10.718000 0.000000
10.728200 0.000000
10.738400 0.000000
10.748500 0.000000
10.758700 0.000000
10.768900 0.000000
10.779100 0.000000
10.789300 0.000000
10.799500 0.000000
10.809700 0.000000
10.819900 0.000000
10.830000 0.000000
10.840200 0.000000
10.850400 0.000000
10.860600 0.000000
10.870800 0.000000
10.881000 0.000000
10.891200 0.000000
10.901400 0.000000
10.911500 0.000000
10.921700 0.000000
10.931900 0.000000
10.942100 0.000000
10.952300 0.000000
10.962500 0.000000
10.972700 0.000000
10.982900 0.000000
10.993100 0.000000
11.003200 0.000000
11.013400 0.000000
11.023600 0.000000
11.033800 0.000000
11.044000 0.000000
11.054200 0.000000
11.064400 0.000000
11.074600 0.000000
11.084700 0.000000
11.094900 0.000000
11.105100 0.000000
11.115300 0.000000
11.125500 0.000000
11.135700 0.000000
11.145900 0.000000
11.156100 0.000000
11.166200 0.000000
11.176400 0.000000
11.186600 0.000000
11.196800 0.000000
11.207000 0.000000
11.217200 0.000000
11.227400 0.000000
11.237600 0.000000
11.247700 0.000000
11.257900 0.000000
11.268100 0.000000
11.278300 0.000000
11.288500 0.000000
11.298700 0.000000
e
