set title 'mp-1223819 - Density of States'
set xlabel 'Energy (eV)'
set ylabel 'DOS (states/eV)'
set grid
set xrange [-10:10]
set yrange [0:36.974]
set xzeroaxis lt -1
set terminal png size 800,600
set output 'mp-1223819_dos_gnuplot.png'
plot '-' using 1:2 with lines title 'DOS'
-13.025300 0.000000
-13.001400 0.000000
-12.977400 0.000000
-12.953400 0.000000
-12.929400 0.000000
-12.905500 0.000000
-12.881500 0.000000
-12.857500 0.000000
-12.833500 0.000000
-12.809500 0.000000
-12.785600 0.000000
-12.761600 0.000000
-12.737600 0.000000
-12.713600 0.000000
-12.689700 0.000000
-12.665700 0.000000
-12.641700 0.000000
-12.617700 0.000000
-12.593700 0.000000
-12.569800 0.000000
-12.545800 0.000000
-12.521800 0.000000
-12.497800 0.000000
-12.473800 0.000000
-12.449900 0.000000
-12.425900 0.000000
-12.401900 0.000000
-12.377900 0.000000
-12.354000 0.000000
-12.330000 0.000000
-12.306000 0.000000
-12.282000 0.000000
-12.258000 0.000000
-12.234100 0.000000
-12.210100 0.000000
-12.186100 0.000000
-12.162100 0.000000
-12.138200 0.000000
-12.114200 0.000000
-12.090200 0.000000
-12.066200 0.000000
-12.042200 0.000000
-12.018300 0.000000
-11.994300 0.000000
-11.970300 0.000000
-11.946300 0.000000
-11.922400 0.000000
-11.898400 0.000000
-11.874400 0.000000
-11.850400 0.000000
-11.826400 0.000000
-11.802500 0.000000
-11.778500 0.000000
-11.754500 0.000000
-11.730500 0.000000
-11.706600 0.000000
-11.682600 0.000000
-11.658600 0.000000
-11.634600 0.000000
-11.610600 0.000000
-11.586700 0.000000
-11.562700 0.000000
-11.538700 0.000000
-11.514700 0.000000
-11.490800 0.000000
-11.466800 0.000000
-11.442800 0.000000
-11.418800 0.000000
-11.394800 0.000000
-11.370900 0.000000
-11.346900 0.000000
-11.322900 0.000000
-11.298900 0.000000
-11.275000 0.000000
-11.251000 0.000000
-11.227000 0.000000
-11.203000 0.000000
-11.179000 0.000000
-11.155100 0.000000
-11.131100 0.000000
-11.107100 0.000000
-11.083100 0.000000
-11.059200 0.000000
-11.035200 0.000000
-11.011200 0.000000
-10.987200 0.000000
-10.963200 0.000000
-10.939300 0.000000
-10.915300 0.000000
-10.891300 0.000000
-10.867300 0.000000
-10.843400 0.338100
-10.819400 4.063900
-10.795400 5.272200
-10.771400 5.151000
-10.747400 5.521800
-10.723500 5.737800
-10.699500 6.475800
-10.675500 7.213700
-10.651500 13.635100
-10.627600 14.953400
-10.603600 6.363000
-10.579600 2.104900
-10.555600 7.456400
-10.531600 16.443700
-10.507700 16.411400
-10.483700 21.816100
-10.459700 20.573900
-10.435700 8.670600
-10.411800 2.904500
-10.387800 5.472300
-10.363800 15.171400
-10.339800 11.778900
-10.315800 12.119300
-10.291900 19.635700
-10.267900 22.559300
-10.243900 28.029100
-10.219900 27.389100
-10.196000 23.214300
-10.172000 23.794600
-10.148000 6.635900
-10.124000 6.824600
-10.100000 9.054600
-10.076100 7.691300
-10.052100 6.470600
-10.028100 5.249900
-10.004100 4.331500
-9.980200 1.611600
-9.956200 0.000000
-9.932200 0.000000
-9.908200 0.000000
-9.884200 0.000000
-9.860300 0.000000
-9.836300 0.000000
-9.812300 0.000000
-9.788300 0.000000
-9.764400 0.000000
-9.740400 0.000000
-9.716400 0.000000
-9.692400 0.000000
-9.668400 0.000000
-9.644500 0.000000
-9.620500 0.000000
-9.596500 0.000000
-9.572500 0.000000
-9.548600 0.000000
-9.524600 0.000000
-9.500600 0.000000
-9.476600 0.000000
-9.452600 0.000000
-9.428700 0.000000
-9.404700 0.000000
-9.380700 0.000000
-9.356700 0.000000
-9.332800 0.000000
-9.308800 0.000000
-9.284800 0.000000
-9.260800 0.000000
-9.236800 0.000000
-9.212900 0.000000
-9.188900 0.000000
-9.164900 0.000000
-9.140900 0.000000
-9.117000 0.000000
-9.093000 0.000000
-9.069000 0.000000
-9.045000 0.000000
-9.021000 0.000000
-8.997100 0.000000
-8.973100 0.000000
-8.949100 0.000000
-8.925100 0.000000
-8.901100 0.000000
-8.877200 0.000000
-8.853200 0.000000
-8.829200 0.000000
-8.805200 0.000000
-8.781300 0.000000
-8.757300 0.000000
-8.733300 0.000000
-8.709300 0.000000
-8.685300 0.000000
-8.661400 0.000000
-8.637400 0.000000
-8.613400 0.000000
-8.589400 0.000000
-8.565500 0.000000
-8.541500 0.000000
-8.517500 0.000000
-8.493500 0.000000
-8.469500 0.000000
-8.445600 0.000000
-8.421600 0.000000
-8.397600 0.000000
-8.373600 0.000000
-8.349700 0.000000
-8.325700 0.000000
-8.301700 0.000000
-8.277700 0.000000
-8.253700 0.000000
-8.229800 0.000000
-8.205800 0.000000
-8.181800 0.000000
-8.157800 0.000000
-8.133900 0.000000
-8.109900 0.000000
-8.085900 0.000000
-8.061900 0.000000
-8.037900 0.000000
-8.014000 0.000000
-7.990000 0.000000
-7.966000 0.000000
-7.942000 0.000000
-7.918100 0.000000
-7.894100 0.000000
-7.870100 0.000000
-7.846100 0.000000
-7.822100 0.000000
-7.798200 0.000000
-7.774200 0.000000
-7.750200 0.000000
-7.726200 0.000000
-7.702300 0.000000
-7.678300 0.000000
-7.654300 0.000000
-7.630300 0.000000
-7.606300 0.000000
-7.582400 0.000000
-7.558400 0.000000
-7.534400 0.000000
-7.510400 0.000000
-7.486500 0.000000
-7.462500 0.000000
-7.438500 0.000000
-7.414500 0.000000
-7.390500 0.000000
-7.366600 0.000000
-7.342600 0.000000
-7.318600 0.000000
-7.294600 0.000000
-7.270700 0.000000
-7.246700 0.000000
-7.222700 0.000000
-7.198700 0.000000
-7.174700 0.000000
-7.150800 0.000000
-7.126800 0.000000
-7.102800 0.000000
-7.078800 0.000000
-7.054900 0.000000
-7.030900 0.000000
-7.006900 0.000000
-6.982900 0.000000
-6.958900 0.000000
-6.935000 0.000000
-6.911000 0.000000
-6.887000 0.000000
-6.863000 0.000000
-6.839100 0.000000
-6.815100 0.000000
-6.791100 0.000000
-6.767100 0.000000
-6.743100 0.000000
-6.719200 0.000000
-6.695200 0.000000
-6.671200 0.000000
-6.647200 0.000000
-6.623300 0.000000
-6.599300 0.000000
-6.575300 0.000000
-6.551300 0.000000
-6.527300 0.000000
-6.503400 0.000000
-6.479400 0.000000
-6.455400 0.000000
-6.431400 0.000000
-6.407500 0.000000
-6.383500 0.000000
-6.359500 0.000000
-6.335500 0.000000
-6.311500 0.000000
-6.287600 0.000000
-6.263600 0.000000
-6.239600 0.000000
-6.215600 0.000000
-6.191700 0.000000
-6.167700 0.000000
-6.143700 0.000000
-6.119700 0.000000
-6.095700 0.000000
-6.071800 0.000000
-6.047800 0.000000
-6.023800 0.000000
-5.999800 0.000000
-5.975900 0.000000
-5.951900 0.000000
-5.927900 0.000000
-5.903900 0.000000
-5.879900 0.000000
-5.856000 0.000000
-5.832000 0.000000
-5.808000 0.000000
-5.784000 0.000000
-5.760100 0.000000
-5.736100 0.000000
-5.712100 0.000000
-5.688100 0.000000
-5.664100 0.000000
-5.640200 0.000000
-5.616200 0.000000
-5.592200 0.000000
-5.568200 0.000000
-5.544300 0.000000
-5.520300 0.000000
-5.496300 0.000000
-5.472300 0.000000
-5.448300 0.000000
-5.424400 0.000000
-5.400400 0.000000
-5.376400 0.000000
-5.352400 0.000000
-5.328400 0.000000
-5.304500 0.000000
-5.280500 0.000000
-5.256500 0.000000
-5.232500 0.000000
-5.208600 0.000000
-5.184600 0.000000
-5.160600 0.000000
-5.136600 0.000000
-5.112600 0.000000
-5.088700 0.000000
-5.064700 0.029100
-5.040700 0.092500
-5.016700 0.155800
-4.992800 0.219200
-4.968800 0.282500
-4.944800 0.345900
-4.920800 0.409200
-4.896800 0.472600
-4.872900 0.535900
-4.848900 0.282400
-4.824900 0.287600
-4.800900 0.292800
-4.777000 0.298000
-4.753000 0.303300
-4.729000 0.308500
-4.705000 0.313700
-4.681000 0.318900
-4.657100 0.324100
-4.633100 0.329300
-4.609100 0.334500
-4.585100 0.339800
-4.561200 0.345000
-4.537200 0.350200
-4.513200 0.355400
-4.489200 0.360600
-4.465200 0.365800
-4.441300 0.371000
-4.417300 0.368600
-4.393300 0.362100
-4.369300 0.355700
-4.345400 0.349200
-4.321400 0.342800
-4.297400 0.336400
-4.273400 0.329900
-4.249400 0.323500
-4.225500 0.317000
-4.201500 0.316700
-4.177500 0.318700
-4.153500 0.320600
-4.129600 0.322600
-4.105600 0.324600
-4.081600 0.326600
-4.057600 0.328500
-4.033600 0.330500
-4.009700 0.332500
-3.985700 0.334500
-3.961700 0.336500
-3.937700 0.338400
-3.913800 0.340400
-3.889800 0.342400
-3.865800 0.344400
-3.841800 0.346300
-3.817800 0.348300
-3.793900 0.350300
-3.769900 0.352300
-3.745900 0.354200
-3.721900 0.356200
-3.698000 0.358200
-3.674000 0.360200
-3.650000 0.362200
-3.626000 0.364100
-3.602000 0.366100
-3.578100 0.368100
-3.554100 0.346500
-3.530100 0.347000
-3.506100 0.347500
-3.482200 0.348000
-3.458200 0.348500
-3.434200 0.349000
-3.410200 0.349500
-3.386200 0.350000
-3.362300 0.350500
-3.338300 0.351000
-3.314300 0.351600
-3.290300 0.352100
-3.266400 0.352600
-3.242400 0.353100
-3.218400 0.353600
-3.194400 0.354100
-3.170400 0.354600
-3.146500 0.356200
-3.122500 0.358100
-3.098500 0.360000
-3.074500 0.361800
-3.050600 0.363700
-3.026600 0.365500
-3.002600 0.367400
-2.978600 0.369300
-2.954600 0.371100
-2.930700 0.373000
-2.906700 0.374800
-2.882700 0.376700
-2.858700 0.378600
-2.834800 0.380400
-2.810800 0.382300
-2.786800 0.384100
-2.762800 0.386000
-2.738800 0.387900
-2.714900 0.389700
-2.690900 0.391600
-2.666900 0.393400
-2.642900 0.395300
-2.619000 0.397200
-2.595000 0.399000
-2.571000 0.400900
-2.547000 0.405000
-2.523000 0.415200
-2.499100 0.433200
-2.475100 0.456000
-2.451100 0.482000
-2.427100 0.511100
-2.403200 0.543100
-2.379200 0.577800
-2.355200 0.615200
-2.331200 0.654800
-2.307200 0.696600
-2.283300 0.707700
-2.259300 0.717400
-2.235300 0.733500
-2.211300 0.752400
-2.187400 0.776300
-2.163400 0.800600
-2.139400 0.823600
-2.115400 0.846000
-2.091400 0.867100
-2.067500 0.886600
-2.043500 0.904500
-2.019500 0.918100
-1.995500 0.925700
-1.971600 0.927500
-1.947600 0.945900
-1.923600 0.979500
-1.899600 1.015100
-1.875600 1.052300
-1.851700 1.090900
-1.827700 1.131300
-1.803700 1.174000
-1.779700 1.218900
-1.755800 1.258800
-1.731800 1.295100
-1.707800 1.333900
-1.683800 1.375000
-1.659800 1.418300
-1.635900 1.466200
-1.611900 1.518200
-1.587900 1.575800
-1.563900 1.636400
-1.539900 1.779700
-1.516000 3.331300
-1.492000 3.061100
-1.468000 2.874800
-1.444000 2.740500
-1.420100 3.006400
-1.396100 3.855000
-1.372100 5.199500
-1.348100 6.522500
-1.324100 7.876100
-1.300200 8.499900
-1.276200 9.151900
-1.252200 10.344700
-1.228200 12.330000
-1.204300 13.052300
-1.180300 12.349700
-1.156300 13.125800
-1.132300 16.332900
-1.108300 18.251600
-1.084400 18.771200
-1.060400 16.838700
-1.036400 18.332600
-1.012400 19.802800
-0.988500 22.048700
-0.964500 19.402500
-0.940500 15.996400
-0.916500 14.396500
-0.892500 14.371500
-0.868600 13.706400
-0.844600 14.684400
-0.820600 11.921500
-0.796600 11.704800
-0.772700 7.552100
-0.748700 7.952900
-0.724700 11.352300
-0.700700 15.424100
-0.676700 10.058800
-0.652800 8.762200
-0.628800 9.765000
-0.604800 11.844700
-0.580800 11.178600
-0.556900 10.500800
-0.532900 9.254500
-0.508900 11.204700
-0.484900 8.196300
-0.460900 17.690000
-0.437000 16.156300
-0.413000 13.484400
-0.389000 13.843200
-0.365000 11.045600
-0.341100 14.539300
-0.317100 13.529100
-0.293100 14.443500
-0.269100 15.064400
-0.245100 14.029800
-0.221200 21.336800
-0.197200 25.681900
-0.173200 25.327300
-0.149200 25.967400
-0.125300 16.069500
-0.101300 33.613100
-0.077300 20.402900
-0.053300 10.562900
-0.029300 12.674000
-0.005400 15.106500
0.018600 16.644300
0.042600 16.565400
0.066600 20.381200
0.090500 18.478600
0.114500 13.260100
0.138500 12.572000
0.162500 14.100100
0.186500 16.764700
0.210400 16.182800
0.234400 16.286600
0.258400 14.056900
0.282400 12.336500
0.306300 8.578300
0.330300 8.256700
0.354300 8.527300
0.378300 10.093900
0.402300 13.465600
0.426200 13.567600
0.450200 13.824700
0.474200 17.543000
0.498200 17.710100
0.522100 16.541400
0.546100 16.298100
0.570100 15.679800
0.594100 15.129000
0.618100 17.051700
0.642000 23.851100
0.666000 12.412900
0.690000 12.135300
0.714000 13.878200
0.737900 18.534700
0.761900 13.584600
0.785900 15.102100
0.809900 14.787900
0.833900 15.404900
0.857800 14.932700
0.881800 12.769400
0.905800 13.342700
0.929800 13.941000
0.953700 13.873900
0.977700 14.147200
1.001700 14.098900
1.025700 13.596000
1.049700 14.284200
1.073600 12.466800
1.097600 12.019800
1.121600 11.799800
1.145600 12.211100
1.169500 10.188700
1.193500 11.217200
1.217500 20.534300
1.241500 16.132700
1.265500 8.861400
1.289400 12.083500
1.313400 12.021800
1.337400 9.312000
1.361400 17.292400
1.385300 13.071400
1.409300 8.669000
1.433300 3.939300
1.457300 3.302000
1.481300 2.725100
1.505200 2.686000
1.529200 2.651100
1.553200 2.638500
1.577200 2.630700
1.601100 2.624400
1.625100 2.416400
1.649100 2.195100
1.673100 2.074000
1.697100 1.965100
1.721000 2.020700
1.745000 2.092600
1.769000 2.189900
1.793000 2.149900
1.816900 2.089900
1.840900 2.032200
1.864900 1.975100
1.888900 1.918500
1.912900 1.862200
1.936800 1.806300
1.960800 1.750400
1.984800 1.694600
2.008800 1.638700
2.032800 1.539700
2.056700 1.479200
2.080700 1.440500
2.104700 1.408200
2.128700 1.389000
2.152600 1.378200
2.176600 1.369000
2.200600 1.368200
2.224600 1.377200
2.248600 1.398100
2.272500 1.421300
2.296500 1.440800
2.320500 1.460600
2.344500 1.481100
2.368400 1.502200
2.392400 1.523000
2.416400 1.538300
2.440400 1.543800
2.464400 1.552000
2.488300 1.557700
2.512300 1.561600
2.536300 1.563800
2.560300 1.564400
2.584200 1.563500
2.608200 2.766500
2.632200 2.330200
2.656200 2.078400
2.680200 1.825300
2.704100 1.570800
2.728100 1.364000
2.752100 1.287100
2.776100 1.278000
2.800000 1.274500
2.824000 1.302600
2.848000 1.337000
2.872000 1.371700
2.896000 1.406600
2.919900 1.441700
2.943900 1.476900
2.967900 1.512400
2.991900 1.547900
3.015800 1.583600
3.039800 1.619400
3.063800 1.655400
3.087800 1.691600
3.111800 1.728100
3.135700 1.764800
3.159700 1.683600
3.183700 1.615600
3.207700 1.549900
3.231600 1.434600
3.255600 1.387500
3.279600 1.371900
3.303600 1.357400
3.327600 1.344000
3.351500 1.331900
3.375500 1.320300
3.399500 1.309000
3.423500 1.297900
3.447400 1.286800
3.471400 1.275900
3.495400 1.264900
3.519400 1.254900
3.543400 1.264200
3.567300 1.270000
3.591300 1.274200
3.615300 1.279600
3.639300 1.285700
3.663200 1.291000
3.687200 1.295400
3.711200 1.299000
3.735200 1.302100
3.759200 1.305200
3.783100 1.308400
3.807100 1.311800
3.831100 1.315400
3.855100 1.333800
3.879000 1.384200
3.903000 1.432200
3.927000 1.472700
3.951000 1.525700
3.975000 1.594000
3.998900 1.617800
4.022900 1.616300
4.046900 1.594500
4.070900 1.549300
4.094800 1.450700
4.118800 1.352600
4.142800 1.294600
4.166800 1.258700
4.190800 1.230900
4.214700 1.212600
4.238700 1.206200
4.262700 1.226400
4.286700 1.277000
4.310600 1.346200
4.334600 1.403300
4.358600 1.445400
4.382600 1.483400
4.406600 1.469300
4.430500 1.527600
4.454500 1.590800
4.478500 1.658000
4.502500 1.696200
4.526400 1.711000
4.550400 1.705600
4.574400 1.696900
4.598400 1.688900
4.622400 1.688600
4.646300 1.693800
4.670300 1.697200
4.694300 1.698600
4.718300 1.697700
4.742200 1.692200
4.766200 1.768800
4.790200 1.721000
4.814200 1.618800
4.838200 1.513500
4.862100 1.662700
4.886100 1.607200
4.910100 1.562100
4.934100 1.527300
4.958000 1.500400
4.982000 1.479700
5.006000 1.471500
5.030000 1.469600
5.054000 1.637200
5.077900 1.551000
5.101900 1.483100
5.125900 1.431600
5.149900 1.395500
5.173800 1.331800
5.197800 1.249200
5.221800 1.190000
5.245800 1.168400
5.269800 1.171800
5.293700 1.178100
5.317700 1.186300
5.341700 1.196800
5.365700 1.207500
5.389600 1.228300
5.413600 1.260200
5.437600 1.300200
5.461600 1.382600
5.485600 1.514800
5.509500 1.647300
5.533500 1.729500
5.557500 1.763900
5.581500 1.765200
5.605500 1.734800
5.629400 1.677200
5.653400 1.622600
5.677400 1.584100
5.701400 1.550400
5.725300 1.515700
5.749300 1.477800
5.773300 1.438400
5.797300 1.396000
5.821300 1.359000
5.845200 1.332900
5.869200 1.325600
5.893200 1.339200
5.917200 1.358100
5.941100 1.325400
5.965100 1.315900
5.989100 1.307400
6.013100 1.313400
6.037100 1.347400
6.061000 1.381000
6.085000 1.412600
6.109000 1.446600
6.133000 1.486900
6.156900 1.583300
6.180900 1.689100
6.204900 1.746800
6.228900 1.838400
6.252900 1.845600
6.276800 1.736900
6.300800 1.611200
6.324800 1.561700
6.348800 1.520900
6.372700 1.495100
6.396700 1.441500
6.420700 1.383000
6.444700 1.328300
6.468700 1.275500
6.492600 1.225100
6.516600 1.193800
6.540600 1.197700
6.564600 1.278300
6.588500 1.330800
6.612500 1.299300
6.636500 1.263700
6.660500 1.308300
6.684500 1.266000
6.708400 1.217400
6.732400 1.161400
6.756400 1.141600
6.780400 1.125600
6.804300 1.112800
6.828300 1.102800
6.852300 1.095300
6.876300 1.090000
6.900300 1.088200
6.924200 1.090900
6.948200 1.096500
6.972200 1.105900
6.996200 1.118400
7.020100 1.131300
7.044100 1.153600
7.068100 1.214100
7.092100 1.283500
7.116100 1.334600
7.140000 1.385600
7.164000 1.437000
7.188000 1.489200
7.212000 1.545000
7.235900 1.609800
7.259900 1.700000
7.283900 1.822700
7.307900 2.061700
7.331900 2.064000
7.355800 2.028000
7.379800 2.004600
7.403800 1.993600
7.427800 1.995000
7.451700 2.009300
7.475700 2.080200
7.499700 2.170700
7.523700 2.220600
7.547700 2.255000
7.571600 2.201000
7.595600 2.195300
7.619600 2.179700
7.643600 1.980800
7.667500 1.772900
7.691500 1.737500
7.715500 1.708800
7.739500 1.674000
7.763500 1.633200
7.787400 1.600700
7.811400 1.579200
7.835400 1.565900
7.859400 1.554300
7.883300 1.541000
7.907300 1.525300
7.931300 1.624800
7.955300 1.713400
7.979300 1.582700
8.003200 1.337900
8.027200 1.329600
8.051200 1.330600
8.075200 1.340700
8.099100 1.356500
8.123100 1.377900
8.147100 1.405500
8.171100 1.438700
8.195100 1.547300
8.219000 1.752100
8.243000 1.865500
8.267000 1.900600
8.291000 1.905700
8.314900 1.893500
8.338900 1.780200
8.362900 1.811800
8.386900 1.822700
8.410900 1.836800
8.434800 1.866600
8.458800 2.024400
8.482800 1.949800
8.506800 1.799400
8.530700 1.728700
8.554700 1.727000
8.578700 1.767700
8.602700 1.856100
8.626700 1.888100
8.650600 1.893000
8.674600 1.890000
8.698600 1.884300
8.722600 1.879000
8.746500 1.860500
8.770500 1.840400
8.794500 1.826400
8.818500 1.820700
8.842500 1.827100
8.866400 1.838100
8.890400 1.848700
8.914400 1.846000
8.938400 1.834100
8.962300 1.829500
8.986300 1.831400
9.010300 1.844100
9.034300 1.871200
9.058300 1.901600
9.082200 1.933100
9.106200 1.965700
9.130200 1.980600
9.154200 1.970800
9.178100 1.915700
9.202100 1.838700
9.226100 1.856700
9.250100 1.884900
9.274100 1.905200
9.298000 1.917500
9.322000 1.923400
9.346000 1.926300
9.370000 1.929900
9.394000 1.921000
9.417900 1.919800
9.441900 1.917500
9.465900 1.923900
9.489900 1.973600
9.513800 1.925800
9.537800 1.901300
9.561800 1.871600
9.585800 1.845600
9.609800 1.812600
9.633700 1.768200
9.657700 1.712400
9.681700 1.695000
9.705700 1.722300
9.729600 1.759900
9.753600 1.806100
9.777600 1.861900
9.801600 1.926800
9.825600 2.000500
9.849500 2.029400
9.873500 2.044200
9.897500 2.116300
9.921500 2.161500
9.945400 2.181600
9.969400 2.179000
9.993400 2.154600
10.017400 2.113600
10.041400 2.059800
10.065300 2.017700
10.089300 2.009400
10.113300 2.006300
10.137300 2.003800
10.161200 2.011200
10.185200 2.022600
10.209200 2.029600
10.233200 2.031800
10.257200 2.023200
10.281100 2.001300
10.305100 1.989900
10.329100 1.981900
10.353100 1.984900
10.377000 1.999200
10.401000 2.012700
10.425000 2.025100
10.449000 2.038200
10.473000 2.053500
10.496900 2.071300
10.520900 2.091100
10.544900 2.110900
10.568900 2.130700
10.592800 2.155500
10.616800 2.152100
10.640800 2.147100
10.664800 2.144100
10.688800 2.173000
10.712700 2.201700
10.736700 2.215600
10.760700 2.056600
10.784700 2.046300
10.808600 2.077800
10.832600 2.042600
10.856600 2.018700
10.880600 2.026800
10.904600 2.029100
10.928500 2.026000
10.952500 2.020800
10.976500 2.022700
11.000500 2.035900
11.024400 2.058700
11.048400 2.089500
11.072400 2.123900
11.096400 2.160800
11.120400 2.195000
11.144300 2.223000
11.168300 2.247800
11.192300 2.272700
11.216300 2.298200
11.240200 2.323300
11.264200 2.351200
11.288200 2.389100
11.312200 2.446000
11.336200 2.508900
11.360100 2.708600
11.384100 2.728800
11.408100 2.663100
11.432100 2.591900
11.456000 2.558600
11.480000 2.546600
11.504000 2.531800
11.528000 2.522400
11.552000 2.519900
11.575900 2.518300
11.599900 2.518000
11.623900 2.517000
11.647900 2.527500
11.671800 2.561300
11.695800 2.585900
11.719800 2.742700
11.743800 2.543000
11.767800 2.559800
11.791700 2.459700
11.815700 2.416600
11.839700 2.390800
11.863700 2.368700
11.887600 2.338500
11.911600 2.300200
11.935600 2.272700
11.959600 2.247300
11.983600 2.225500
12.007500 2.205700
12.031500 2.187900
12.055500 2.173800
12.079500 2.164400
12.103400 2.159200
12.127400 2.157900
12.151400 2.164600
12.175400 2.178400
12.199400 2.193500
12.223300 2.208200
12.247300 2.215500
12.271300 2.219500
12.295300 2.222100
12.319200 2.196900
12.343200 2.235700
12.367200 2.119600
12.391200 2.103000
12.415200 2.086200
12.439100 2.063400
12.463100 2.035100
12.487100 2.024800
12.511100 2.044600
12.535000 2.048900
12.559000 2.032300
12.583000 2.041200
12.607000 2.063700
12.631000 2.065000
12.654900 2.044800
12.678900 2.054700
12.702900 2.069900
12.726900 2.104200
12.750800 2.142400
12.774800 2.181600
12.798800 2.222000
12.822800 2.263700
12.846800 2.304500
12.870700 2.365100
12.894700 2.415900
12.918700 2.383600
12.942700 2.386600
12.966700 2.422300
12.990600 2.497000
13.014600 2.537200
13.038600 2.580700
13.062600 2.608200
13.086500 2.629500
13.110500 2.643700
13.134500 2.650300
13.158500 2.649100
13.182500 2.640300
13.206400 2.625500
13.230400 2.613000
13.254400 2.681500
13.278400 2.612800
13.302300 2.619600
13.326300 2.620100
13.350300 2.613500
13.374300 2.599600
13.398300 2.579000
13.422200 2.560100
13.446200 2.480600
13.470200 2.353000
13.494200 2.314100
13.518100 2.298100
13.542100 2.287300
13.566100 2.279700
13.590100 2.275500
13.614100 2.276900
13.638000 2.284100
13.662000 2.297300
13.686000 2.315900
13.710000 2.337400
13.733900 2.364000
13.757900 2.392000
13.781900 2.418400
13.805900 2.448300
13.829900 2.577600
13.853800 2.461200
13.877800 2.473300
13.901800 2.487600
13.925800 2.504300
13.949700 2.530900
13.973700 2.558900
13.997700 2.587600
14.021700 2.616800
14.045700 2.647700
14.069600 2.677000
14.093600 2.675500
14.117600 2.699700
14.141600 2.721400
14.165500 2.741800
14.189500 2.758600
14.213500 2.768600
14.237500 2.776800
14.261500 2.781700
14.285400 2.785600
14.309400 2.737700
14.333400 2.708400
14.357400 2.715000
14.381300 2.700100
14.405300 2.699700
14.429300 2.700300
14.453300 2.702000
14.477300 2.702600
14.501200 2.701500
14.525200 2.697800
14.549200 2.694600
14.573200 2.692200
14.597100 2.690800
14.621100 2.684900
14.645100 2.673000
14.669100 2.668500
14.693100 2.663600
14.717000 2.658700
14.741000 2.651200
14.765000 2.639300
14.789000 2.620400
14.812900 2.599600
14.836900 2.576200
14.860900 2.578200
14.884900 2.600300
14.908900 2.622600
14.932800 2.622500
14.956800 2.606800
14.980800 2.591000
15.004800 2.563900
15.028700 2.505900
15.052700 2.478200
15.076700 2.488300
15.100700 2.516900
15.124700 2.563000
15.148600 2.617300
15.172600 2.677400
15.196600 2.742600
15.220600 2.802700
15.244500 2.850700
15.268500 2.885000
15.292500 2.908900
15.316500 2.922100
15.340500 2.924800
15.364400 2.933800
15.388400 2.941400
15.412400 2.925200
15.436400 2.878300
15.460300 2.822900
15.484300 2.775100
15.508300 2.740300
15.532300 2.784000
15.556300 2.817700
15.580200 2.795500
15.604200 2.821300
15.628200 2.854800
15.652200 2.894700
15.676100 2.941600
15.700100 2.991700
15.724100 3.043300
15.748100 3.096300
15.772100 3.087400
15.796000 3.139400
15.820000 3.145800
15.844000 3.210600
15.868000 3.232500
15.891900 3.243000
15.915900 3.227200
15.939900 3.130900
15.963900 3.025000
15.987900 2.963000
16.011800 2.838900
16.035800 2.776100
16.059800 2.712000
16.083800 2.647100
16.107700 2.581600
16.131700 2.515900
16.155700 2.466200
16.179700 2.422500
16.203700 2.386800
16.227600 2.358900
16.251600 2.333900
16.275600 2.313000
16.299600 2.297400
16.323500 2.287700
16.347500 2.281800
16.371500 2.277700
16.395500 2.273700
16.419500 2.266200
16.443400 2.260500
16.467400 2.256100
16.491400 2.250900
16.515400 2.245500
16.539300 2.241600
16.563300 2.239300
16.587300 2.287900
16.611300 2.327700
16.635300 2.346000
16.659200 2.351700
16.683200 2.347300
16.707200 2.355800
16.731200 2.361500
16.755200 2.376000
16.779100 2.453800
16.803100 2.428700
16.827100 2.410400
16.851100 2.395800
16.875000 2.385100
16.899000 2.377600
16.923000 2.359200
16.947000 2.313600
16.971000 2.327700
16.994900 2.339000
17.018900 2.346300
17.042900 2.349300
17.066900 2.345700
17.090800 2.335600
17.114800 2.328300
17.138800 2.347400
17.162800 2.374100
17.186800 2.410300
17.210700 2.457500
17.234700 2.518600
17.258700 2.605600
17.282700 2.698900
17.306600 2.796200
17.330600 2.860500
17.354600 2.935500
17.378600 3.102800
17.402600 3.234700
17.426500 3.282700
17.450500 3.346700
17.474500 3.379900
17.498500 3.357200
17.522400 3.322300
17.546400 3.277100
17.570400 3.211500
17.594400 3.186200
17.618400 3.228900
17.642300 3.297900
17.666300 3.241600
17.690300 3.191800
17.714300 3.157600
17.738200 3.118200
17.762200 3.073300
17.786200 3.039800
17.810200 2.991200
17.834200 2.943400
17.858100 2.895200
17.882100 2.847600
17.906100 2.806900
17.930100 2.778500
17.954000 2.756500
17.978000 2.736900
18.002000 2.718200
18.026000 2.699700
18.050000 2.683600
18.073900 2.672400
18.097900 2.668600
18.121900 2.672100
18.145900 2.647300
18.169800 2.617100
18.193800 2.583900
18.217800 2.547900
18.241800 2.512600
18.265800 2.482800
18.289700 2.454200
18.313700 2.430600
18.337700 2.378600
18.361700 2.324900
18.385600 2.295400
18.409600 2.262100
18.433600 2.219300
18.457600 2.180400
18.481600 2.145700
18.505500 2.113900
18.529500 2.086500
18.553500 2.062900
18.577500 2.035900
18.601400 2.007300
18.625400 1.980000
18.649400 1.954300
18.673400 2.034900
18.697400 1.844400
18.721300 1.811900
18.745300 1.782000
18.769300 1.763800
18.793300 1.752400
18.817200 1.747800
18.841200 1.771000
18.865200 1.899100
18.889200 2.035500
18.913200 2.154500
18.937100 2.280300
18.961100 2.435200
18.985100 2.650800
19.009100 2.881200
19.033000 2.891100
19.057000 3.045900
19.081000 2.934900
19.105000 2.869400
19.129000 2.823700
19.152900 2.796700
19.176900 2.712400
19.200900 2.717500
19.224900 2.733100
19.248800 2.747700
19.272800 2.776900
19.296800 2.790900
19.320800 2.847800
19.344800 2.901200
19.368700 2.941700
19.392700 2.983800
19.416700 3.021100
19.440700 3.092100
19.464600 3.096000
19.488600 3.147300
19.512600 3.210300
19.536600 3.298100
19.560600 3.412100
19.584500 3.546400
19.608500 3.672100
19.632500 3.780800
19.656500 3.868400
19.680400 3.908300
19.704400 3.916400
19.728400 3.961700
19.752400 3.964700
19.776400 4.015200
19.800300 4.000700
19.824300 3.817300
19.848300 3.808800
19.872300 3.835100
19.896200 3.864700
19.920200 3.882100
19.944200 3.904600
19.968200 3.911400
19.992200 3.927500
20.016100 3.943200
20.040100 3.961500
20.064100 4.033400
20.088100 4.039000
20.112000 4.023500
20.136000 4.027200
20.160000 3.998900
20.184000 3.952900
20.208000 3.906900
20.231900 3.862100
20.255900 3.841800
20.279900 3.835900
20.303900 3.844600
20.327900 3.861900
20.351800 3.870900
20.375800 3.852100
20.399800 3.840000
20.423800 3.842100
20.447700 3.857800
20.471700 3.902600
20.495700 4.342000
20.519700 4.499200
20.543700 4.183400
20.567600 4.151600
20.591600 4.112500
20.615600 4.057600
20.639600 3.980500
20.663500 3.844500
20.687500 3.656500
20.711500 3.559200
20.735500 3.439800
20.759500 3.327000
20.783400 3.360200
20.807400 3.384000
20.831400 3.382700
20.855400 3.411200
20.879300 3.443000
20.903300 3.476400
20.927300 3.511500
20.951300 3.595000
20.975300 3.772200
20.999200 4.016200
21.023200 4.194300
21.047200 4.149400
21.071200 4.118900
21.095100 4.106800
21.119100 4.116900
21.143100 4.237300
21.167100 4.225400
21.191100 4.168400
21.215000 4.000900
21.239000 3.832700
21.263000 3.599800
21.287000 3.402000
21.310900 3.333300
21.334900 3.306800
21.358900 3.278900
21.382900 3.501300
21.406900 3.695600
21.430800 3.718200
21.454800 3.820300
21.478800 3.769300
21.502800 3.579200
21.526700 3.388500
21.550700 3.297800
21.574700 3.227400
21.598700 3.027700
21.622700 2.792100
21.646600 2.707000
21.670600 2.696000
21.694600 2.743000
21.718600 2.806100
21.742500 2.876100
21.766500 2.946000
21.790500 3.016000
21.814500 3.069700
21.838500 3.101000
21.862400 3.139100
21.886400 3.171200
21.910400 3.185300
21.934400 3.201800
21.958300 3.196900
21.982300 3.127700
22.006300 3.064400
22.030300 3.022500
22.054300 3.001000
22.078200 2.948400
22.102200 2.910800
22.126200 2.907000
22.150200 2.888900
22.174100 2.840100
22.198100 2.753700
22.222100 2.828300
22.246100 2.806900
22.270100 2.760800
22.294000 2.719400
22.318000 2.672700
22.342000 2.660300
22.366000 2.639100
22.389900 2.585100
22.413900 2.523600
22.437900 2.508500
22.461900 2.447300
22.485900 2.308000
22.509800 2.239700
22.533800 2.180900
22.557800 2.126300
22.581800 2.078800
22.605700 2.037900
22.629700 2.004500
22.653700 1.986200
22.677700 1.996600
22.701700 2.158200
22.725600 2.331900
22.749600 2.429200
22.773600 2.467500
22.797600 2.404100
22.821500 2.282800
22.845500 2.201900
22.869500 2.139500
22.893500 2.061800
22.917500 2.005700
22.941400 2.185700
22.965400 2.744800
22.989400 3.328000
23.013400 3.113700
23.037300 3.111400
23.061300 2.965500
23.085300 2.403400
23.109300 1.920200
23.133300 1.745700
23.157200 1.692700
23.181200 1.658800
23.205200 1.643600
23.229200 1.647900
23.253100 1.670800
23.277100 1.717700
23.301100 1.790200
23.325100 1.887700
23.349100 1.997500
23.373000 2.125900
23.397000 2.255400
23.421000 2.357100
23.445000 2.430500
23.468900 2.512100
23.492900 2.548000
23.516900 2.528700
23.540900 2.461100
23.564900 2.434000
23.588800 2.493300
23.612800 2.350400
23.636800 2.180300
23.660800 2.063300
23.684700 1.964800
23.708700 1.995400
23.732700 2.091400
23.756700 2.202400
23.780700 2.350500
23.804600 2.536300
23.828600 2.724300
23.852600 2.898700
23.876600 3.140500
23.900600 3.380000
23.924500 3.331500
23.948500 2.852600
23.972500 2.689600
23.996500 2.624700
24.020400 2.607700
24.044400 2.411700
24.068400 2.488300
24.092400 2.596300
24.116400 2.733900
24.140300 3.077100
24.164300 3.357100
24.188300 3.605200
24.212300 3.859400
24.236200 3.966400
24.260200 4.074800
24.284200 4.065000
24.308200 4.246900
24.332200 4.286100
24.356100 4.216800
24.380100 4.201800
24.404100 4.245500
24.428100 4.304400
24.452000 4.415900
24.476000 4.556900
24.500000 4.495600
24.524000 4.608200
24.548000 4.780700
24.571900 4.722500
24.595900 4.498400
24.619900 4.341200
24.643900 4.140200
24.667800 4.098900
24.691800 4.027000
24.715800 4.216400
24.739800 3.811200
24.763800 3.558100
24.787700 3.396200
24.811700 3.390900
24.835700 3.450300
24.859700 3.528500
24.883600 3.685300
24.907600 3.956200
24.931600 4.046400
24.955600 3.933900
24.979600 3.749200
25.003500 3.546200
25.027500 3.401300
25.051500 3.289600
25.075500 3.199100
25.099400 3.092900
25.123400 3.029700
25.147400 2.972200
25.171400 2.960700
25.195400 3.020800
25.219300 3.120500
25.243300 3.093300
25.267300 3.054700
25.291300 2.972800
25.315200 2.907700
25.339200 2.890900
25.363200 2.909800
25.387200 2.906700
25.411200 2.898800
25.435100 2.884000
25.459100 2.858000
25.483100 2.807500
25.507100 2.753500
25.531000 2.723100
25.555000 2.703500
25.579000 2.686800
25.603000 2.673900
25.627000 2.652000
25.650900 2.629800
25.674900 2.599500
25.698900 2.561900
25.722900 2.529000
25.746800 2.520600
25.770800 2.520300
25.794800 2.537600
25.818800 2.575100
25.842800 2.626800
25.866700 2.695700
25.890700 2.785800
25.914700 2.882900
25.938700 2.979200
25.962600 3.382900
25.986600 3.386900
26.010600 3.531400
26.034600 3.704000
26.058600 3.867600
26.082500 4.552100
26.106500 4.201200
26.130500 4.234100
26.154500 4.293700
26.178400 4.212200
26.202400 4.081300
26.226400 4.010400
26.250400 3.926000
26.274400 3.831200
26.298300 3.718600
26.322300 3.597800
26.346300 3.597600
26.370300 3.608900
26.394200 4.178600
26.418200 3.462300
26.442200 3.321300
26.466200 3.295800
26.490200 3.347400
26.514100 3.341300
26.538100 3.319300
26.562100 3.326800
26.586100 3.367600
26.610000 3.399700
26.634000 3.232200
26.658000 3.113800
26.682000 3.104500
26.706000 3.092700
26.729900 3.065300
26.753900 3.029400
26.777900 2.995500
26.801900 2.979100
26.825800 2.975200
26.849800 2.982200
26.873800 2.990100
26.897800 3.018200
26.921800 3.071300
26.945700 3.116100
26.969700 3.159100
26.993700 3.230700
27.017700 3.305900
27.041600 3.331500
27.065600 3.325700
27.089600 3.370400
27.113600 3.399500
27.137600 3.345000
27.161500 3.292900
27.185500 3.332800
27.209500 3.334700
27.233500 3.645600
27.257400 3.706000
27.281400 3.792600
27.305400 3.889800
27.329400 3.979900
27.353400 4.058100
27.377300 4.160600
27.401300 4.143600
27.425300 4.081300
27.449300 4.018500
27.473200 3.989900
27.497200 3.993000
27.521200 4.044700
27.545200 4.081700
27.569200 4.125300
27.593100 4.192800
27.617100 4.288700
27.641100 4.416800
27.665100 4.638500
27.689100 4.644100
27.713000 4.498800
27.737000 4.381600
27.761000 4.245800
27.785000 4.037300
27.808900 4.001400
27.832900 4.004200
27.856900 4.016100
27.880900 4.041500
27.904900 4.045000
27.928800 4.021400
27.952800 3.994800
27.976800 3.970700
28.000800 3.926600
28.024700 3.867100
28.048700 3.802100
28.072700 3.806700
28.096700 3.829200
28.120700 3.870200
28.144600 3.896100
28.168600 3.729100
28.192600 3.514400
28.216600 3.344700
28.240500 3.280900
28.264500 3.276000
28.288500 3.309700
28.312500 3.426500
28.336500 3.719600
28.360400 3.710900
28.384400 3.740200
28.408400 3.753000
28.432400 3.778300
28.456300 3.797700
28.480300 3.817600
28.504300 3.825000
28.528300 3.827600
28.552300 3.807100
28.576200 3.764700
28.600200 3.746000
28.624200 3.734600
28.648200 3.695100
28.672100 3.636300
28.696100 3.552600
28.720100 3.512600
28.744100 3.503100
28.768100 3.498900
28.792000 3.590800
28.816000 3.714900
28.840000 3.837600
28.864000 3.799700
28.887900 3.763800
28.911900 3.755700
28.935900 3.661700
28.959900 3.584100
28.983900 3.621300
29.007800 3.680300
29.031800 3.673700
29.055800 3.616300
29.079800 3.572900
29.103700 3.518900
29.127700 3.446900
29.151700 3.383800
29.175700 3.283900
29.199700 3.163500
29.223600 3.052400
29.247600 3.007900
29.271600 2.984800
29.295600 2.944300
29.319500 2.882000
29.343500 2.868100
29.367500 2.928600
29.391500 2.988200
29.415500 2.784500
29.439400 2.767000
29.463400 2.748000
29.487400 2.726500
29.511400 2.706800
29.535300 2.725300
29.559300 2.720600
29.583300 2.690600
29.607300 2.633800
29.631300 2.549700
29.655200 2.502300
29.679200 2.456400
29.703200 2.406900
29.727200 2.349900
29.751100 2.316100
29.775100 2.289100
29.799100 2.264500
29.823100 2.275100
29.847100 2.323800
29.871000 2.445000
29.895000 2.592400
29.919000 2.810800
29.943000 2.799800
29.966900 2.729000
29.990900 2.699800
30.014900 2.688800
30.038900 2.692500
30.062900 2.696400
30.086800 2.697700
30.110800 2.703300
30.134800 2.761400
30.158800 2.806800
30.182700 2.838300
30.206700 2.846700
30.230700 2.829500
30.254700 2.792300
30.278700 2.734800
30.302600 2.654500
30.326600 2.575100
30.350600 2.478000
30.374600 2.355400
30.398500 2.274300
30.422500 2.223900
30.446500 2.196500
30.470500 2.163100
30.494500 2.158300
30.518400 2.187400
30.542400 2.218700
30.566400 2.239500
30.590400 2.247100
30.614300 2.258500
30.638300 2.278600
30.662300 2.305400
30.686300 2.332200
30.710300 2.357700
30.734200 2.392200
30.758200 2.439100
30.782200 2.490900
30.806200 2.502700
30.830100 2.491400
30.854100 2.338900
30.878100 2.286500
30.902100 2.240400
30.926100 2.181800
30.950000 2.112600
30.974000 2.038800
30.998000 1.965100
31.022000 1.895200
31.045900 1.801800
31.069900 1.686400
31.093900 1.522500
31.117900 1.441600
31.141900 1.391900
31.165800 1.349000
31.189800 1.310400
31.213800 1.276000
31.237800 1.248900
31.261800 1.229700
31.285700 1.216100
31.309700 1.199600
31.333700 1.184000
31.357700 1.167500
31.381600 1.152100
31.405600 1.138300
31.429600 1.174200
31.453600 1.158200
31.477600 1.129000
31.501500 1.090000
31.525500 1.043000
31.549500 0.998100
31.573500 0.956400
31.597400 0.917600
31.621400 0.881300
31.645400 0.853300
31.669400 0.837000
31.693400 0.835200
31.717300 0.853800
31.741300 0.895400
31.765300 0.965100
31.789300 0.871500
31.813200 0.814900
31.837200 0.701400
31.861200 0.625600
31.885200 0.579200
31.909200 0.579600
31.933100 0.577300
31.957100 0.567300
31.981100 0.555900
32.005100 0.576700
32.029000 0.628900
32.053000 0.499100
32.077000 0.387300
32.101000 0.299100
32.125000 0.230900
32.148900 0.173200
32.172900 0.159000
32.196900 0.145500
32.220900 0.132600
32.244800 0.120200
32.268800 0.108500
32.292800 0.097300
32.316800 0.086700
32.340800 0.076800
32.364700 0.067400
32.388700 0.058700
32.412700 0.050700
32.436700 0.043400
32.460600 0.036700
32.484600 0.030700
32.508600 0.025400
32.532600 0.020800
32.556600 0.016800
32.580500 0.013500
32.604500 0.010700
32.628500 0.008200
32.652500 0.006000
32.676400 0.004100
32.700400 0.002500
32.724400 0.001100
32.748400 0.000100
32.772400 0.000000
32.796300 0.000000
32.820300 0.000000
32.844300 0.000000
32.868300 0.000000
32.892200 0.000000
32.916200 0.000000
32.940200 0.000000
32.964200 0.000000
32.988200 0.000000
33.012100 0.000000
33.036100 0.000000
33.060100 0.000000
33.084100 0.000000
33.108000 0.000000
33.132000 0.000000
33.156000 0.000000
33.180000 0.000000
33.204000 0.000000
33.227900 0.000000
33.251900 0.000000
33.275900 0.000000
33.299900 0.000000
33.323800 0.000000
33.347800 0.000000
33.371800 0.000000
33.395800 0.000000
33.419800 0.000000
33.443700 0.000000
33.467700 0.000000
33.491700 0.000000
33.515700 0.000000
33.539600 0.000000
33.563600 0.000000
33.587600 0.000000
33.611600 0.000000
33.635600 0.000000
33.659500 0.000000
33.683500 0.000000
33.707500 0.000000
33.731500 0.000000
33.755400 0.000000
33.779400 0.000000
33.803400 0.000000
33.827400 0.000000
33.851400 0.000000
33.875300 0.000000
33.899300 0.000000
33.923300 0.000000
33.947300 0.000000
33.971200 0.000000
33.995200 0.000000
34.019200 0.000000
34.043200 0.000000
34.067200 0.000000
34.091100 0.000000
34.115100 0.000000
34.139100 0.000000
34.163100 0.000000
34.187000 0.000000
34.211000 0.000000
34.235000 0.000000
34.259000 0.000000
34.283000 0.000000
34.306900 0.000000
34.330900 0.000000
34.354900 0.000000
34.378900 0.000000
34.402800 0.000000
34.426800 0.000000
34.450800 0.000000
34.474800 0.000000
34.498800 0.000000
34.522700 0.000000
34.546700 0.000000
34.570700 0.000000
34.594700 0.000000
34.618600 0.000000
34.642600 0.000000
34.666600 0.000000
34.690600 0.000000
34.714600 0.000000
34.738500 0.000000
34.762500 0.000000
34.786500 0.000000
34.810500 0.000000
34.834500 0.000000
34.858400 0.000000
34.882400 0.000000
34.906400 0.000000
34.930400 0.000000
e
