set title 'mp-1183149 - Density of States'
set xlabel 'Energy (eV)'
set ylabel 'DOS (states/eV)'
set grid
set xrange [-10:10]
set yrange [0:15.159]
set xzeroaxis lt -1
set terminal png size 800,600
set output 'mp-1183149_dos_gnuplot.png'
plot '-' using 1:2 with lines title 'DOS'
-8.944500 0.000000
-8.920000 0.000000
-8.895500 0.000000
-8.871000 0.000000
-8.846600 0.000000
-8.822100 0.000000
-8.797600 0.000000
-8.773200 0.000000
-8.748700 0.000000
-8.724200 0.000000
-8.699800 0.000000
-8.675300 0.000000
-8.650800 0.000000
-8.626400 0.000000
-8.601900 0.000000
-8.577400 0.000000
-8.553000 0.000000
-8.528500 0.000000
-8.504000 0.000000
-8.479600 0.000000
-8.455100 0.000000
-8.430600 0.000000
-8.406200 0.000000
-8.381700 0.000000
-8.357200 0.000000
-8.332800 0.000000
-8.308300 0.000000
-8.283800 0.000000
-8.259400 0.000000
-8.234900 0.000000
-8.210400 0.000000
-8.186000 0.000000
-8.161500 0.000000
-8.137000 0.000000
-8.112500 0.000000
-8.088100 0.000000
-8.063600 0.000000
-8.039100 0.000000
-8.014700 0.000000
-7.990200 0.000000
-7.965700 0.000000
-7.941300 0.000000
-7.916800 0.000000
-7.892300 0.000000
-7.867900 0.000000
-7.843400 0.000000
-7.818900 0.000000
-7.794500 0.000000
-7.770000 0.000000
-7.745500 0.000000
-7.721100 0.000000
-7.696600 0.000000
-7.672100 0.000000
-7.647700 0.000000
-7.623200 0.000000
-7.598700 0.000000
-7.574300 0.000000
-7.549800 0.000000
-7.525300 0.000000
-7.500900 0.000000
-7.476400 0.000000
-7.451900 0.000000
-7.427500 0.000000
-7.403000 0.000000
-7.378500 0.000000
-7.354100 0.000000
-7.329600 0.000000
-7.305100 0.000000
-7.280600 0.000000
-7.256200 0.000000
-7.231700 0.000000
-7.207200 0.000000
-7.182800 0.000000
-7.158300 0.000000
-7.133800 0.000000
-7.109400 0.000000
-7.084900 0.000000
-7.060400 0.000000
-7.036000 0.000000
-7.011500 0.000000
-6.987000 0.000000
-6.962600 0.000000
-6.938100 0.000000
-6.913600 0.000000
-6.889200 0.000000
-6.864700 0.000000
-6.840200 0.000000
-6.815800 0.000000
-6.791300 0.000000
-6.766800 0.000000
-6.742400 0.000000
-6.717900 0.000100
-6.693400 0.015400
-6.669000 0.056600
-6.644500 0.121100
-6.620000 0.145600
-6.595600 0.154900
-6.571100 0.163800
-6.546600 0.184900
-6.522200 0.206900
-6.497700 0.229800
-6.473200 0.251300
-6.448700 0.266700
-6.424300 0.275400
-6.399800 0.282600
-6.375300 0.294900
-6.350900 0.309100
-6.326400 0.323500
-6.301900 0.338000
-6.277500 0.352500
-6.253000 0.367200
-6.228500 0.382600
-6.204100 0.397400
-6.179600 0.410600
-6.155100 0.422300
-6.130700 0.434300
-6.106200 0.447000
-6.081700 0.459700
-6.057300 0.472700
-6.032800 0.486000
-6.008300 0.499600
-5.983900 0.513900
-5.959400 0.529000
-5.934900 0.544500
-5.910500 0.560400
-5.886000 0.576500
-5.861500 0.592600
-5.837100 0.608600
-5.812600 0.624800
-5.788100 0.641500
-5.763700 0.658600
-5.739200 0.676000
-5.714700 0.694400
-5.690300 0.713700
-5.665800 0.733600
-5.641300 0.753900
-5.616800 0.774800
-5.592400 0.796100
-5.567900 0.817600
-5.543400 0.839600
-5.519000 0.861900
-5.494500 0.886500
-5.470000 0.915200
-5.445600 0.946100
-5.421100 0.978300
-5.396600 1.012900
-5.372200 1.048400
-5.347700 1.085500
-5.323200 1.124100
-5.298800 1.163500
-5.274300 1.203800
-5.249800 1.245400
-5.225400 1.290200
-5.200900 1.342500
-5.176400 1.401000
-5.152000 1.458100
-5.127500 1.531400
-5.103000 1.621000
-5.078600 1.714900
-5.054100 1.834900
-5.029600 2.006200
-5.005200 2.175100
-4.980700 2.289800
-4.956200 2.412000
-4.931800 2.569800
-4.907300 2.844100
-4.882800 2.951900
-4.858400 2.945700
-4.833900 3.036300
-4.809400 3.082700
-4.784900 3.096400
-4.760500 3.136200
-4.736000 3.178100
-4.711500 3.221300
-4.687100 3.266400
-4.662600 3.324500
-4.638100 3.429000
-4.613700 3.536400
-4.589200 3.623500
-4.564700 3.737800
-4.540300 3.850600
-4.515800 3.945600
-4.491300 4.220900
-4.466900 4.291900
-4.442400 4.519600
-4.417900 4.912100
-4.393500 5.588900
-4.369000 6.882100
-4.344500 11.939000
-4.320100 9.399400
-4.295600 0.000000
-4.271100 0.000000
-4.246700 0.000000
-4.222200 0.000000
-4.197700 0.000000
-4.173300 0.000000
-4.148800 0.000000
-4.124300 0.000000
-4.099900 0.000000
-4.075400 0.000000
-4.050900 0.000000
-4.026400 0.000000
-4.002000 0.000000
-3.977500 0.000000
-3.953000 0.000000
-3.928600 0.000000
-3.904100 0.000000
-3.879600 0.000000
-3.855200 0.000000
-3.830700 0.000000
-3.806200 0.000000
-3.781800 0.000000
-3.757300 0.000000
-3.732800 0.000000
-3.708400 0.000000
-3.683900 0.000000
-3.659400 0.000000
-3.635000 0.000000
-3.610500 0.000000
-3.586000 0.000000
-3.561600 0.000000
-3.537100 0.000000
-3.512600 0.000000
-3.488200 0.000000
-3.463700 0.000000
-3.439200 0.000000
-3.414800 0.000000
-3.390300 0.000000
-3.365800 0.000000
-3.341400 0.000000
-3.316900 0.000000
-3.292400 0.000000
-3.268000 0.000000
-3.243500 0.000000
-3.219000 0.000000
-3.194500 0.000000
-3.170100 0.000000
-3.145600 0.000000
-3.121100 0.000000
-3.096700 0.000000
-3.072200 0.000000
-3.047700 0.000000
-3.023300 0.000000
-2.998800 0.000000
-2.974300 0.000000
-2.949900 0.000000
-2.925400 0.000000
-2.900900 0.000000
-2.876500 0.000000
-2.852000 0.000000
-2.827500 0.000000
-2.803100 0.000000
-2.778600 0.000000
-2.754100 4.163300
-2.729700 6.708800
-2.705200 9.105400
-2.680700 13.625000
-2.656300 12.841100
-2.631800 12.169000
-2.607300 13.780500
-2.582900 11.908400
-2.558400 9.628900
-2.533900 6.819100
-2.509500 6.567200
-2.485000 4.830300
-2.460500 6.462100
-2.436100 8.168800
-2.411600 6.043100
-2.387100 6.295200
-2.362600 7.962500
-2.338200 7.443100
-2.313700 5.642000
-2.289200 6.202000
-2.264800 6.153600
-2.240300 6.338100
-2.215800 8.042100
-2.191400 7.464500
-2.166900 7.672300
-2.142400 8.571100
-2.118000 11.035900
-2.093500 10.345600
-2.069000 9.486300
-2.044600 8.824600
-2.020100 8.423300
-1.995600 8.710300
-1.971200 7.336800
-1.946700 7.007600
-1.922200 6.725100
-1.897800 6.562200
-1.873300 6.313100
-1.848800 6.370100
-1.824400 6.424300
-1.799900 6.528700
-1.775400 6.831000
-1.751000 7.410400
-1.726500 7.935700
-1.702000 8.710000
-1.677600 7.952200
-1.653100 8.017700
-1.628600 7.261500
-1.604200 6.912800
-1.579700 6.776100
-1.555200 7.086500
-1.530700 7.188400
-1.506300 6.886400
-1.481800 5.766400
-1.457300 6.191200
-1.432900 6.418400
-1.408400 7.638800
-1.383900 7.190600
-1.359500 7.160200
-1.335000 7.430400
-1.310500 6.857800
-1.286100 6.438500
-1.261600 5.869600
-1.237100 5.784000
-1.212700 5.274500
-1.188200 5.369000
-1.163700 5.040400
-1.139300 4.714400
-1.114800 5.098400
-1.090300 7.881400
-1.065900 7.984500
-1.041400 7.332600
-1.016900 6.974900
-0.992500 6.599500
-0.968000 7.187400
-0.943500 6.586200
-0.919100 6.848700
-0.894600 7.126500
-0.870100 7.400900
-0.845700 7.662000
-0.821200 8.041000
-0.796700 8.433700
-0.772200 7.812300
-0.747800 8.542000
-0.723300 8.962500
-0.698800 9.391700
-0.674400 10.220900
-0.649900 9.114700
-0.625400 7.038700
-0.601000 7.081100
-0.576500 7.187100
-0.552000 7.578000
-0.527600 6.482000
-0.503100 5.023100
-0.478600 4.461700
-0.454200 3.922400
-0.429700 3.947600
-0.405200 3.517500
-0.380800 2.996100
-0.356300 2.855200
-0.331800 2.809000
-0.307400 2.760900
-0.282900 2.697700
-0.258400 2.580000
-0.234000 2.503500
-0.209500 2.451000
-0.185000 2.405900
-0.160600 2.384000
-0.136100 2.365100
-0.111600 2.348100
-0.087200 2.409400
-0.062700 2.826900
-0.038200 2.827300
-0.013800 2.538300
0.010700 2.300200
0.035200 2.298700
0.059700 2.293400
0.084100 2.307200
0.108600 2.328400
0.133100 2.291700
0.157500 2.158600
0.182000 2.099700
0.206500 2.128500
0.230900 2.041500
0.255400 2.028000
0.279900 1.996600
0.304300 2.026300
0.328800 2.083000
0.353300 2.202200
0.377700 2.351700
0.402200 2.595000
0.426700 2.914600
0.451100 3.096200
0.475600 3.400000
0.500100 3.274800
0.524500 2.837500
0.549000 2.484100
0.573500 2.109300
0.597900 1.699600
0.622400 1.507100
0.646900 1.074300
0.671300 0.806000
0.695800 0.603200
0.720300 0.340600
0.744700 0.040100
0.769200 0.046500
0.793700 0.051600
0.818100 0.055900
0.842600 0.060300
0.867100 0.064800
0.891600 0.069400
0.916000 0.074100
0.940500 0.078800
0.965000 0.178200
0.989400 0.200900
1.013900 0.241800
1.038400 0.280500
1.062800 0.316800
1.087300 0.350900
1.111800 0.383000
1.136200 0.406000
1.160700 0.435300
1.185200 0.468400
1.209600 0.502300
1.234100 0.535200
1.258600 0.565100
1.283000 0.590400
1.307500 0.607800
1.332000 0.621900
1.356400 0.638600
1.380900 0.660700
1.405400 0.686400
1.429800 0.720000
1.454300 0.761000
1.478800 0.807500
1.503200 0.845100
1.527700 0.872600
1.552200 0.910200
1.576600 0.950500
1.601100 0.995600
1.625600 1.044900
1.650000 1.096600
1.674500 1.150700
1.699000 1.205600
1.723500 1.249400
1.747900 1.302700
1.772400 1.386000
1.796900 1.466100
1.821300 1.554200
1.845800 1.650400
1.870300 1.758000
1.894700 1.896700
1.919200 2.088900
1.943700 2.080500
1.968100 1.974800
1.992600 2.035200
2.017100 1.899500
2.041500 1.832600
2.066000 1.774000
2.090500 1.746100
2.114900 1.837200
2.139400 1.557800
2.163900 1.558200
2.188300 1.548200
2.212800 1.546600
2.237300 1.565700
2.261700 1.475700
2.286200 1.438600
2.310700 1.405200
2.335100 1.378300
2.359600 1.359700
2.384100 1.303700
2.408500 1.243900
2.433000 1.204300
2.457500 1.169900
2.481900 1.142100
2.506400 1.123900
2.530900 1.116200
2.555400 1.120000
2.579800 1.154800
2.604300 1.182500
2.628800 1.206500
2.653200 1.234300
2.677700 1.266100
2.702200 1.299800
2.726600 1.326800
2.751100 1.354900
2.775600 1.381200
2.800000 1.430400
2.824500 1.519700
2.849000 1.794000
2.873400 1.640300
2.897900 1.585200
2.922400 1.529900
2.946800 1.475800
2.971300 1.424200
2.995800 1.363800
3.020200 1.308400
3.044700 1.244500
3.069200 1.180600
3.093600 1.129300
3.118100 1.103700
3.142600 1.088900
3.167000 1.071400
3.191500 1.064300
3.216000 1.067600
3.240400 1.081100
3.264900 1.101500
3.289400 1.134600
3.313900 1.176600
3.338300 1.240900
3.362800 1.318800
3.387300 1.417900
3.411700 1.539800
3.436200 1.703300
3.460700 1.684700
3.485100 1.655400
3.509600 1.621100
3.534100 1.587900
3.558500 1.538000
3.583000 1.477800
3.607500 1.482800
3.631900 1.490200
3.656400 1.495400
3.680900 1.472000
3.705300 1.458000
3.729800 1.441100
3.754300 1.421400
3.778700 1.400400
3.803200 1.380000
3.827700 1.350800
3.852100 1.319800
3.876600 1.284400
3.901100 1.274700
3.925500 1.266800
3.950000 1.258200
3.974500 1.243100
3.998900 1.227800
4.023400 1.215900
4.047900 1.209200
4.072300 1.239300
4.096800 1.246400
4.121300 1.245900
4.145800 1.274400
4.170200 1.303900
4.194700 1.334000
4.219200 1.365800
4.243600 1.402300
4.268100 1.442500
4.292600 1.487000
4.317000 1.547900
4.341500 1.653600
4.366000 1.730200
4.390400 1.794100
4.414900 1.867800
4.439400 1.905500
4.463800 1.931500
4.488300 1.972900
4.512800 1.966900
4.537200 1.958700
4.561700 1.967400
4.586200 1.975900
4.610600 1.975700
4.635100 1.973700
4.659600 1.970100
4.684000 1.964300
4.708500 1.960200
4.733000 1.962900
4.757400 1.974800
4.781900 1.985300
4.806400 1.980500
4.830800 1.999800
4.855300 1.982900
4.879800 1.930600
4.904200 1.807400
4.928700 1.816300
4.953200 1.804200
4.977700 1.794000
5.002100 1.753200
5.026600 1.741400
5.051100 1.735000
5.075500 1.730200
5.100000 1.725900
5.124500 1.721900
5.148900 1.718100
5.173400 1.716200
5.197900 1.716000
5.222300 1.722500
5.246800 1.725900
5.271300 1.719600
5.295700 1.733200
5.320200 1.734100
5.344700 1.939700
5.369100 1.928000
5.393600 1.969300
5.418100 1.933200
5.442500 1.909600
5.467000 1.869300
5.491500 1.853900
5.515900 1.843300
5.540400 1.867300
5.564900 1.875500
5.589300 1.892100
5.613800 1.910900
5.638300 1.929000
5.662700 1.944600
5.687200 1.981600
5.711700 2.055500
5.736100 2.035000
5.760600 2.015600
5.785100 2.004200
5.809600 1.990100
5.834000 1.992100
5.858500 2.027600
5.883000 2.097700
5.907400 2.207400
5.931900 2.353800
5.956400 2.610100
5.980800 2.644300
6.005300 2.655800
6.029800 2.741100
6.054200 3.238300
6.078700 3.405100
6.103200 3.406200
6.127600 3.333500
6.152100 3.308700
6.176600 3.040000
6.201000 2.961200
6.225500 2.901300
6.250000 2.834300
6.274400 2.780600
6.298900 2.735700
6.323400 2.700700
6.347800 2.680200
6.372300 2.608700
6.396800 2.575600
6.421200 2.543200
6.445700 2.511200
6.470200 2.473800
6.494600 2.447000
6.519100 2.412000
6.543600 2.360000
6.568100 2.336300
6.592500 2.312400
6.617000 2.282700
6.641500 2.255000
6.665900 2.228100
6.690400 2.202300
6.714900 2.177900
6.739300 2.158000
6.763800 2.137400
6.788300 2.114000
6.812700 2.085300
6.837200 2.054700
6.861700 2.024700
6.886100 1.997700
6.910600 1.973300
6.935100 1.956400
6.959500 1.938600
6.984000 1.919100
7.008500 1.899600
7.032900 1.889700
7.057400 1.881900
7.081900 1.880000
7.106300 1.881900
7.130800 1.878000
7.155300 1.855700
7.179700 1.829900
7.204200 1.798700
7.228700 1.763000
7.253100 1.733800
7.277600 1.701700
7.302100 1.662000
7.326500 1.609000
7.351000 1.555900
7.375500 1.505400
7.400000 1.460800
7.424400 1.421600
7.448900 1.391200
7.473400 1.370200
7.497800 1.351200
7.522300 1.334600
7.546800 1.318300
7.571200 1.302200
7.595700 1.286400
7.620200 1.262000
7.644600 1.237900
7.669100 1.217300
7.693600 1.200400
7.718000 1.190300
7.742500 1.229700
7.767000 1.161500
7.791400 1.100000
7.815900 1.064900
7.840400 1.036800
7.864800 1.012300
7.889300 0.991500
7.913800 0.972900
7.938200 0.952800
7.962700 0.931600
7.987200 0.908900
8.011600 0.889300
8.036100 0.870400
8.060600 0.852000
8.085000 0.834600
8.109500 0.818300
8.134000 0.803400
8.158400 0.789700
8.182900 0.779000
8.207400 0.776400
8.231900 0.770600
8.256300 0.761900
8.280800 0.749000
8.305300 0.732700
8.329700 0.715500
8.354200 0.699000
8.378700 0.682400
8.403100 0.667100
8.427600 0.654400
8.452100 0.641400
8.476500 0.627800
8.501000 0.613500
8.525500 0.599100
8.549900 0.585600
8.574400 0.575600
8.598900 0.556800
8.623300 0.536600
8.647800 0.516300
8.672300 0.495400
8.696700 0.476900
8.721200 0.460100
8.745700 0.444900
8.770100 0.429700
8.794600 0.411900
8.819100 0.393700
8.843500 0.375400
8.868000 0.356900
8.892500 0.334500
8.916900 0.311800
8.941400 0.296600
8.965900 0.285500
8.990300 0.274500
9.014800 0.266100
9.039300 0.258500
9.063800 0.251600
9.088200 0.244200
9.112700 0.239000
9.137200 0.230600
9.161600 0.218900
9.186100 0.204500
9.210600 0.186500
9.235000 0.168200
9.259500 0.150700
9.284000 0.138100
9.308400 0.130200
9.332900 0.117800
9.357400 0.101000
9.381800 0.079500
9.406300 0.043300
9.430800 0.018100
9.455200 0.003700
9.479700 0.000000
9.504200 0.000000
9.528600 0.000000
9.553100 0.000000
9.577600 0.000000
9.602000 0.000000
9.626500 0.000000
9.651000 0.000000
9.675400 0.000000
9.699900 0.000000
9.724400 0.000000
9.748800 0.000000
9.773300 0.000000
9.797800 0.000000
9.822200 0.000000
9.846700 0.000000
9.871200 0.000000
9.895700 0.000000
9.920100 0.000000
9.944600 0.000000
9.969100 0.000000
9.993500 0.000000
10.018000 0.000000
10.042500 0.000000
10.066900 0.000000
10.091400 0.000000
10.115900 0.000000
10.140300 0.000000
10.164800 0.000000
10.189300 0.000000
10.213700 0.000000
10.238200 0.000000
10.262700 0.000000
10.287100 0.000000
10.311600 0.000000
10.336100 0.000000
10.360500 0.000000
10.385000 0.000000
10.409500 0.000000
10.433900 0.000000
10.458400 0.000000
10.482900 0.000800
10.507300 0.003700
10.531800 0.008700
10.556300 0.015800
10.580700 0.025000
10.605200 0.035900
10.629700 0.045100
10.654200 0.054600
10.678600 0.064700
10.703100 0.075100
10.727600 0.084700
10.752000 0.093200
10.776500 0.100300
10.801000 0.106200
10.825400 0.117900
10.849900 0.129200
10.874400 0.139100
10.898800 0.147700
10.923300 0.154900
10.947800 0.161600
10.972200 0.167800
10.996700 0.174000
11.021200 0.182500
11.045600 0.193700
11.070100 0.240400
11.094600 0.279500
11.119000 0.322900
11.143500 0.371100
11.168000 0.423600
11.192400 0.477400
11.216900 0.538000
11.241400 0.589900
11.265800 0.717600
11.290300 1.291300
11.314800 2.039100
11.339200 1.919400
11.363700 2.073100
11.388200 2.141100
11.412600 2.245800
11.437100 2.320400
11.461600 2.385000
11.486100 2.423300
11.510500 2.483000
11.535000 2.540700
11.559500 2.595800
11.583900 2.657500
11.608400 2.619100
11.632900 2.588700
11.657300 2.603500
11.681800 2.559800
11.706300 2.434300
11.730700 2.325700
11.755200 2.295400
11.779700 2.296100
11.804100 2.298400
11.828600 2.300700
11.853100 2.299600
11.877500 2.294300
11.902000 2.278800
11.926500 2.281300
11.950900 2.336200
11.975400 2.440100
11.999900 2.567700
12.024300 2.628300
12.048800 2.975200
12.073300 3.038500
12.097700 3.067400
12.122200 3.087600
12.146700 3.099600
12.171100 3.087900
12.195600 3.078800
12.220100 3.057500
12.244500 2.986300
12.269000 2.862700
12.293500 2.871800
12.318000 3.328400
12.342400 3.466300
12.366900 3.366300
12.391400 2.991700
12.415800 3.606600
12.440300 2.551900
12.464800 2.132300
12.489200 1.784500
12.513700 1.519500
12.538200 1.350000
12.562600 1.270500
12.587100 1.213600
12.611600 1.173600
12.636000 1.160400
12.660500 1.160900
12.685000 1.171700
12.709400 1.185900
12.733900 1.200800
12.758400 1.215800
12.782800 1.230700
12.807300 1.247900
12.831800 1.274000
12.856200 1.274900
12.880700 1.300700
12.905200 1.342600
12.929600 1.398300
12.954100 1.424600
12.978600 1.422400
13.003000 1.418900
13.027500 1.414400
13.052000 1.409600
13.076400 1.406500
13.100900 1.408400
13.125400 1.422700
13.149900 1.447800
13.174300 1.483400
13.198800 1.530400
13.223300 1.607600
13.247700 1.737500
13.272200 1.856800
13.296700 2.043900
13.321100 2.148000
13.345600 2.300100
13.370100 2.517300
13.394500 2.951900
13.419000 3.463400
13.443500 3.679400
13.467900 3.744900
13.492400 3.768300
13.516900 3.994700
13.541300 4.038500
13.565800 4.012400
13.590300 4.081800
13.614700 4.243800
13.639200 3.945300
13.663700 3.594700
13.688100 3.280000
13.712600 2.980400
13.737100 2.752700
13.761500 2.592100
13.786000 2.498500
13.810500 2.470300
13.834900 2.464200
13.859400 2.512500
13.883900 2.553300
13.908400 2.998800
13.932800 3.217300
13.957300 3.635700
13.981800 3.931200
14.006200 4.137600
14.030700 4.291300
14.055200 4.243800
14.079600 4.296500
14.104100 4.472200
14.128600 3.784000
14.153000 3.162300
14.177500 2.696900
14.202000 2.557800
14.226400 2.393400
14.250900 2.464600
14.275400 2.284700
14.299800 1.955800
14.324300 1.878100
14.348800 1.871300
14.373200 1.772700
14.397700 1.652300
14.422200 1.516000
14.446600 1.359400
14.471100 1.312500
14.495600 1.345700
14.520000 1.475300
14.544500 1.684300
14.569000 2.130500
14.593400 2.576600
14.617900 2.652100
14.642400 2.632900
14.666800 2.692900
14.691300 2.769000
14.715800 2.753600
14.740300 2.641800
14.764700 2.607200
14.789200 2.595900
14.813700 2.738200
14.838100 2.842700
14.862600 2.860200
14.887100 2.875300
14.911500 2.897800
14.936000 2.931400
14.960500 2.967100
14.984900 3.050500
15.009400 3.115900
15.033900 3.169900
15.058300 3.198300
15.082800 3.139400
15.107300 3.209000
15.131700 3.269200
15.156200 3.296800
15.180700 3.393700
15.205100 3.457600
15.229600 3.538800
15.254100 3.531600
15.278500 3.482900
15.303000 3.510100
15.327500 3.527000
15.351900 3.555400
15.376400 3.441900
15.400900 3.129400
15.425300 2.831200
15.449800 2.570400
15.474300 2.309200
15.498700 2.161200
15.523200 2.044300
15.547700 1.956700
15.572200 1.992100
15.596600 2.112200
15.621100 2.290600
15.645600 2.445500
15.670000 2.576000
15.694500 2.671500
15.719000 2.768300
15.743400 2.775000
15.767900 2.867700
15.792400 2.798900
15.816800 2.829100
15.841300 2.914100
15.865800 2.910900
15.890200 2.925000
15.914700 2.960400
15.939200 2.931900
15.963600 2.939100
15.988100 2.798000
16.012600 2.803500
16.037000 2.770900
16.061500 2.824000
16.086000 2.804200
16.110400 2.742600
16.134900 2.690900
16.159400 2.575900
16.183800 2.271400
16.208300 1.964400
16.232800 1.817900
16.257200 1.793000
16.281700 1.847800
16.306200 1.905300
16.330600 1.966100
16.355100 2.044800
16.379600 2.140600
16.404100 2.185500
16.428500 2.174500
16.453000 2.132200
16.477500 2.096600
16.501900 2.073700
16.526400 2.060800
16.550900 2.072700
16.575300 2.052800
16.599800 2.018200
16.624300 1.977800
16.648700 1.909200
16.673200 1.883400
16.697700 1.879800
16.722100 1.880800
16.746600 1.884500
16.771100 1.891800
16.795500 1.900500
16.820000 1.907600
16.844500 1.912800
16.868900 1.914400
16.893400 1.893700
16.917900 1.873600
16.942300 1.857500
16.966800 1.848100
16.991300 1.853800
17.015700 1.865000
17.040200 1.876700
17.064700 1.890500
17.089100 1.976600
17.113600 1.983200
17.138100 1.974400
17.162500 1.956800
17.187000 1.871400
17.211500 1.746100
17.236000 1.619700
17.260400 1.483900
17.284900 1.652900
17.309400 1.160700
17.333800 1.065300
17.358300 1.033300
17.382800 1.001900
17.407200 0.970600
17.431700 0.937600
17.456200 0.914900
17.480600 0.896600
17.505100 0.886400
17.529600 0.876900
17.554000 0.868600
17.578500 0.863100
17.603000 0.858700
17.627400 0.856100
17.651900 0.850500
17.676400 0.855500
17.700800 0.862000
17.725300 0.873400
17.749800 0.890800
17.774200 0.901500
17.798700 0.890200
17.823200 0.889300
17.847600 0.896000
17.872100 0.905800
17.896600 0.918100
17.921000 0.931000
17.945500 0.942900
17.970000 0.951400
17.994500 0.951900
18.018900 0.953300
18.043400 0.956200
18.067900 0.959800
18.092300 0.963600
18.116800 0.973700
18.141300 0.991100
18.165700 1.007700
18.190200 1.023500
18.214700 1.037200
18.239100 1.048300
18.263600 1.058500
18.288100 1.069700
18.312500 1.081900
18.337000 1.095200
18.361500 1.109300
18.385900 1.125300
18.410400 1.158300
18.434900 1.182400
18.459300 1.204800
18.483800 1.226500
18.508300 1.236800
18.532700 1.268100
18.557200 1.315400
18.581700 1.372200
18.606100 1.430700
18.630600 1.482800
18.655100 1.535500
18.679500 1.621000
18.704000 1.713300
18.728500 1.865900
18.752900 1.967700
18.777400 2.039100
18.801900 2.023600
18.826400 1.978100
18.850800 2.010700
18.875300 2.019200
18.899800 1.984900
18.924200 1.933800
18.948700 1.891200
18.973200 1.853600
18.997600 1.817100
19.022100 1.793600
19.046600 1.845600
19.071000 1.884500
19.095500 1.935600
19.120000 2.027300
19.144400 2.158900
19.168900 2.288400
19.193400 2.455200
19.217800 2.776200
19.242300 2.975700
19.266800 2.918700
19.291200 2.804700
19.315700 2.736000
19.340200 2.765500
19.364600 2.819400
19.389100 2.677900
19.413600 2.624400
19.438000 2.652000
19.462500 2.696100
19.487000 2.767600
19.511400 2.878900
19.535900 2.995500
19.560400 3.117400
19.584800 3.299600
19.609300 3.432600
19.633800 3.300500
19.658300 3.053000
19.682700 2.904100
19.707200 2.784300
19.731700 2.741000
19.756100 2.705800
19.780600 2.679100
19.805100 2.674200
19.829500 2.716300
19.854000 2.747500
19.878500 2.708000
19.902900 2.671000
19.927400 2.706600
19.951900 2.599800
19.976300 2.399400
20.000800 2.292600
20.025300 2.169900
20.049700 2.044900
20.074200 1.971100
20.098700 1.859900
20.123100 1.723900
20.147600 1.573200
20.172100 1.401600
20.196500 1.291600
20.221000 1.200000
20.245500 1.130900
20.269900 1.071400
20.294400 0.944200
20.318900 0.907000
20.343300 0.910300
20.367800 0.866500
20.392300 0.867800
20.416700 0.871800
20.441200 0.878100
20.465700 0.884700
20.490200 0.891300
20.514600 0.897800
20.539100 0.970300
20.563600 0.993900
20.588000 1.020800
20.612500 1.037300
20.637000 1.050400
20.661400 1.059800
20.685900 1.064600
20.710400 1.067100
20.734800 1.056600
20.759300 1.062700
20.783800 1.069900
20.808200 1.078400
20.832700 1.088800
20.857200 1.104400
20.881600 1.135200
20.906100 1.161100
20.930600 1.196200
20.955000 1.234200
20.979500 1.341400
21.004000 1.338300
21.028400 1.338200
21.052900 1.352500
21.077400 1.354600
21.101800 1.377100
21.126300 1.383400
21.150800 1.388900
21.175200 1.394700
21.199700 1.397200
21.224200 1.404000
21.248700 1.407600
21.273100 1.409400
21.297600 1.420100
21.322100 1.465800
21.346500 1.436800
21.371000 1.430100
21.395500 1.472600
21.419900 1.527800
21.444400 1.615300
21.468900 1.755900
21.493300 1.942200
21.517800 2.109000
21.542300 2.183300
21.566700 2.340900
21.591200 2.549000
21.615700 2.891700
21.640100 3.253700
21.664600 4.291500
21.689100 3.249600
21.713500 2.882700
21.738000 2.665700
21.762500 2.580500
21.786900 2.506000
21.811400 2.534400
21.835900 2.536200
21.860300 2.477600
21.884800 2.418300
21.909300 2.320100
21.933700 2.221600
21.958200 2.122900
21.982700 2.059800
22.007100 2.041500
22.031600 2.021000
22.056100 2.033900
22.080600 2.005400
22.105000 1.983000
22.129500 1.932200
22.154000 1.936600
22.178400 1.953700
22.202900 1.985200
22.227400 2.043700
22.251800 2.079000
22.276300 2.104600
22.300800 2.072800
22.325200 2.022600
22.349700 1.990600
22.374200 1.962600
22.398600 2.050100
22.423100 1.988600
22.447600 1.941700
22.472000 1.917500
22.496500 1.913600
22.521000 1.789300
22.545400 1.717200
22.569900 1.647100
22.594400 1.579800
22.618800 1.517200
22.643300 1.461000
22.667800 1.394800
22.692200 1.350700
22.716700 1.314100
22.741200 1.284600
22.765600 1.273900
22.790100 1.256700
22.814600 1.231100
22.839000 1.210300
22.863500 1.196800
22.888000 1.196900
22.912500 1.205500
22.936900 1.221300
22.961400 1.247800
22.985900 1.284400
23.010300 1.323300
23.034800 1.356800
23.059300 1.393000
23.083700 1.415000
23.108200 1.439800
23.132700 1.467500
23.157100 1.494700
23.181600 1.561100
23.206100 1.633100
23.230500 1.790600
23.255000 1.822000
23.279500 1.873000
23.303900 1.935500
23.328400 1.995600
23.352900 2.069800
23.377300 2.147000
23.401800 2.227400
23.426300 2.290600
23.450700 2.324600
23.475200 2.333500
23.499700 2.321900
23.524100 2.300600
23.548600 2.271100
23.573100 2.240300
23.597500 2.196200
23.622000 2.195500
23.646500 2.025600
23.670900 1.963800
23.695400 1.973100
23.719900 1.988500
23.744400 2.017100
23.768800 2.051600
23.793300 2.093300
23.817800 2.130600
23.842200 2.191200
23.866700 2.269000
23.891200 2.295800
23.915600 2.293100
23.940100 2.280400
23.964600 2.266300
23.989000 2.277800
24.013500 2.293000
24.038000 2.411200
24.062400 2.603000
24.086900 2.774600
24.111400 2.887800
24.135800 2.957100
24.160300 2.948000
24.184800 2.889600
24.209200 2.811700
24.233700 2.722200
24.258200 2.686300
24.282600 2.727500
24.307100 2.714500
24.331600 2.684300
24.356000 2.640700
24.380500 2.596700
24.405000 2.539100
24.429400 2.486100
24.453900 2.448700
24.478400 2.420400
24.502900 2.395700
24.527300 2.374600
24.551800 2.416000
24.576300 2.486900
24.600700 2.523500
24.625200 2.552800
24.649700 2.568000
24.674100 2.578500
24.698600 2.677000
24.723100 2.778700
24.747500 2.880800
24.772000 2.906600
24.796500 2.876700
24.820900 2.846400
24.845400 2.760500
24.869900 2.693800
24.894300 2.468400
24.918800 2.399300
24.943300 2.239500
24.967700 2.084500
24.992200 2.080900
25.016700 2.087300
25.041100 2.108400
25.065600 2.172300
25.090100 2.550600
25.114500 2.722800
25.139000 2.762100
25.163500 2.762900
25.187900 2.962300
25.212400 3.197100
25.236900 3.415400
25.261300 3.566700
25.285800 3.031500
25.310300 2.888400
25.334800 2.847900
25.359200 2.788900
25.383700 2.766200
25.408200 2.821300
25.432600 2.921900
25.457100 3.980300
25.481600 3.281200
25.506000 3.282900
25.530500 3.282500
25.555000 3.289700
25.579400 3.305900
25.603900 3.312000
25.628400 3.294500
25.652800 3.192800
25.677300 3.049400
25.701800 2.989400
25.726200 2.944100
25.750700 2.904400
25.775200 2.872200
25.799600 2.838900
25.824100 2.807200
25.848600 2.783500
25.873000 2.769600
25.897500 2.764400
25.922000 2.779100
25.946400 2.825100
25.970900 2.971200
25.995400 2.874900
26.019800 2.802300
26.044300 2.819500
26.068800 2.840500
26.093200 2.892500
26.117700 2.965300
26.142200 3.058200
26.166700 3.203800
26.191100 3.463100
26.215600 3.690400
26.240100 3.803200
26.264500 3.657500
26.289000 3.478100
26.313500 3.317400
26.337900 3.195600
26.362400 3.058100
26.386900 2.949700
26.411300 2.859600
26.435800 2.784600
26.460300 2.702400
26.484700 2.603800
26.509200 2.595400
26.533700 2.576000
26.558100 2.569100
26.582600 2.586000
26.607100 2.622800
26.631500 2.869000
26.656000 2.927700
26.680500 2.922900
26.704900 3.022000
26.729400 3.167200
26.753900 3.186300
26.778300 3.071000
26.802800 2.829100
26.827300 2.875100
26.851700 2.730500
26.876200 2.606000
26.900700 2.571800
26.925100 2.588100
26.949600 2.604500
26.974100 2.603300
26.998600 2.592500
27.023000 2.606300
27.047500 2.635500
27.072000 2.629600
27.096400 2.651900
27.120900 2.683200
27.145400 2.648800
27.169800 2.606400
27.194300 2.617000
27.218800 2.698800
27.243200 2.923100
27.267700 3.234700
27.292200 3.283900
27.316600 3.487300
27.341100 3.349400
27.365600 3.051900
27.390000 2.883600
27.414500 2.794200
27.439000 2.710200
27.463400 2.596500
27.487900 2.493900
27.512400 2.474600
27.536800 2.070000
27.561300 1.789500
27.585800 1.602600
27.610200 1.544600
27.634700 1.521600
27.659200 1.559400
27.683600 1.653900
27.708100 1.882400
27.732600 2.343900
27.757000 3.330000
27.781500 4.075200
27.806000 4.098300
27.830500 3.801800
27.854900 3.462200
27.879400 3.105300
27.903900 2.821300
27.928300 2.645600
27.952800 2.469300
27.977300 2.372600
28.001700 2.301300
28.026200 2.236700
28.050700 2.174800
28.075100 2.110400
28.099600 2.061000
28.124100 2.025800
28.148500 2.002100
28.173000 1.994300
28.197500 2.010900
28.221900 2.129600
28.246400 2.179700
28.270900 2.078000
28.295300 2.022100
28.319800 1.984300
28.344300 1.982000
28.368700 1.992300
28.393200 2.009700
28.417700 2.037200
28.442100 2.077900
28.466600 2.134700
28.491100 2.206400
28.515500 2.267600
28.540000 2.315900
28.564500 2.352500
28.589000 2.392000
28.613400 2.431000
28.637900 2.451000
28.662400 2.479400
28.686800 2.573300
28.711300 2.556500
28.735800 2.579700
28.760200 2.577700
28.784700 2.719200
28.809200 2.861200
28.833600 2.902000
28.858100 2.956800
28.882600 2.992800
28.907000 2.951700
28.931500 2.864600
28.956000 2.774300
28.980400 2.719800
29.004900 2.720500
29.029400 2.710300
29.053800 2.697000
29.078300 2.617600
29.102800 2.647300
29.127200 2.687500
29.151700 2.598400
29.176200 2.429000
29.200600 2.273300
29.225100 2.146100
29.249600 2.017800
29.274000 1.970900
29.298500 1.928900
29.323000 1.929300
29.347400 2.004100
29.371900 2.028500
29.396400 2.028500
29.420900 2.069200
29.445300 2.136800
29.469800 2.231000
29.494300 2.410000
29.518700 2.675400
29.543200 2.770000
29.567700 2.707900
29.592100 2.469000
29.616600 2.316100
29.641100 2.175100
29.665500 2.081300
29.690000 2.028600
29.714500 2.021700
29.738900 2.051100
29.763400 2.127100
29.787900 2.345500
29.812300 2.536900
29.836800 2.555900
29.861300 2.622400
29.885700 2.712500
29.910200 2.793600
29.934700 2.839900
29.959100 2.903700
29.983600 2.964900
30.008100 3.048700
30.032500 3.147200
30.057000 3.256100
30.081500 3.673900
30.105900 3.574500
30.130400 3.478700
30.154900 3.338300
30.179300 3.240900
30.203800 3.162200
30.228300 3.083800
30.252800 3.002600
30.277200 2.934000
30.301700 2.891400
30.326200 2.824300
30.350600 2.714100
30.375100 2.594300
30.399600 2.466200
30.424000 2.300100
30.448500 2.061500
30.473000 1.933400
30.497400 1.879400
30.521900 1.851000
30.546400 1.856200
30.570800 2.166500
30.595300 2.308000
30.619800 2.380400
30.644200 2.445000
30.668700 2.550700
30.693200 2.677900
30.717600 2.942600
30.742100 3.203400
30.766600 3.280700
30.791000 2.989400
30.815500 2.777400
30.840000 2.932800
30.864400 3.058100
30.888900 2.998400
30.913400 2.799200
30.937800 2.635500
30.962300 2.439000
30.986800 2.308000
31.011200 2.169100
31.035700 2.046600
31.060200 1.987000
31.084700 1.983600
31.109100 2.000600
31.133600 2.030600
31.158100 2.074200
31.182500 2.115700
31.207000 2.192600
31.231500 2.266600
31.255900 2.381200
31.280400 2.553100
31.304900 2.762700
31.329300 3.081400
31.353800 3.132800
31.378300 3.103800
31.402700 3.035800
31.427200 2.871100
31.451700 2.688600
31.476100 2.545300
31.500600 2.476400
31.525100 2.432200
31.549500 2.386800
31.574000 2.316100
31.598500 2.114400
31.622900 2.022800
31.647400 1.966300
31.671900 1.949300
31.696300 1.988200
31.720800 2.073300
31.745300 2.152400
31.769700 2.224400
31.794200 2.282700
31.818700 2.317600
31.843200 2.272800
31.867600 2.253300
31.892100 2.129200
31.916600 2.136300
31.941000 2.150900
31.965500 2.174300
31.990000 2.196400
32.014400 2.228800
32.038900 2.267700
32.063400 2.315600
32.087800 2.393900
32.112300 2.459300
32.136800 2.504700
32.161200 2.516000
32.185700 2.523200
32.210200 2.463900
32.234600 2.436800
32.259100 2.459800
32.283600 2.499100
32.308000 2.463900
32.332500 2.344500
32.357000 2.340200
32.381400 2.371500
32.405900 2.412600
32.430400 2.469900
32.454800 2.582400
32.479300 2.731600
32.503800 2.887700
32.528200 3.023400
32.552700 3.130800
32.577200 3.176900
32.601600 3.194300
32.626100 3.102300
32.650600 3.052100
32.675100 3.072800
32.699500 3.118900
32.724000 3.205400
32.748500 3.408500
32.772900 3.424400
32.797400 3.379700
32.821900 3.443300
32.846300 3.322500
32.870800 3.093500
32.895300 2.950900
32.919700 2.914100
32.944200 2.831500
32.968700 2.751200
32.993100 2.647900
33.017600 2.633500
33.042100 2.617100
33.066500 2.590900
33.091000 2.565300
33.115500 2.671500
33.139900 2.655900
33.164400 2.589600
33.188900 2.519400
33.213300 2.488800
33.237800 2.458000
33.262300 2.473900
33.286700 2.477600
33.311200 2.473200
33.335700 2.430300
33.360100 2.407900
33.384600 2.388800
33.409100 2.323200
33.433500 2.268600
33.458000 2.185000
33.482500 2.128000
33.507000 2.184000
33.531400 2.330500
33.555900 2.113800
33.580400 2.050400
33.604800 2.012800
33.629300 1.979400
33.653800 1.902800
33.678200 1.866300
33.702700 1.867200
33.727200 1.905100
33.751600 1.942500
33.776100 1.975900
33.800600 1.984600
33.825000 2.033300
33.849500 2.230600
33.874000 2.558400
33.898400 2.972000
33.922900 2.762300
33.947400 2.927200
33.971800 2.941500
33.996300 3.030100
34.020800 3.162300
34.045200 3.300900
34.069700 3.376300
34.094200 3.465600
34.118600 3.474400
34.143100 3.424600
34.167600 3.324800
34.192000 3.200500
34.216500 3.093400
34.241000 3.002700
34.265400 2.926600
34.289900 2.857100
34.314400 2.835400
34.338900 2.837600
34.363300 2.845900
34.387800 2.872200
34.412300 2.889300
34.436700 2.898200
34.461200 2.941300
34.485700 2.993300
34.510100 3.074000
34.534600 3.069200
34.559100 2.941400
34.583500 2.830700
34.608000 2.688600
34.632500 2.490000
34.656900 2.327000
34.681400 2.227900
34.705900 2.137600
34.730300 2.072400
34.754800 2.061100
34.779300 2.051900
34.803700 2.071500
34.828200 2.009700
34.852700 2.061800
34.877100 2.200800
34.901600 2.049000
34.926100 1.990800
34.950500 1.946800
34.975000 1.961000
34.999500 2.000200
35.023900 2.026200
35.048400 2.067600
35.072900 2.121000
35.097300 2.187000
35.121800 2.266700
35.146300 2.350700
35.170800 2.435000
35.195200 2.621600
35.219700 2.854900
35.244200 3.145700
35.268600 3.655700
35.293100 3.811100
35.317600 3.780700
35.342000 3.706700
35.366500 3.625100
35.391000 3.497200
35.415400 3.373100
35.439900 3.261200
35.464400 3.168200
35.488800 3.101900
35.513300 3.231100
35.537800 2.848700
35.562200 2.797100
35.586700 2.775900
35.611200 2.769400
35.635600 2.778600
35.660100 2.780800
35.684600 2.796300
35.709000 2.801500
35.733500 2.903200
35.758000 2.997500
35.782400 3.015100
35.806900 2.972500
35.831400 2.963300
35.855800 2.880400
35.880300 2.827800
35.904800 2.767800
35.929300 2.856200
35.953700 2.760200
35.978200 2.704700
36.002700 2.638100
36.027100 2.537100
36.051600 2.436200
36.076100 2.390300
36.100500 2.317000
36.125000 2.415600
36.149500 2.108000
36.173900 2.032900
36.198400 1.979500
36.222900 1.946300
36.247300 1.895000
36.271800 1.889600
36.296300 1.886600
36.320700 1.889600
36.345200 1.893000
36.369700 1.900800
36.394100 1.909900
36.418600 1.916100
36.443100 1.920300
36.467500 1.921900
36.492000 1.921500
36.516500 2.027000
36.540900 1.968700
36.565400 1.912700
36.589900 1.869000
36.614300 1.727500
36.638800 1.637800
36.663300 1.577500
36.687700 1.517000
36.712200 1.439100
36.736700 1.363100
36.761200 1.328800
36.785600 1.299600
36.810100 1.168700
36.834600 1.091200
36.859000 1.030900
36.883500 0.980000
36.908000 0.946400
36.932400 0.911500
36.956900 0.881400
36.981400 0.832500
37.005800 0.791600
37.030300 0.747600
37.054800 0.540800
37.079200 0.493500
37.103700 0.453200
37.128200 0.418100
37.152600 0.386500
37.177100 0.354000
37.201600 0.312600
37.226000 0.276800
37.250500 0.229800
37.275000 0.171900
37.299400 0.103100
37.323900 0.073800
37.348400 0.060100
37.372800 0.046100
37.397300 0.035000
37.421800 0.032700
37.446200 0.030400
37.470700 0.028200
37.495200 0.026200
37.519600 0.024200
37.544100 0.021100
37.568600 0.017200
37.593100 0.013200
37.617500 0.009700
37.642000 0.006800
37.666500 0.004400
37.690900 0.002500
37.715400 0.001100
37.739900 0.000300
37.764300 0.000000
37.788800 0.000000
37.813300 0.000000
37.837700 0.000000
37.862200 0.000000
37.886700 0.000000
37.911100 0.000000
37.935600 0.000000
37.960100 0.000000
37.984500 0.000000
38.009000 0.000000
38.033500 0.000000
38.057900 0.000000
38.082400 0.000000
38.106900 0.000000
38.131300 0.000000
38.155800 0.000000
38.180300 0.000000
38.204700 0.000000
38.229200 0.000000
38.253700 0.000000
38.278100 0.000000
38.302600 0.000000
38.327100 0.000000
38.351500 0.000000
38.376000 0.000000
38.400500 0.000000
38.425000 0.000000
38.449400 0.000000
38.473900 0.000000
38.498400 0.000000
38.522800 0.000000
38.547300 0.000000
38.571800 0.000000
38.596200 0.000000
38.620700 0.000000
38.645200 0.000000
38.669600 0.000000
38.694100 0.000000
38.718600 0.000000
38.743000 0.000000
38.767500 0.000000
38.792000 0.000000
38.816400 0.000000
38.840900 0.000000
38.865400 0.000000
38.889800 0.000000
38.914300 0.000000
38.938800 0.000000
38.963200 0.000000
38.987700 0.000000
39.012200 0.000000
39.036600 0.000000
39.061100 0.000000
39.085600 0.000000
39.110000 0.000000
39.134500 0.000000
39.159000 0.000000
39.183500 0.000000
39.207900 0.000000
39.232400 0.000000
39.256900 0.000000
39.281300 0.000000
39.305800 0.000000
39.330300 0.000000
39.354700 0.000000
39.379200 0.000000
39.403700 0.000000
39.428100 0.000000
39.452600 0.000000
39.477100 0.000000
39.501500 0.000000
39.526000 0.000000
39.550500 0.000000
39.574900 0.000000
39.599400 0.000000
39.623900 0.000000
39.648300 0.000000
39.672800 0.000000
39.697300 0.000000
39.721700 0.000000
39.746200 0.000000
39.770700 0.000000
39.795100 0.000000
39.819600 0.000000
39.844100 0.000000
39.868500 0.000000
39.893000 0.000000
39.917500 0.000000
39.941900 0.000000
39.966400 0.000000
39.990900 0.000000
e
