set title 'mp-1247 - Density of States'
set xlabel 'Energy (eV)'
set ylabel 'DOS (states/eV)'
set grid
set xrange [-10:10]
set yrange [0:28.753]
set xzeroaxis lt -1
set terminal png size 800,600
set output 'mp-1247_dos_gnuplot.png'
plot '-' using 1:2 with lines title 'DOS'
-5.075200 0.000000
-5.064000 0.000000
-5.052800 0.000000
-5.041700 0.000000
-5.030500 0.000000
-5.019400 0.000000
-5.008200 0.000000
-4.997100 0.000000
-4.985900 0.000000
-4.974700 0.000000
-4.963600 0.000000
-4.952400 0.000000
-4.941300 0.000000
-4.930100 0.000000
-4.919000 0.000000
-4.907800 0.000000
-4.896600 0.000000
-4.885500 0.000000
-4.874300 0.000000
-4.863200 0.000000
-4.852000 0.000000
-4.840900 0.000000
-4.829700 0.000000
-4.818500 0.000000
-4.807400 0.000000
-4.796200 0.000000
-4.785100 0.000000
-4.773900 0.000000
-4.762700 0.000000
-4.751600 0.000000
-4.740400 0.000000
-4.729300 0.000000
-4.718100 0.000000
-4.707000 0.000000
-4.695800 0.000000
-4.684600 0.000000
-4.673500 0.000000
-4.662300 0.000000
-4.651200 0.000000
-4.640000 0.000000
-4.628900 0.000000
-4.617700 0.000000
-4.606500 0.000000
-4.595400 0.000000
-4.584200 0.000000
-4.573100 0.000000
-4.561900 0.000000
-4.550800 0.000000
-4.539600 0.000000
-4.528400 0.000000
-4.517300 0.000000
-4.506100 0.000000
-4.495000 0.000000
-4.483800 0.000000
-4.472600 0.000000
-4.461500 0.000000
-4.450300 0.000000
-4.439200 0.000000
-4.428000 0.000000
-4.416900 0.000000
-4.405700 0.000000
-4.394500 0.000000
-4.383400 0.000000
-4.372200 0.000000
-4.361100 0.000000
-4.349900 0.000000
-4.338800 0.000000
-4.327600 0.000000
-4.316400 0.000000
-4.305300 0.000000
-4.294100 0.000000
-4.283000 0.000000
-4.271800 0.000000
-4.260600 0.000000
-4.249500 0.000000
-4.238300 0.000000
-4.227200 0.000000
-4.216000 0.000000
-4.204900 0.000000
-4.193700 0.000000
-4.182500 0.000000
-4.171400 0.000000
-4.160200 0.000000
-4.149100 0.000000
-4.137900 0.000000
-4.126800 0.000000
-4.115600 0.000000
-4.104400 0.000000
-4.093300 0.000000
-4.082100 0.000000
-4.071000 0.000000
-4.059800 0.000100
-4.048700 0.020600
-4.037500 0.075600
-4.026300 0.165200
-4.015200 0.288600
-4.004000 0.396900
-3.992900 0.443700
-3.981700 0.468200
-3.970500 0.472500
-3.959400 0.489600
-3.948200 0.529400
-3.937100 0.570300
-3.925900 0.612200
-3.914800 0.654700
-3.903600 0.696800
-3.892400 0.738500
-3.881300 0.774800
-3.870100 0.800400
-3.859000 0.816200
-3.847800 0.825700
-3.836700 0.836000
-3.825500 0.854900
-3.814300 0.876600
-3.803200 0.899200
-3.792000 0.922300
-3.780900 0.946100
-3.769700 0.970100
-3.758600 0.994200
-3.747400 1.018200
-3.736200 1.042100
-3.725100 1.063900
-3.713900 1.086000
-3.702800 1.109100
-3.691600 1.133500
-3.680400 1.158400
-3.669300 1.180000
-3.658100 1.197400
-3.647000 1.211100
-3.635800 1.222500
-3.624700 1.236100
-3.613500 1.251800
-3.602300 1.268200
-3.591200 1.284900
-3.580000 1.301900
-3.568900 1.319000
-3.557700 1.336200
-3.546600 1.353300
-3.535400 1.370400
-3.524200 1.387400
-3.513100 1.405000
-3.501900 1.423100
-3.490800 1.441500
-3.479600 1.459800
-3.468500 1.478000
-3.457300 1.496300
-3.446100 1.515000
-3.435000 1.534200
-3.423800 1.553700
-3.412700 1.573500
-3.401500 1.593700
-3.390300 1.681600
-3.379200 1.762900
-3.368000 1.838500
-3.356900 1.909600
-3.345700 1.797500
-3.334600 1.802200
-3.323400 1.814700
-3.312200 1.827100
-3.301100 1.853700
-3.289900 1.880700
-3.278800 1.919800
-3.267600 1.950700
-3.256500 1.968000
-3.245300 1.977100
-3.234100 1.970500
-3.223000 1.958900
-3.211800 1.948600
-3.200700 1.945900
-3.189500 1.946400
-3.178400 1.949200
-3.167200 1.955500
-3.156000 1.962500
-3.144900 1.968100
-3.133700 1.972800
-3.122600 1.976300
-3.111400 1.985900
-3.100200 1.981900
-3.089100 1.959400
-3.077900 1.923800
-3.066800 1.884400
-3.055600 1.855400
-3.044500 1.908200
-3.033300 1.976200
-3.022100 2.057900
-3.011000 2.154700
-2.999800 2.060900
-2.988700 2.123000
-2.977500 2.185800
-2.966400 2.238000
-2.955200 2.274700
-2.944000 2.303900
-2.932900 2.335500
-2.921700 2.344100
-2.910600 2.343300
-2.899400 2.335900
-2.888300 2.322100
-2.877100 2.295300
-2.865900 2.269500
-2.854800 2.246800
-2.843600 2.231900
-2.832500 2.235500
-2.821300 2.245700
-2.810100 2.260400
-2.799000 2.278200
-2.787800 2.296800
-2.776700 2.320700
-2.765500 2.348400
-2.754400 2.376700
-2.743200 2.412700
-2.732000 2.451600
-2.720900 2.495500
-2.709700 2.540800
-2.698600 2.618400
-2.687400 2.669700
-2.676300 2.738000
-2.665100 2.849500
-2.653900 2.911100
-2.642800 2.926000
-2.631600 2.919700
-2.620500 2.914500
-2.609300 2.923100
-2.598200 2.958200
-2.587000 3.006000
-2.575800 3.067800
-2.564700 3.134700
-2.553500 3.204100
-2.542400 3.275700
-2.531200 3.309400
-2.520000 3.360500
-2.508900 3.386500
-2.497700 3.456500
-2.486600 3.759500
-2.475400 3.749800
-2.464300 3.729200
-2.453100 3.590000
-2.441900 3.658100
-2.430800 3.745400
-2.419600 3.829300
-2.408500 3.890800
-2.397300 4.022300
-2.386200 3.736600
-2.375000 3.662900
-2.363800 3.596400
-2.352700 3.586800
-2.341500 3.553500
-2.330400 3.512200
-2.319200 3.448600
-2.308100 3.355700
-2.296900 3.285200
-2.285700 3.277700
-2.274600 3.273200
-2.263400 3.257200
-2.252300 3.184400
-2.241100 3.177200
-2.229900 3.153200
-2.218800 3.192300
-2.207600 3.135500
-2.196500 3.110200
-2.185300 2.873600
-2.174200 2.854000
-2.163000 2.875300
-2.151800 2.907900
-2.140700 2.989700
-2.129500 3.099600
-2.118400 3.256200
-2.107200 3.465900
-2.096100 3.626100
-2.084900 4.061200
-2.073700 3.941000
-2.062600 4.081000
-2.051400 4.194200
-2.040300 4.201700
-2.029100 4.225600
-2.018000 4.225600
-2.006800 4.403900
-1.995600 4.336100
-1.984500 4.361300
-1.973300 4.396700
-1.962200 4.580700
-1.951000 4.679500
-1.939800 4.725000
-1.928700 5.196100
-1.917500 5.880800
-1.906400 5.337300
-1.895200 5.420400
-1.884100 5.409800
-1.872900 5.417500
-1.861700 5.270100
-1.850600 5.237800
-1.839400 5.233100
-1.828300 5.238400
-1.817100 5.234800
-1.806000 5.275100
-1.794800 5.337300
-1.783600 5.426700
-1.772500 5.496200
-1.761300 5.513600
-1.750200 5.660900
-1.739000 5.639300
-1.727900 5.584800
-1.716700 5.596800
-1.705500 5.755600
-1.694400 5.425000
-1.683200 5.074500
-1.672100 5.373700
-1.660900 6.184800
-1.649700 6.591800
-1.638600 6.688500
-1.627400 6.790500
-1.616300 6.870400
-1.605100 6.949600
-1.594000 6.903400
-1.582800 6.822600
-1.571600 6.869200
-1.560500 6.990300
-1.549300 7.120200
-1.538200 7.318200
-1.527000 7.453800
-1.515900 7.574100
-1.504700 7.690000
-1.493500 7.853700
-1.482400 8.046800
-1.471200 8.481200
-1.460100 8.626700
-1.448900 8.059600
-1.437800 6.768700
-1.426600 4.859200
-1.415400 5.067800
-1.404300 5.028300
-1.393100 4.955700
-1.382000 4.516900
-1.370800 4.221500
-1.359600 4.072600
-1.348500 4.003000
-1.337300 3.880600
-1.326200 3.768800
-1.315000 3.652000
-1.303900 3.539000
-1.292700 3.478600
-1.281500 3.652800
-1.270400 3.326600
-1.259200 3.053100
-1.248100 2.843100
-1.236900 2.732100
-1.225800 2.743900
-1.214600 2.785200
-1.203400 2.823000
-1.192300 2.858200
-1.181100 2.889400
-1.170000 2.915600
-1.158800 2.940800
-1.147700 2.965200
-1.136500 2.990200
-1.125300 3.018800
-1.114200 3.052600
-1.103000 3.086200
-1.091900 3.122800
-1.080700 3.154300
-1.069500 3.184700
-1.058400 3.224700
-1.047200 3.277000
-1.036100 3.358300
-1.024900 3.453300
-1.013800 3.539300
-1.002600 3.545800
-0.991400 3.621300
-0.980300 3.696000
-0.969100 3.747500
-0.958000 3.752600
-0.946800 3.778400
-0.935700 3.833000
-0.924500 3.854300
-0.913300 3.948000
-0.902200 4.066500
-0.891000 4.057500
-0.879900 4.097500
-0.868700 4.145300
-0.857600 4.201200
-0.846400 4.253700
-0.835200 4.298100
-0.824100 4.348400
-0.812900 4.347900
-0.801800 4.368400
-0.790600 4.406500
-0.779400 4.442900
-0.768300 4.606500
-0.757100 4.673400
-0.746000 4.807200
-0.734800 4.934200
-0.723700 4.980900
-0.712500 5.225900
-0.701300 5.239500
-0.690200 5.298700
-0.679000 5.386000
-0.667900 5.453000
-0.656700 5.427900
-0.645600 5.340400
-0.634400 5.300300
-0.623200 5.386300
-0.612100 5.372000
-0.600900 5.441900
-0.589800 5.219700
-0.578600 4.739000
-0.567500 4.307700
-0.556300 4.112400
-0.545100 3.897500
-0.534000 3.612700
-0.522800 3.326400
-0.511700 3.211900
-0.500500 3.166300
-0.489300 3.123800
-0.478200 3.156300
-0.467000 3.229700
-0.455900 3.332500
-0.444700 3.470300
-0.433600 3.638500
-0.422400 3.886100
-0.411200 4.227400
-0.400100 4.928200
-0.388900 5.288200
-0.377800 5.491300
-0.366600 6.036900
-0.355500 6.569100
-0.344300 6.852000
-0.333100 8.529000
-0.322000 11.358400
-0.310800 14.051500
-0.299700 12.970100
-0.288500 12.371200
-0.277400 11.318900
-0.266200 10.478300
-0.255000 10.390800
-0.243900 10.021000
-0.232700 9.900000
-0.221600 9.853700
-0.210400 9.479300
-0.199200 8.657000
-0.188100 8.526700
-0.176900 8.411400
-0.165800 8.009000
-0.154600 7.961200
-0.143500 8.024900
-0.132300 8.035600
-0.121100 8.049200
-0.110000 8.168900
-0.098800 8.285000
-0.087700 7.899900
-0.076500 7.860100
-0.065400 7.808200
-0.054200 7.728400
-0.043000 7.626800
-0.031900 7.515500
-0.020700 7.357400
-0.009600 7.144500
0.001600 6.973600
0.012700 6.747500
0.023900 6.197400
0.035100 5.533400
0.046200 5.005700
0.057400 5.440500
0.068500 5.472500
0.079700 3.892500
0.090900 1.823300
0.102000 1.375400
0.113200 0.957900
0.124300 0.524700
0.135500 0.181700
0.146600 0.025100
0.157800 0.000000
0.169000 0.000000
0.180100 0.000000
0.191300 0.000000
0.202400 0.000000
0.213600 0.000000
0.224700 0.000000
0.235900 0.000000
0.247100 0.000000
0.258200 0.000000
0.269400 0.000000
0.280500 0.000000
0.291700 0.000000
0.302900 0.000000
0.314000 0.000000
0.325200 0.000000
0.336300 0.000000
0.347500 0.000000
0.358600 0.000000
0.369800 0.000000
0.381000 0.000000
0.392100 0.000000
0.403300 0.000000
0.414400 0.000000
0.425600 0.000000
0.436700 0.000000
0.447900 0.000000
0.459100 0.000000
0.470200 0.000000
0.481400 0.000000
0.492500 0.000000
0.503700 0.000000
0.514800 0.000000
0.526000 0.000000
0.537200 0.000000
0.548300 0.000000
0.559500 0.000000
0.570600 0.000000
0.581800 0.000000
0.593000 0.000000
0.604100 0.000000
0.615300 0.000000
0.626400 0.000000
0.637600 0.000000
0.648700 0.000000
0.659900 0.000000
0.671100 0.000000
0.682200 0.000000
0.693400 0.000000
0.704500 0.000000
0.715700 0.000000
0.726800 0.000000
0.738000 0.000000
0.749200 0.000000
0.760300 0.000000
0.771500 0.000000
0.782600 0.000000
0.793800 0.000000
0.804900 0.000000
0.816100 0.000000
0.827300 0.000000
0.838400 0.000000
0.849600 0.000000
0.860700 0.000000
0.871900 0.000000
0.883100 0.000000
0.894200 0.000000
0.905400 0.000000
0.916500 0.000000
0.927700 0.000000
0.938800 0.000000
0.950000 0.000000
0.961200 0.000000
0.972300 0.000000
0.983500 0.000000
0.994600 0.000000
1.005800 0.000000
1.016900 0.000000
1.028100 0.000000
1.039300 0.000000
1.050400 0.000000
1.061600 0.000000
1.072700 0.000000
1.083900 0.000000
1.095000 0.000000
1.106200 0.000000
1.117400 0.000000
1.128500 0.000000
1.139700 0.000000
1.150800 0.000000
1.162000 0.000000
1.173200 0.000000
1.184300 0.000000
1.195500 0.000000
1.206600 0.000000
1.217800 0.000000
1.228900 0.000000
1.240100 0.000000
1.251300 0.000000
1.262400 0.000000
1.273600 0.000000
1.284700 0.000000
1.295900 0.000000
1.307000 0.000000
1.318200 0.000000
1.329400 0.000000
1.340500 0.000000
1.351700 0.000000
1.362800 0.000000
1.374000 0.000000
1.385100 0.000000
1.396300 0.000000
1.407500 0.000000
1.418600 0.000000
1.429800 0.000000
1.440900 0.000000
1.452100 0.000000
1.463300 0.000000
1.474400 0.000000
1.485600 0.000000
1.496700 0.000000
1.507900 0.000000
1.519000 0.000000
1.530200 0.000000
1.541400 0.000000
1.552500 0.000000
1.563700 0.000000
1.574800 0.000000
1.586000 0.000000
1.597100 0.000000
1.608300 0.000000
1.619500 0.000000
1.630600 0.000000
1.641800 0.000000
1.652900 0.000000
1.664100 0.000000
1.675200 0.000000
1.686400 0.000000
1.697600 0.000000
1.708700 0.000000
1.719900 0.000000
1.731000 0.000000
1.742200 0.000000
1.753400 0.000000
1.764500 0.000000
1.775700 0.000000
1.786800 0.000000
1.798000 0.000000
1.809100 0.000000
1.820300 0.000000
1.831500 0.000000
1.842600 0.000000
1.853800 0.000000
1.864900 0.000000
1.876100 0.000000
1.887200 0.000000
1.898400 0.000000
1.909600 0.000000
1.920700 0.000000
1.931900 0.000000
1.943000 0.000000
1.954200 0.000000
1.965300 0.000000
1.976500 0.000000
1.987700 0.000000
1.998800 0.000100
2.010000 0.001900
2.021100 0.006000
2.032300 0.012300
2.043500 0.020800
2.054600 0.031600
2.065800 0.044600
2.076900 0.059400
2.088100 0.075600
2.099200 0.093000
2.110400 0.111800
2.121600 0.152700
2.132700 0.228800
2.143900 0.244100
2.155000 0.258300
2.166200 0.271400
2.177300 0.283400
2.188500 0.263700
2.199700 0.265900
2.210800 0.280900
2.222000 0.296700
2.233100 0.313100
2.244300 0.329700
2.255400 0.346200
2.266600 0.362600
2.277800 0.379000
2.288900 0.395400
2.300100 0.411800
2.311200 0.428100
2.322400 0.443900
2.333600 0.457300
2.344700 0.476500
2.355900 0.497100
2.367000 0.518800
2.378200 0.541600
2.389300 0.565900
2.400500 0.914900
2.411700 1.106500
2.422800 1.404800
2.434000 1.711900
2.445100 2.060700
2.456300 2.260800
2.467400 2.702400
2.478600 2.304300
2.489800 2.414100
2.500900 2.524300
2.512100 2.680200
2.523200 2.812000
2.534400 2.991700
2.545500 3.256400
2.556700 3.569800
2.567900 3.933200
2.579000 4.405000
2.590200 5.068200
2.601300 5.725900
2.612500 5.943600
2.623700 5.926600
2.634800 5.963200
2.646000 5.778700
2.657100 5.999400
2.668300 6.148000
2.679400 6.064000
2.690600 6.145800
2.701800 6.126100
2.712900 6.030100
2.724100 5.899200
2.735200 5.737700
2.746400 5.567700
2.757500 5.650800
2.768700 5.891000
2.779900 6.222900
2.791000 6.441800
2.802200 6.760500
2.813300 7.047500
2.824500 7.382100
2.835600 7.585800
2.846800 7.923000
2.858000 7.978600
2.869100 7.996800
2.880300 8.093300
2.891400 8.192000
2.902600 8.461500
2.913800 8.867700
2.924900 9.160400
2.936100 9.354900
2.947200 9.593300
2.958400 9.952800
2.969500 10.801100
2.980700 11.406000
2.991900 11.591000
3.003000 11.810600
3.014200 12.607200
3.025300 11.686400
3.036500 11.102600
3.047600 10.972100
3.058800 10.790500
3.070000 10.609100
3.081100 10.362200
3.092300 10.250500
3.103400 10.232600
3.114600 10.052800
3.125700 10.317800
3.136900 10.430500
3.148100 10.382800
3.159200 10.209500
3.170400 9.997400
3.181500 10.011000
3.192700 10.055700
3.203900 9.429200
3.215000 8.764700
3.226200 7.872000
3.237300 6.991400
3.248500 6.804500
3.259600 7.014300
3.270800 7.321300
3.282000 7.612400
3.293100 7.888500
3.304300 8.110900
3.315400 8.218900
3.326600 8.202800
3.337700 7.921800
3.348900 7.610800
3.360100 7.761800
3.371200 7.517000
3.382400 7.343600
3.393500 7.366600
3.404700 7.701900
3.415800 8.036600
3.427000 8.735600
3.438200 10.246900
3.449300 10.687600
3.460500 10.381100
3.471600 9.878200
3.482800 9.520500
3.494000 9.506000
3.505100 9.798100
3.516300 10.182500
3.527400 11.249900
3.538600 12.330600
3.549700 12.225800
3.560900 10.943400
3.572100 10.442700
3.583200 10.006400
3.594400 9.196700
3.605500 8.772300
3.616700 8.673900
3.627800 8.740100
3.639000 8.767300
3.650200 8.825300
3.661300 8.724600
3.672500 8.637700
3.683600 8.743500
3.694800 8.735800
3.705900 8.830000
3.717100 8.843600
3.728300 8.712100
3.739400 8.484900
3.750600 8.275000
3.761700 8.093800
3.772900 7.848500
3.784100 7.709600
3.795200 7.392500
3.806400 7.324700
3.817500 7.403000
3.828700 7.532900
3.839800 7.903300
3.851000 7.893800
3.862200 8.020300
3.873300 8.118000
3.884500 8.104700
3.895600 8.551400
3.906800 8.090100
3.917900 7.916500
3.929100 7.784000
3.940300 7.741100
3.951400 7.805400
3.962600 8.065600
3.973700 8.035300
3.984900 8.376000
3.996000 8.585000
4.007200 8.664500
4.018400 8.982400
4.029500 7.527700
4.040700 7.362900
4.051800 7.333800
4.063000 7.386200
4.074200 7.364100
4.085300 7.960500
4.096500 7.215300
4.107600 7.460300
4.118800 7.736300
4.129900 8.102300
4.141100 8.366200
4.152300 8.859000
4.163400 9.739000
4.174600 11.442700
4.185700 11.856100
4.196900 11.259600
4.208000 10.415900
4.219200 9.690900
4.230400 9.612900
4.241500 9.581400
4.252700 9.025600
4.263800 8.510500
4.275000 8.275500
4.286100 8.191700
4.297300 9.017600
4.308500 9.908600
4.319600 10.767400
4.330800 10.954000
4.341900 10.160000
4.353100 9.104200
4.364300 8.847100
4.375400 9.687100
4.386600 9.651000
4.397700 9.210400
4.408900 9.132600
4.420000 8.281900
4.431200 7.909900
4.442400 7.895300
4.453500 8.413100
4.464700 8.887100
4.475800 9.351200
4.487000 10.009100
4.498100 10.982500
4.509300 12.071300
4.520500 12.681900
4.531600 13.369800
4.542800 13.254300
4.553900 13.054100
4.565100 12.981200
4.576200 12.382100
4.587400 12.635900
4.598600 11.420300
4.609700 10.852500
4.620900 10.528800
4.632000 10.284800
4.643200 10.117600
4.654400 10.099600
4.665500 10.085600
4.676700 10.348400
4.687800 10.762900
4.699000 11.299800
4.710100 11.883900
4.721300 12.183100
4.732500 12.719400
4.743600 12.506800
4.754800 12.172200
4.765900 11.551400
4.777100 11.290800
4.788200 10.697800
4.799400 10.488100
4.810600 10.625000
4.821700 10.764500
4.832900 11.216300
4.844000 11.045400
4.855200 11.094500
4.866400 11.083700
4.877500 10.547200
4.888700 10.720900
4.899800 11.450700
4.911000 12.089900
4.922100 13.152000
4.933300 14.458000
4.944500 15.115300
4.955600 14.663300
4.966800 14.933200
4.977900 14.971300
4.989100 15.850100
5.000200 16.518600
5.011400 16.865700
5.022600 16.521500
5.033700 16.210400
5.044900 15.382700
5.056000 13.781800
5.067200 12.640900
5.078300 12.158100
5.089500 12.330100
5.100700 14.137900
5.111800 15.601500
5.123000 15.909200
5.134100 16.714300
5.145300 17.257200
5.156500 16.441500
5.167600 15.594900
5.178800 15.428000
5.189900 16.023400
5.201100 15.657900
5.212200 14.216100
5.223400 13.185300
5.234600 12.513400
5.245700 12.103900
5.256900 12.676200
5.268000 12.937400
5.279200 13.785700
5.290300 14.741900
5.301500 14.934500
5.312700 13.751600
5.323800 13.034700
5.335000 12.145200
5.346100 12.044900
5.357300 12.614100
5.368400 13.091300
5.379600 13.472600
5.390800 14.275900
5.401900 14.471700
5.413100 14.225100
5.424200 14.633700
5.435400 13.931000
5.446600 13.868500
5.457700 13.889000
5.468900 14.792300
5.480000 16.120400
5.491200 16.550700
5.502300 16.013100
5.513500 15.814400
5.524700 13.521600
5.535800 12.236600
5.547000 12.801300
5.558100 15.350000
5.569300 17.095000
5.580400 15.864800
5.591600 15.245000
5.602800 18.349100
5.613900 20.810500
5.625100 21.268400
5.636200 19.390600
5.647400 16.792500
5.658500 20.049700
5.669700 20.163100
5.680900 18.811600
5.692000 16.546900
5.703200 16.684100
5.714300 16.699100
5.725500 15.542500
5.736700 14.976200
5.747800 14.707300
5.759000 15.048000
5.770100 15.556600
5.781300 15.632300
5.792400 15.952200
5.803600 15.654600
5.814800 15.541700
5.825900 15.557200
5.837100 16.227700
5.848200 20.260500
5.859400 26.138800
5.870500 22.294300
5.881700 19.333700
5.892900 17.670700
5.904000 15.398900
5.915200 14.206100
5.926300 13.775500
5.937500 15.335400
5.948600 17.424400
5.959800 16.734900
5.971000 17.728000
5.982100 17.004600
5.993300 15.805600
6.004400 15.165800
6.015600 14.440700
6.026800 13.967800
6.037900 13.890600
6.049100 13.988000
6.060200 13.881000
6.071400 14.040900
6.082500 14.388200
6.093700 14.213700
6.104900 14.319800
6.116000 13.502300
6.127200 13.271800
6.138300 13.412500
6.149500 13.532400
6.160600 14.576600
6.171800 15.075200
6.183000 16.164800
6.194100 17.175300
6.205300 18.181700
6.216400 20.856800
6.227600 21.578200
6.238700 18.836300
6.249900 16.370300
6.261100 16.028200
6.272200 15.283700
6.283400 13.982300
6.294500 13.753900
6.305700 13.827000
6.316900 14.202600
6.328000 14.581000
6.339200 15.377600
6.350300 13.187700
6.361500 13.118600
6.372600 13.454600
6.383800 13.695200
6.395000 14.281100
6.406100 11.695300
6.417300 10.000000
6.428400 9.577100
6.439600 10.174100
6.450700 10.249000
6.461900 11.010900
6.473100 11.737700
6.484200 12.090700
6.495400 12.657000
6.506500 12.790000
6.517700 12.537700
6.528800 11.981100
6.540000 10.458900
6.551200 9.934800
6.562300 9.066900
6.573500 9.213000
6.584600 9.022400
6.595800 9.150900
6.607000 8.960900
6.618100 9.318300
6.629300 9.640500
6.640400 10.007500
6.651600 9.998600
6.662700 10.280500
6.673900 10.621200
6.685100 10.425800
6.696200 10.789100
6.707400 10.885300
6.718500 10.318500
6.729700 9.582200
6.740800 9.181100
6.752000 9.099000
6.763200 8.791800
6.774300 9.036200
6.785500 8.554100
6.796600 9.052000
6.807800 9.981900
6.818900 10.987600
6.830100 11.833700
6.841300 11.931100
6.852400 12.054300
6.863600 12.376200
6.874700 13.067800
6.885900 11.988600
6.897100 11.701800
6.908200 12.609600
6.919400 12.603600
6.930500 12.555600
6.941700 15.235600
6.952800 13.924400
6.964000 14.075000
6.975200 14.356200
6.986300 13.455400
6.997500 13.426100
7.008600 13.801200
7.019800 13.370100
7.030900 13.061600
7.042100 13.048200
7.053300 13.649000
7.064400 13.302400
7.075600 13.121200
7.086700 12.982500
7.097900 12.990700
7.109000 12.907500
7.120200 12.073700
7.131400 11.931800
7.142500 12.697900
7.153700 12.748200
7.164800 12.752500
7.176000 12.038000
7.187200 11.027700
7.198300 10.550400
7.209500 10.015400
7.220600 9.939700
7.231800 9.659600
7.242900 9.255800
7.254100 8.882900
7.265300 8.747500
7.276400 8.679800
7.287600 8.654100
7.298700 8.660400
7.309900 8.575100
7.321000 8.392700
7.332200 8.226200
7.343400 8.023200
7.354500 7.996800
7.365700 7.640300
7.376800 7.473500
7.388000 7.444700
7.399100 7.636500
7.410300 7.717000
7.421500 7.801300
7.432600 7.649800
7.443800 7.344400
7.454900 7.179400
7.466100 7.284700
7.477300 7.802400
7.488400 8.219400
7.499600 7.487900
7.510700 7.036500
7.521900 6.543300
7.533000 6.538000
7.544200 6.615100
7.555400 6.725500
7.566500 7.170900
7.577700 7.494300
7.588800 7.792400
7.600000 8.205100
7.611100 8.646000
7.622300 8.928000
7.633500 8.999400
7.644600 9.288700
7.655800 9.278400
7.666900 9.158400
7.678100 8.680600
7.689200 7.927300
7.700400 7.375500
7.711600 6.915900
7.722700 6.579200
7.733900 6.337600
7.745000 6.257300
7.756200 6.117200
7.767400 5.848400
7.778500 5.652000
7.789700 5.733100
7.800800 5.837200
7.812000 5.996700
7.823100 6.316100
7.834300 6.581300
7.845500 6.843500
7.856600 7.344400
7.867800 7.798700
7.878900 7.964300
7.890100 7.749400
7.901200 7.520300
7.912400 6.609600
7.923600 5.114000
7.934700 4.172800
7.945900 3.678600
7.957000 3.406900
7.968200 3.189300
7.979300 2.979700
7.990500 2.726500
8.001700 2.612700
8.012800 2.378200
8.024000 2.158100
8.035100 1.925800
8.046300 1.698600
8.057500 1.463800
8.068600 1.315700
8.079800 1.248800
8.090900 1.199300
8.102100 1.166300
8.113200 1.152000
8.124400 1.112400
8.135600 1.043900
8.146700 0.958300
8.157900 0.863000
8.169000 0.761900
8.180200 0.655000
8.191300 0.539000
8.202500 0.389900
8.213700 0.262400
8.224800 0.166200
8.236000 0.087500
8.247100 0.035600
8.258300 0.006100
8.269400 0.000000
8.280600 0.000000
8.291800 0.000000
8.302900 0.000000
8.314100 0.000000
8.325200 0.000000
8.336400 0.000000
8.347600 0.000000
8.358700 0.000000
8.369900 0.000000
8.381000 0.000000
8.392200 0.000000
8.403300 0.000000
8.414500 0.000000
8.425700 0.000000
8.436800 0.000000
8.448000 0.000000
8.459100 0.000000
8.470300 0.000000
8.481400 0.000000
8.492600 0.000000
8.503800 0.000000
8.514900 0.000000
8.526100 0.000000
8.537200 0.000000
8.548400 0.000000
8.559500 0.000000
8.570700 0.000000
8.581900 0.000000
8.593000 0.000000
8.604200 0.000000
8.615300 0.000000
8.626500 0.000000
8.637700 0.000000
8.648800 0.000000
8.660000 0.000000
8.671100 0.000000
8.682300 0.000000
8.693400 0.000000
8.704600 0.000000
8.715800 0.000000
8.726900 0.000000
8.738100 0.000000
8.749200 0.000000
8.760400 0.037700
8.771500 0.262500
8.782700 0.779200
8.793900 1.690700
8.805000 2.098500
8.816200 2.442100
8.827300 2.837300
8.838500 3.088500
8.849600 3.355000
8.860800 3.540000
8.872000 3.890000
8.883100 4.357100
8.894300 4.851100
8.905400 5.548400
8.916600 5.869700
8.927800 5.996300
8.938900 6.482900
8.950100 5.930200
8.961200 5.635700
8.972400 5.681500
8.983500 5.681000
8.994700 5.579100
9.005900 5.316400
9.017000 5.201300
9.028200 5.134900
9.039300 5.073600
9.050500 5.128800
9.061600 5.081500
9.072800 5.024000
9.084000 4.949600
9.095100 4.890300
9.106300 4.844900
9.117400 4.848100
9.128600 4.700100
9.139700 4.896600
9.150900 4.827500
9.162100 4.853000
9.173200 4.765800
9.184400 4.672000
9.195500 4.583800
9.206700 4.601400
9.217900 4.707500
9.229000 4.702000
9.240200 4.690100
9.251300 4.692400
9.262500 4.714200
9.273600 4.766700
9.284800 4.834400
9.296000 4.842100
9.307100 4.913500
9.318300 5.058000
9.329400 5.222600
9.340600 5.394200
9.351700 5.437000
9.362900 5.452400
9.374100 5.490600
9.385200 5.563100
9.396400 5.602300
9.407500 5.650200
9.418700 5.756600
9.429800 5.929100
9.441000 5.787800
9.452200 5.907900
9.463300 6.097800
9.474500 6.293800
9.485600 6.437000
9.496800 6.532700
9.508000 6.827500
9.519100 6.802300
9.530300 6.827700
9.541400 6.718700
9.552600 6.787800
9.563700 7.065100
9.574900 6.994600
9.586100 6.958900
9.597200 6.939700
9.608400 6.934800
9.619500 6.641600
9.630700 6.337200
9.641800 6.272500
9.653000 6.290700
9.664200 6.387400
9.675300 6.536300
9.686500 6.640700
9.697600 6.601500
9.708800 6.401000
9.720000 6.334300
9.731100 6.237700
9.742300 6.276300
9.753400 6.358700
9.764600 6.421700
9.775700 6.472800
9.786900 6.660300
9.798100 6.819500
9.809200 6.878000
9.820400 6.807600
9.831500 6.680900
9.842700 6.718100
9.853800 6.780700
9.865000 6.693200
9.876200 6.615800
9.887300 6.499400
9.898500 6.392900
9.909600 6.303700
9.920800 6.201600
9.931900 6.184600
9.943100 6.202500
9.954300 6.136800
9.965400 6.028500
9.976600 6.049700
9.987700 6.326400
9.998900 6.392300
10.010100 6.126100
10.021200 6.041000
10.032400 6.243100
10.043500 6.328900
10.054700 6.196100
10.065800 6.150200
10.077000 6.479700
10.088200 6.657000
10.099300 6.811500
10.110500 6.915200
10.121600 7.067100
10.132800 7.168800
10.143900 7.199900
10.155100 7.484000
10.166300 7.614100
10.177400 7.612500
10.188600 7.681600
10.199700 7.632000
10.210900 7.808200
10.222000 7.569600
10.233200 7.600500
10.244400 7.663000
10.255500 7.795400
10.266700 7.860400
10.277800 7.949700
10.289000 8.048100
10.300200 8.063500
10.311300 8.278700
10.322500 8.471100
10.333600 8.317100
10.344800 8.043800
10.355900 7.967200
10.367100 7.774800
10.378300 7.622400
10.389400 7.537300
10.400600 7.651500
10.411700 7.617600
10.422900 7.692900
10.434000 7.696900
10.445200 7.632800
10.456400 7.562900
10.467500 7.391000
10.478700 6.911900
10.489800 6.292300
10.501000 5.627600
10.512100 4.726000
10.523300 4.379200
10.534500 4.309200
10.545600 4.348000
10.556800 4.460600
10.567900 4.657900
10.579100 4.931400
10.590300 5.282700
10.601400 5.798400
10.612600 6.755800
10.623700 7.674600
10.634900 8.250500
10.646000 8.744900
10.657200 9.795700
10.668400 10.032600
10.679500 10.328800
10.690700 9.770800
10.701800 9.094900
10.713000 8.358500
10.724100 8.108100
10.735300 7.693900
10.746500 7.202200
10.757600 7.040500
10.768800 7.213300
10.779900 7.419700
10.791100 7.961900
10.802200 7.796100
10.813400 8.147100
10.824600 8.174600
10.835700 8.513700
10.846900 8.964100
10.858000 9.222600
10.869200 9.498900
10.880400 8.772600
10.891500 8.524800
10.902700 8.366900
10.913800 8.246900
10.925000 8.164900
10.936100 8.066100
10.947300 7.935300
10.958500 7.929500
10.969600 7.829600
10.980800 7.636700
10.991900 7.290300
11.003100 7.051500
11.014200 6.660200
11.025400 6.673000
11.036600 6.729300
11.047700 6.344800
11.058900 6.368000
11.070000 6.433900
11.081200 6.424600
11.092300 6.510900
11.103500 6.605400
11.114700 6.672600
11.125800 6.698700
11.137000 6.763400
11.148100 6.844400
11.159300 7.006400
11.170500 7.054200
11.181600 7.329200
11.192800 7.330500
11.203900 7.202800
11.215100 6.949300
11.226200 6.867600
11.237400 6.943700
11.248600 6.718600
11.259700 6.667400
11.270900 6.629100
11.282000 6.567700
11.293200 6.498600
11.304300 6.419100
11.315500 6.431600
11.326700 6.575000
11.337800 6.680100
11.349000 6.746600
11.360100 6.732000
11.371300 6.761800
11.382400 6.899700
11.393600 7.165800
11.404800 7.203800
11.415900 7.345900
11.427100 7.469200
11.438200 7.726200
11.449400 7.705000
11.460600 7.700700
11.471700 7.653100
11.482900 7.564000
11.494000 7.484600
11.505200 7.418500
11.516300 7.255600
11.527500 7.114800
11.538700 7.034600
11.549800 7.223400
11.561000 7.003500
11.572100 6.991100
11.583300 6.984200
11.594400 7.060800
11.605600 7.292500
11.616800 7.259600
11.627900 6.838800
11.639100 6.541100
11.650200 6.433400
11.661400 6.391400
11.672500 6.301500
11.683700 6.124800
11.694900 6.029200
11.706000 5.956000
11.717200 5.961100
11.728300 5.989500
11.739500 6.002900
11.750700 6.021600
11.761800 6.002200
11.773000 6.028800
11.784100 6.017300
11.795300 5.985800
11.806400 6.301800
11.817600 6.764300
11.828800 6.649500
11.839900 6.384500
11.851100 6.023700
11.862200 6.052100
11.873400 6.326700
11.884500 6.717500
11.895700 7.086300
11.906900 7.331200
11.918000 7.277000
11.929200 7.345800
11.940300 7.236700
11.951500 7.083200
11.962600 7.032700
11.973800 6.901100
11.985000 6.998200
11.996100 6.794500
12.007300 6.747900
12.018400 6.788600
12.029600 6.863100
12.040800 7.030600
12.051900 7.236300
12.063100 7.150800
12.074200 7.343900
12.085400 7.424200
12.096500 7.170400
12.107700 6.854200
12.118900 6.756300
12.130000 6.752300
12.141200 6.827400
12.152300 6.972100
12.163500 7.122000
12.174600 7.345200
12.185800 7.591900
12.197000 7.726300
12.208100 7.787100
12.219300 7.513100
12.230400 7.309700
12.241600 6.984200
12.252700 6.722500
12.263900 6.556200
12.275100 6.456100
12.286200 6.542700
12.297400 6.676100
12.308500 6.828100
12.319700 6.886500
12.330900 7.140400
12.342000 7.294600
12.353200 7.352700
12.364300 7.467100
12.375500 7.684800
12.386600 8.617700
12.397800 8.290400
12.409000 8.280700
12.420100 8.284600
12.431300 8.257200
12.442400 7.843300
12.453600 7.904100
12.464700 7.990600
12.475900 8.203800
12.487100 8.500300
12.498200 8.155600
12.509400 8.067700
12.520500 8.138700
12.531700 8.156600
12.542800 8.023400
12.554000 7.991800
12.565200 8.194700
12.576300 8.472900
12.587500 8.753900
12.598600 8.591600
12.609800 8.624400
12.621000 8.508000
12.632100 8.325500
12.643300 8.082000
12.654400 7.792300
12.665600 7.545900
12.676700 7.333600
12.687900 7.233900
12.699100 7.296300
12.710200 7.403400
12.721400 7.568000
12.732500 7.786900
12.743700 7.896300
12.754800 8.077500
12.766000 8.323400
12.777200 8.362100
12.788300 8.250300
12.799500 8.132000
12.810600 7.767200
12.821800 7.775600
12.832900 7.538300
12.844100 7.351600
12.855300 7.252000
12.866400 7.159100
12.877600 7.029800
12.888700 7.037800
12.899900 6.726100
12.911100 6.615000
12.922200 6.530100
12.933400 6.405100
12.944500 6.507600
12.955700 6.462200
12.966800 6.342400
12.978000 5.878700
12.989200 5.539300
13.000300 5.411200
13.011500 5.286600
13.022600 5.177800
13.033800 5.066200
13.044900 4.971700
13.056100 4.807000
13.067300 4.607000
13.078400 4.434900
13.089600 4.347500
13.100700 4.308400
13.111900 4.288100
13.123000 4.320700
13.134200 4.307300
13.145400 4.295600
13.156500 4.308600
13.167700 4.376100
13.178800 4.395000
13.190000 4.359000
13.201200 4.328900
13.212300 4.216900
13.223500 4.158800
13.234600 4.112400
13.245800 4.032500
13.256900 4.010500
13.268100 4.133000
13.279300 3.800800
13.290400 3.600100
13.301600 3.519900
13.312700 3.479900
13.323900 3.466800
13.335000 3.533100
13.346200 3.619800
13.357400 3.420500
13.368500 3.347400
13.379700 3.314400
13.390800 3.245700
13.402000 3.222000
13.413100 3.031000
13.424300 2.772200
13.435500 2.688200
13.446600 2.577700
13.457800 2.651800
13.468900 2.706100
13.480100 2.732300
13.491300 2.761700
13.502400 2.853600
13.513600 2.914400
13.524700 2.952000
13.535900 3.005000
13.547000 3.062600
13.558200 3.121700
13.569400 3.248400
13.580500 3.373200
13.591700 3.471100
13.602800 3.555300
13.614000 3.632900
13.625100 3.719100
13.636300 3.818900
13.647500 3.888300
13.658600 3.893300
13.669800 3.908600
13.680900 3.928200
13.692100 3.964000
13.703200 3.928400
13.714400 3.992700
13.725600 4.127700
13.736700 4.185700
13.747900 4.276100
13.759000 4.271700
13.770200 4.271300
13.781400 4.284500
13.792500 4.299400
13.803700 4.305000
13.814800 4.353700
13.826000 4.278900
13.837100 4.288400
13.848300 4.352300
13.859500 4.447800
13.870600 4.579600
13.881800 4.744600
13.892900 4.922700
13.904100 5.172200
13.915200 5.444500
13.926400 5.714400
13.937600 6.028800
13.948700 6.170200
13.959900 6.416100
13.971000 6.557000
13.982200 6.638300
13.993300 6.684400
14.004500 6.706800
14.015700 6.804600
14.026800 6.874200
14.038000 6.947700
14.049100 6.911300
14.060300 6.626000
14.071500 6.359300
14.082600 6.151200
14.093800 5.994200
14.104900 5.934300
14.116100 5.944300
14.127200 5.861400
14.138400 5.645600
14.149600 5.581500
14.160700 5.491000
14.171900 5.416500
14.183000 5.448300
14.194200 5.500200
14.205300 5.557500
14.216500 5.476900
14.227700 5.412000
14.238800 5.406900
14.250000 5.444700
14.261100 5.511900
14.272300 5.563100
14.283500 5.615200
14.294600 5.628000
14.305800 5.647300
14.316900 5.751800
14.328100 5.899100
14.339200 6.298800
14.350400 6.445500
14.361600 6.688200
14.372700 6.803000
14.383900 6.915000
14.395000 6.998000
14.406200 7.063500
14.417300 7.128100
14.428500 7.175200
14.439700 7.393300
14.450800 7.459500
14.462000 7.316400
14.473100 6.957300
14.484300 6.637300
14.495400 6.424400
14.506600 6.285500
14.517800 6.139600
14.528900 6.095400
14.540100 6.209800
14.551200 6.127300
14.562400 6.112000
14.573600 6.204500
14.584700 6.020300
14.595900 5.838800
14.607000 5.786500
14.618200 5.818900
14.629300 5.873900
14.640500 5.950100
14.651700 5.981700
14.662800 6.102200
14.674000 5.993300
14.685100 6.082300
14.696300 6.316900
14.707400 6.603900
14.718600 6.599400
14.729800 6.453800
14.740900 6.400700
14.752100 6.410900
14.763200 6.314800
14.774400 6.375100
14.785500 6.489300
14.796700 6.600000
14.807900 6.675000
14.819000 6.577900
14.830200 6.404200
14.841300 6.598500
14.852500 6.566100
14.863700 6.508400
14.874800 6.438000
14.886000 6.384800
14.897100 6.353300
14.908300 6.355600
14.919400 6.445600
14.930600 6.539300
14.941800 6.524600
14.952900 6.466100
14.964100 6.588000
14.975200 6.073100
14.986400 5.895300
14.997500 5.690000
15.008700 5.626500
15.019900 5.678500
15.031000 5.768600
15.042200 5.818600
15.053300 5.899500
15.064500 6.012400
15.075600 6.130700
15.086800 6.311400
15.098000 6.493800
15.109100 6.633700
15.120300 6.770900
15.131400 6.948100
15.142600 7.184500
15.153800 7.251700
15.164900 7.478700
15.176100 7.485900
15.187200 7.432000
15.198400 7.413700
15.209500 7.391300
15.220700 7.359500
15.231900 7.311100
15.243000 7.232000
15.254200 7.126600
15.265300 7.011400
15.276500 6.819500
15.287600 6.170000
15.298800 5.650800
15.310000 5.396300
15.321100 5.212100
15.332300 5.092800
15.343400 5.116700
15.354600 5.174100
15.365700 5.317300
15.376900 5.536200
15.388100 5.854900
15.399200 6.139200
15.410400 6.288300
15.421500 6.495500
15.432700 6.819200
15.443900 7.340500
15.455000 7.607900
15.466200 7.693700
15.477300 7.472900
15.488500 7.252300
15.499600 7.104200
15.510800 7.034300
15.522000 6.949700
15.533100 7.045000
15.544300 6.643900
15.555400 6.357900
15.566600 6.174300
15.577700 5.889800
15.588900 5.545400
15.600100 5.348000
15.611200 5.246700
15.622400 5.209800
15.633500 5.138700
15.644700 5.036000
15.655800 4.893200
15.667000 4.819900
15.678200 4.736000
15.689300 4.691900
15.700500 4.622300
15.711600 4.786400
15.722800 4.653700
15.734000 4.503300
15.745100 4.375700
15.756300 4.298100
15.767400 4.392300
15.778600 3.946100
15.789700 3.833800
15.800900 3.508200
15.812100 3.257600
15.823200 2.837100
15.834400 2.357200
15.845500 2.000300
15.856700 1.686400
15.867800 1.474900
15.879000 1.329800
15.890200 1.195100
15.901300 1.069200
15.912500 0.943700
15.923600 0.825100
15.934800 0.681400
15.945900 0.592900
15.957100 0.524500
15.968300 0.454400
15.979400 0.395600
15.990600 0.350100
16.001700 0.312900
16.012900 0.281800
16.024100 0.254200
16.035200 0.228200
16.046400 0.202200
16.057500 0.175400
16.068700 0.148000
16.079800 0.121700
16.091000 0.099200
16.102200 0.080400
16.113300 0.065500
16.124500 0.053100
16.135600 0.042100
16.146800 0.032300
16.157900 0.023900
16.169100 0.016700
16.180300 0.010800
16.191400 0.006100
16.202600 0.002800
16.213700 0.000800
16.224900 0.000000
16.236000 0.000000
16.247200 0.000000
16.258400 0.000000
16.269500 0.000000
16.280700 0.000000
16.291800 0.000000
16.303000 0.000000
16.314200 0.000000
16.325300 0.000000
16.336500 0.000000
16.347600 0.000000
16.358800 0.000000
16.369900 0.000000
16.381100 0.000000
16.392300 0.000000
16.403400 0.000000
16.414600 0.000000
16.425700 0.000000
16.436900 0.000000
16.448000 0.000000
16.459200 0.000000
16.470400 0.000000
16.481500 0.000000
16.492700 0.000000
16.503800 0.000000
16.515000 0.000000
16.526100 0.000000
16.537300 0.000000
16.548500 0.000000
16.559600 0.000000
16.570800 0.000000
16.581900 0.000000
16.593100 0.000000
16.604300 0.000000
16.615400 0.000000
16.626600 0.000000
16.637700 0.000000
16.648900 0.000000
16.660000 0.000000
16.671200 0.000000
16.682400 0.000000
16.693500 0.000000
16.704700 0.000000
16.715800 0.000000
16.727000 0.000000
16.738100 0.000000
16.749300 0.000000
16.760500 0.000000
16.771600 0.000000
16.782800 0.000000
16.793900 0.000000
16.805100 0.000000
16.816200 0.000000
16.827400 0.000000
16.838600 0.000000
16.849700 0.000000
16.860900 0.000000
16.872000 0.000000
16.883200 0.000000
16.894400 0.000000
16.905500 0.000000
16.916700 0.000000
16.927800 0.000000
16.939000 0.000000
16.950100 0.000000
16.961300 0.000000
16.972500 0.000000
16.983600 0.000000
16.994800 0.000000
17.005900 0.000000
17.017100 0.000000
17.028200 0.000000
17.039400 0.000000
17.050600 0.000000
17.061700 0.000000
17.072900 0.000000
17.084000 0.000000
17.095200 0.000000
17.106300 0.000000
17.117500 0.000000
17.128700 0.000000
17.139800 0.000000
17.151000 0.000000
17.162100 0.000000
17.173300 0.000000
17.184500 0.000000
17.195600 0.000000
17.206800 0.000000
17.217900 0.000000
17.229100 0.000000
17.240200 0.000000
e
