set title 'mp-998883 - Density of States'
set xlabel 'Energy (eV)'
set ylabel 'DOS (states/eV)'
set grid
set xrange [-10:10]
set yrange [0:0.648]
set xzeroaxis lt -1
set terminal png size 800,600
set output 'mp-998883_dos_gnuplot.png'
plot '-' using 1:2 with lines title 'DOS'
-23.684100 0.000000
-23.617800 0.000000
-23.551500 0.000000
-23.485300 0.000000
-23.419000 0.000000
-23.352700 0.000000
-23.286400 0.000000
-23.220100 0.000000
-23.153900 0.000000
-23.087600 0.000000
-23.021300 0.000000
-22.955000 0.000000
-22.888700 0.000000
-22.822500 0.000000
-22.756200 0.000000
-22.689900 0.000000
-22.623600 0.000000
-22.557400 0.000000
-22.491100 0.000000
-22.424800 0.000000
-22.358500 0.000000
-22.292200 0.000000
-22.226000 0.000000
-22.159700 0.000000
-22.093400 0.000000
-22.027100 0.000000
-21.960800 0.000000
-21.894600 0.000000
-21.828300 0.000000
-21.762000 0.000000
-21.695700 0.000000
-21.629400 0.000000
-21.563200 0.000000
-21.496900 0.000000
-21.430600 0.000000
-21.364300 0.000000
-21.298000 0.000000
-21.231800 0.000000
-21.165500 0.000000
-21.099200 0.000000
-21.032900 0.000000
-20.966600 0.000000
-20.900400 0.000000
-20.834100 0.000000
-20.767800 0.000000
-20.701500 0.000000
-20.635300 0.000000
-20.569000 0.000000
-20.502700 0.000000
-20.436400 0.000000
-20.370100 0.000000
-20.303900 0.000000
-20.237600 0.000000
-20.171300 0.000000
-20.105000 0.000000
-20.038700 0.000000
-19.972500 0.000000
-19.906200 0.000000
-19.839900 0.000000
-19.773600 0.000000
-19.707300 0.000000
-19.641100 0.000000
-19.574800 0.000000
-19.508500 0.000000
-19.442200 0.000000
-19.375900 0.000000
-19.309700 0.000000
-19.243400 0.000000
-19.177100 0.000000
-19.110800 0.000000
-19.044500 0.000000
-18.978300 0.000000
-18.912000 0.000000
-18.845700 0.000000
-18.779400 0.000000
-18.713200 0.000000
-18.646900 0.000000
-18.580600 0.000000
-18.514300 0.000000
-18.448000 0.000000
-18.381800 0.000000
-18.315500 0.000000
-18.249200 0.000000
-18.182900 0.000000
-18.116600 0.000000
-18.050400 0.000000
-17.984100 0.000000
-17.917800 0.000000
-17.851500 0.000000
-17.785200 0.000000
-17.719000 0.000000
-17.652700 21.881700
-17.586400 25.868400
-17.520100 49.920400
-17.453800 0.000000
-17.387600 0.000000
-17.321300 0.000000
-17.255000 0.000000
-17.188700 0.000000
-17.122400 0.000000
-17.056200 0.000000
-16.989900 0.000000
-16.923600 0.000000
-16.857300 0.000000
-16.791100 0.000000
-16.724800 0.000000
-16.658500 0.000000
-16.592200 0.000000
-16.525900 0.000000
-16.459700 0.000000
-16.393400 0.000000
-16.327100 0.000000
-16.260800 0.000000
-16.194500 0.000000
-16.128300 0.000000
-16.062000 0.000000
-15.995700 0.000000
-15.929400 0.000000
-15.863100 0.000000
-15.796900 0.000000
-15.730600 0.000000
-15.664300 0.000000
-15.598000 0.000000
-15.531700 0.000000
-15.465500 0.000000
-15.399200 0.000000
-15.332900 0.000000
-15.266600 0.000000
-15.200300 0.000000
-15.134100 0.000000
-15.067800 0.000000
-15.001500 0.000000
-14.935200 0.000000
-14.868900 0.000000
-14.802700 0.000000
-14.736400 0.000000
-14.670100 0.000000
-14.603800 0.000000
-14.537600 0.000000
-14.471300 0.000000
-14.405000 0.000000
-14.338700 0.000000
-14.272400 0.000000
-14.206200 0.000000
-14.139900 0.000000
-14.073600 0.000000
-14.007300 0.000000
-13.941000 0.000000
-13.874800 0.000000
-13.808500 0.000000
-13.742200 0.000000
-13.675900 0.000000
-13.609600 0.000000
-13.543400 0.000000
-13.477100 0.000000
-13.410800 0.000000
-13.344500 0.000000
-13.278200 0.000000
-13.212000 0.000000
-13.145700 0.000000
-13.079400 0.000000
-13.013100 0.000000
-12.946800 0.000000
-12.880600 0.000000
-12.814300 0.000000
-12.748000 0.000000
-12.681700 0.000000
-12.615500 0.000000
-12.549200 0.000000
-12.482900 0.000000
-12.416600 0.000000
-12.350300 0.000000
-12.284100 0.000000
-12.217800 0.000000
-12.151500 0.000000
-12.085200 0.000000
-12.018900 0.000000
-11.952700 0.000000
-11.886400 0.000000
-11.820100 0.000000
-11.753800 0.000000
-11.687500 0.000000
-11.621300 0.000000
-11.555000 0.000000
-11.488700 0.000000
-11.422400 0.000000
-11.356100 0.000000
-11.289900 0.000000
-11.223600 0.000000
-11.157300 0.000000
-11.091000 0.000000
-11.024700 0.000000
-10.958500 0.000000
-10.892200 0.000000
-10.825900 0.000000
-10.759600 0.000000
-10.693400 0.000000
-10.627100 0.000000
-10.560800 0.000000
-10.494500 0.000000
-10.428200 0.000000
-10.362000 0.000000
-10.295700 0.000000
-10.229400 0.000000
-10.163100 0.000000
-10.096800 0.000000
-10.030600 0.000000
-9.964300 0.000000
-9.898000 0.000000
-9.831700 0.000000
-9.765400 0.000000
-9.699200 0.000000
-9.632900 0.000000
-9.566600 0.000000
-9.500300 0.000000
-9.434000 0.000000
-9.367800 0.000000
-9.301500 0.000000
-9.235200 0.000000
-9.168900 0.000000
-9.102600 0.000000
-9.036400 0.000000
-8.970100 0.000000
-8.903800 0.000000
-8.837500 0.000000
-8.771200 0.000000
-8.705000 0.000000
-8.638700 0.000000
-8.572400 0.000000
-8.506100 0.000000
-8.439900 0.000000
-8.373600 0.000000
-8.307300 0.000000
-8.241000 0.000000
-8.174700 0.000000
-8.108500 0.000000
-8.042200 0.000000
-7.975900 0.000000
-7.909600 0.000000
-7.843300 0.000000
-7.777100 0.000000
-7.710800 0.000000
-7.644500 0.000000
-7.578200 0.000000
-7.511900 0.000000
-7.445700 0.000000
-7.379400 0.000000
-7.313100 0.000000
-7.246800 0.000000
-7.180500 0.000000
-7.114300 0.000000
-7.048000 0.000000
-6.981700 0.000000
-6.915400 0.000000
-6.849100 0.000000
-6.782900 0.000000
-6.716600 0.000000
-6.650300 0.000000
-6.584000 0.000000
-6.517800 0.000000
-6.451500 0.000000
-6.385200 0.027100
-6.318900 0.047200
-6.252600 0.054400
-6.186400 0.065600
-6.120100 0.077900
-6.053800 0.085100
-5.987500 0.089000
-5.921200 0.095100
-5.855000 0.103700
-5.788700 0.113300
-5.722400 0.114700
-5.656100 0.119000
-5.589800 0.123800
-5.523600 0.129200
-5.457300 0.135100
-5.391000 0.140800
-5.324700 0.144400
-5.258400 0.147900
-5.192200 0.151300
-5.125900 0.155000
-5.059600 0.160000
-4.993300 0.164500
-4.927000 0.168700
-4.860800 0.172800
-4.794500 0.175800
-4.728200 0.178900
-4.661900 0.182600
-4.595700 0.186200
-4.529400 0.189700
-4.463100 0.193000
-4.396800 0.196300
-4.330500 0.200300
-4.264300 0.204100
-4.198000 0.207600
-4.131700 0.210300
-4.065400 0.213100
-3.999100 0.216300
-3.932900 0.219800
-3.866600 0.223100
-3.800300 0.226100
-3.734000 0.229000
-3.667700 0.232200
-3.601500 0.235400
-3.535200 0.239200
-3.468900 0.242800
-3.402600 0.245600
-3.336300 0.248700
-3.270100 0.251900
-3.203800 0.254800
-3.137500 0.257500
-3.071200 0.260600
-3.004900 0.263800
-2.938700 0.267200
-2.872400 0.270700
-2.806100 0.274300
-2.739800 0.278000
-2.673600 0.281700
-2.607300 0.284800
-2.541000 0.288500
-2.474700 0.292100
-2.408400 0.295600
-2.342200 0.299200
-2.275900 0.303100
-2.209600 0.307000
-2.143300 0.311000
-2.077000 0.315200
-2.010800 0.320000
-1.944500 0.325300
-1.878200 0.330800
-1.811900 0.336500
-1.745600 0.342300
-1.679400 0.348400
-1.613100 0.354500
-1.546800 0.361600
-1.480500 0.370900
-1.414200 0.381300
-1.348000 0.393400
-1.281700 0.407300
-1.215400 0.423600
-1.149100 0.443400
-1.082800 0.478400
-1.016600 0.504300
-0.950300 0.517900
-0.884000 0.501600
-0.817700 0.480600
-0.751400 0.475500
-0.685200 0.477800
-0.618900 0.481900
-0.552600 0.462800
-0.486300 0.446900
-0.420100 0.434600
-0.353800 0.424700
-0.287500 0.424600
-0.221200 0.407300
-0.154900 0.402300
-0.088700 0.391400
-0.022400 0.399100
0.043900 0.392200
0.110200 0.369700
0.176500 0.350600
0.242700 0.281100
0.309000 0.248400
0.375300 0.224200
0.441600 0.203700
0.507900 0.166800
0.574100 0.136200
0.640400 0.122100
0.706700 0.113800
0.773000 0.106100
0.839300 0.099100
0.905500 0.097700
0.971800 0.096000
1.038100 0.091100
1.104400 0.081600
1.170700 0.076500
1.236900 0.071600
1.303200 0.067100
1.369500 0.073000
1.435800 0.093600
1.502000 0.124200
1.568300 0.136200
1.634600 0.152300
1.700900 0.199800
1.767200 0.204400
1.833400 0.208600
1.899700 0.218200
1.966000 0.228700
2.032300 0.248600
2.098600 0.255400
2.164800 0.265000
2.231100 0.287300
2.297400 0.298400
2.363700 0.305600
2.430000 0.312400
2.496200 0.328300
2.562500 0.345200
2.628800 0.358300
2.695100 0.363600
2.761400 0.378600
2.827600 0.397000
2.893900 0.417200
2.960200 0.439400
3.026500 0.474300
3.092800 0.539100
3.159000 0.588900
3.225300 0.548100
3.291600 0.524100
3.357900 0.519500
3.424100 0.517300
3.490400 0.513600
3.556700 0.502000
3.623000 0.472200
3.689300 0.465400
3.755500 0.446100
3.821800 0.422700
3.888100 0.406400
3.954400 0.405000
4.020700 0.398400
4.086900 0.408800
4.153200 0.402300
4.219500 0.399900
4.285800 0.401600
4.352100 0.403800
4.418300 0.407300
4.484600 0.410600
4.550900 0.423200
4.617200 0.436400
4.683500 0.445700
4.749700 0.447100
4.816000 0.446900
4.882300 0.447400
4.948600 0.448000
5.014900 0.449700
5.081100 0.450400
5.147400 0.450500
5.213700 0.450900
5.280000 0.458800
5.346200 0.464800
5.412500 0.469800
5.478800 0.468000
5.545100 0.468400
5.611400 0.468600
5.677600 0.478800
5.743900 0.480100
5.810200 0.490900
5.876500 0.497700
5.942800 0.509800
6.009000 0.513900
6.075300 0.528900
6.141600 0.537200
6.207900 0.526500
6.274200 0.523600
6.340400 0.520500
6.406700 0.519700
6.473000 0.515700
6.539300 0.511400
6.605600 0.510600
6.671800 0.543700
6.738100 0.532500
6.804400 0.515300
6.870700 0.514200
6.937000 0.512700
7.003200 0.510000
7.069500 0.507800
7.135800 0.506900
7.202100 0.506700
7.268400 0.507600
7.334600 0.508600
7.400900 0.520600
7.467200 0.519800
7.533500 0.522500
7.599700 0.518100
7.666000 0.514300
7.732300 0.508000
7.798600 0.507100
7.864900 0.506500
7.931100 0.506100
7.997400 0.506100
8.063700 0.506800
8.130000 0.507800
8.196300 0.516200
8.262500 0.521400
8.328800 0.519100
8.395100 0.517900
8.461400 0.520300
8.527700 0.522100
8.593900 0.518800
8.660200 0.515400
8.726500 0.514700
8.792800 0.517200
8.859100 0.514000
8.925300 0.515400
8.991600 0.516600
9.057900 0.520200
9.124200 0.526000
9.190500 0.522900
9.256700 0.527400
9.323000 0.532400
9.389300 0.542400
9.455600 0.540200
9.521800 0.530300
9.588100 0.531600
9.654400 0.532900
9.720700 0.534300
9.787000 0.535100
9.853200 0.535900
9.919500 0.542100
9.985800 0.548800
10.052100 0.547400
10.118400 0.548000
10.184600 0.549900
10.250900 0.553800
10.317200 0.560000
10.383500 0.560900
10.449800 0.563700
10.516000 0.558600
10.582300 0.551700
10.648600 0.533200
10.714900 0.524400
10.781200 0.517700
10.847400 0.516500
10.913700 0.520600
10.980000 0.522500
11.046300 0.524900
11.112600 0.529700
11.178800 0.552700
11.245100 0.566100
11.311400 0.570700
11.377700 0.572500
11.443900 0.582100
11.510200 0.591300
11.576500 0.602500
11.642800 0.615000
11.709100 0.631800
11.775300 0.643600
11.841600 0.662000
11.907900 0.682700
11.974200 0.710800
12.040500 0.778300
12.106700 0.855000
12.173000 0.924900
12.239300 0.987400
12.305600 0.999900
12.371900 0.975800
12.438100 0.940400
12.504400 0.923300
12.570700 0.886300
12.637000 0.814600
12.703300 0.723200
12.769500 0.588400
12.835800 0.538300
12.902100 0.489800
12.968400 0.445300
13.034700 0.433400
13.100900 0.413900
13.167200 0.393600
13.233500 0.377700
13.299800 0.361800
13.366100 0.353900
13.432300 0.341500
13.498600 0.327100
13.564900 0.317500
13.631200 0.308500
13.697400 0.299000
13.763700 0.292400
13.830000 0.291600
13.896300 0.277900
13.962600 0.270500
14.028800 0.264400
14.095100 0.259100
14.161400 0.252400
14.227700 0.253000
14.294000 0.247600
14.360200 0.237000
14.426500 0.231200
14.492800 0.226200
14.559100 0.223500
14.625400 0.221700
14.691600 0.221500
14.757900 0.215800
14.824200 0.210100
14.890500 0.204700
14.956800 0.216500
15.023000 0.201700
15.089300 0.183300
15.155600 0.161000
15.221900 0.163600
15.288200 0.166300
15.354400 0.169300
15.420700 0.172400
15.487000 0.176000
15.553300 0.179300
15.619500 0.182700
15.685800 0.186000
15.752100 0.189900
15.818400 0.194500
15.884700 0.221700
15.950900 0.275100
16.017200 0.321000
16.083500 0.349400
16.149800 0.375600
16.216100 0.407500
16.282300 0.451700
16.348600 0.502400
16.414900 0.559500
16.481200 0.639600
16.547500 0.736300
16.613700 0.821800
16.680000 0.895300
16.746300 0.941200
16.812600 0.919000
16.878900 0.845200
16.945100 0.775300
17.011400 0.739100
17.077700 0.716900
17.144000 0.673300
17.210300 0.632300
17.276500 0.611000
17.342800 0.584500
17.409100 0.569600
17.475400 0.557100
17.541600 0.548900
17.607900 0.550300
17.674200 0.541600
17.740500 0.542100
17.806800 0.552200
17.873000 0.575900
17.939300 0.600200
18.005600 0.628300
18.071900 0.660000
18.138200 0.694500
18.204400 0.733600
18.270700 0.783000
18.337000 0.840000
18.403300 0.898000
18.469600 0.957200
18.535800 1.000800
18.602100 1.035100
18.668400 1.033600
18.734700 1.010100
18.801000 0.984800
18.867200 0.937700
18.933500 0.889500
18.999800 0.859800
19.066100 0.829300
19.132400 0.797600
19.198600 0.764000
19.264900 0.739900
19.331200 0.709500
19.397500 0.684800
19.463700 0.659700
19.530000 0.613700
19.596300 0.590700
19.662600 0.565400
19.728900 0.549200
19.795100 0.538400
19.861400 0.530000
19.927700 0.521000
19.994000 0.513000
20.060300 0.493700
20.126500 0.483600
20.192800 0.480500
20.259100 0.482600
20.325400 0.503900
20.391700 0.533400
20.457900 0.554300
20.524200 0.578100
20.590500 0.613300
20.656800 0.634700
20.723100 0.654200
20.789300 0.672100
20.855600 0.687500
20.921900 0.696800
20.988200 0.711300
21.054500 0.754900
21.120700 0.745700
21.187000 0.697300
21.253300 0.697400
21.319600 0.690400
21.385900 0.683700
21.452100 0.676500
21.518400 0.670100
21.584700 0.663200
21.651000 0.660700
21.717200 0.656600
21.783500 0.652700
21.849800 0.661700
21.916100 0.721100
21.982400 0.707400
22.048600 0.775300
22.114900 0.698900
22.181200 0.672400
22.247500 0.649800
22.313800 0.647800
22.380000 0.641200
22.446300 0.640500
22.512600 0.631700
22.578900 0.631300
22.645200 0.630400
22.711400 0.629400
22.777700 0.630500
22.844000 0.631000
22.910300 0.632200
22.976600 0.645600
23.042800 0.642900
23.109100 0.646100
23.175400 0.651500
23.241700 0.652100
23.308000 0.657500
23.374200 0.661900
23.440500 0.669700
23.506800 0.684200
23.573100 0.701600
23.639300 0.731100
23.705600 0.776900
23.771900 0.744400
23.838200 0.739700
23.904500 0.742600
23.970700 0.746600
24.037000 0.751900
24.103300 0.763800
24.169600 0.752700
24.235900 0.754300
24.302100 0.759600
24.368400 0.781800
24.434700 0.783400
24.501000 0.788100
24.567300 0.783100
24.633500 0.779100
24.699800 0.777400
24.766100 0.780700
24.832400 0.776300
24.898700 0.779200
24.964900 0.785700
25.031200 0.786200
25.097500 0.785600
25.163800 0.785400
25.230100 0.786200
25.296300 0.791700
25.362600 0.785800
25.428900 0.768100
25.495200 0.764000
25.561400 0.756100
25.627700 0.760100
25.694000 0.758700
25.760300 0.763300
25.826600 0.766900
25.892800 0.763600
25.959100 0.775300
26.025400 0.782900
26.091700 0.788000
26.158000 0.793900
26.224200 0.801100
26.290500 0.808600
26.356800 0.815200
26.423100 0.817500
26.489400 0.818900
26.555600 0.821000
26.621900 0.817000
26.688200 0.818100
26.754500 0.851900
26.820800 0.824300
26.887000 0.817400
26.953300 0.780900
27.019600 0.733200
27.085900 0.706100
27.152200 0.702200
27.218400 0.700000
27.284700 0.706800
27.351000 0.716900
27.417300 0.697800
27.483600 0.685300
27.549800 0.686600
27.616100 0.685300
27.682400 0.681100
27.748700 0.676600
27.814900 0.663700
27.881200 0.663900
27.947500 0.657300
28.013800 0.652600
28.080100 0.647800
28.146300 0.626600
28.212600 0.621000
28.278900 0.628800
28.345200 0.639200
28.411500 0.664300
28.477700 0.695000
28.544000 0.736600
28.610300 0.792900
28.676600 0.857800
28.742900 0.895100
28.809100 0.872600
28.875400 0.860200
28.941700 0.872500
29.008000 0.854200
29.074300 0.858300
29.140500 0.815200
29.206800 0.797300
29.273100 0.789600
29.339400 0.785700
29.405700 0.826000
29.471900 0.808400
29.538200 0.790400
29.604500 0.756900
29.670800 0.751700
29.737000 0.732100
29.803300 0.747500
29.869600 0.766600
29.935900 0.813000
30.002200 0.839500
30.068400 0.858600
30.134700 0.867800
30.201000 0.865900
30.267300 0.867500
30.333600 0.867800
30.399800 0.854600
30.466100 0.838800
30.532400 0.797900
30.598700 0.761700
30.665000 0.759800
30.731200 0.762000
30.797500 0.767400
30.863800 0.766300
30.930100 0.764600
30.996400 0.774800
31.062600 0.785700
31.128900 0.800400
31.195200 0.808200
31.261500 0.814500
31.327800 0.825600
31.394000 0.834200
31.460300 0.840400
31.526600 0.851300
31.592900 0.806100
31.659100 0.791300
31.725400 0.838800
31.791700 0.829800
31.858000 0.829700
31.924300 0.828800
31.990500 0.822100
32.056800 0.817200
32.123100 0.809900
32.189400 0.805800
32.255700 0.804300
32.321900 0.799800
32.388200 0.807600
32.454500 0.842900
32.520800 0.925500
32.587100 0.901800
32.653300 0.888300
32.719600 0.898700
32.785900 0.904400
32.852200 0.907400
32.918500 0.908500
32.984700 0.895400
33.051000 0.893900
33.117300 0.888100
33.183600 0.875600
33.249900 0.859600
33.316100 0.851100
33.382400 0.849700
33.448700 0.847700
33.515000 0.844300
33.581200 0.843600
33.647500 0.841600
33.713800 0.843700
33.780100 0.849600
33.846400 0.854900
33.912600 0.857800
33.978900 0.863800
34.045200 0.867700
34.111500 0.870900
34.177800 0.874700
34.244000 0.878400
34.310300 0.876500
34.376600 0.882800
34.442900 0.869800
34.509200 0.855100
34.575400 0.834000
34.641700 0.806200
34.708000 0.796800
34.774300 0.732700
34.840600 0.734200
34.906800 0.747900
34.973100 0.739900
35.039400 0.756000
35.105700 0.747100
35.172000 0.739300
35.238200 0.748100
35.304500 0.751300
35.370800 0.758400
35.437100 0.770200
35.503400 0.792600
35.569600 0.821100
35.635900 0.838200
35.702200 0.844700
35.768500 0.846700
35.834700 0.870400
35.901000 0.942600
35.967300 0.911700
36.033600 0.956700
36.099900 0.998700
36.166100 1.032400
36.232400 1.043900
36.298700 1.043700
36.365000 1.037800
36.431300 1.015800
36.497500 1.002700
36.563800 0.983800
36.630100 0.948900
36.696400 0.942700
36.762700 0.935900
36.828900 0.940000
36.895200 0.947200
36.961500 0.958100
37.027800 0.957100
37.094100 0.982200
37.160300 0.970800
37.226600 0.930900
37.292900 0.924500
37.359200 0.920400
37.425500 0.914400
37.491700 0.931800
37.558000 0.974600
37.624300 0.975300
37.690600 0.984800
37.756800 0.967400
37.823100 0.922800
37.889400 0.903700
37.955700 0.895200
38.022000 0.894500
38.088200 0.895800
38.154500 0.901600
38.220800 0.915200
38.287100 0.937300
38.353400 0.986100
38.419600 0.990000
38.485900 1.003600
38.552200 1.011300
38.618500 1.017000
38.684800 1.008800
38.751000 0.978000
38.817300 0.924200
38.883600 0.893600
38.949900 0.871400
39.016200 0.859800
39.082400 0.879700
39.148700 0.896000
39.215000 0.916700
39.281300 0.937400
39.347600 0.974100
39.413800 1.024200
39.480100 1.069100
39.546400 1.130600
39.612700 1.227400
39.678900 1.344800
39.745200 1.223300
39.811500 1.140000
39.877800 1.070700
39.944100 1.024000
40.010300 0.962100
40.076600 0.895000
40.142900 0.808000
40.209200 0.809100
40.275500 0.782000
40.341700 0.778000
40.408000 0.766300
40.474300 0.784600
40.540600 0.848600
40.606900 0.861800
40.673100 0.851100
40.739400 0.831200
40.805700 0.801300
40.872000 0.780100
40.938300 0.768300
41.004500 0.761800
41.070800 0.754800
41.137100 0.754000
41.203400 0.742100
41.269700 0.758300
41.335900 0.788000
41.402200 0.816100
41.468500 0.841400
41.534800 0.867400
41.601000 0.881400
41.667300 0.883900
41.733600 0.885600
41.799900 0.879900
41.866200 0.916400
41.932400 0.820900
41.998700 0.798300
42.065000 0.789100
42.131300 0.797400
42.197600 0.793100
42.263800 0.787300
42.330100 0.779000
42.396400 0.773900
42.462700 0.769100
42.529000 0.765700
42.595200 0.763800
42.661500 0.798600
42.727800 0.821300
42.794100 0.859000
42.860400 0.864200
42.926600 0.880300
42.992900 0.856900
43.059200 0.879700
43.125500 0.919700
43.191800 0.909200
43.258000 0.861000
43.324300 0.818800
43.390600 0.805400
43.456900 0.796400
43.523200 0.781500
43.589400 0.772700
43.655700 0.767900
43.722000 0.757100
43.788300 0.829600
43.854500 0.889200
43.920800 0.905800
43.987100 0.918600
44.053400 0.941000
44.119700 0.962100
44.185900 0.981800
44.252200 0.999000
44.318500 1.013300
44.384800 1.029700
44.451100 1.038300
44.517300 1.044000
44.583600 1.053600
44.649900 1.056700
44.716200 1.050100
44.782500 1.047100
44.848700 1.064800
44.915000 1.104900
44.981300 1.049100
45.047600 1.042800
45.113900 1.043700
45.180100 1.023400
45.246400 1.022300
45.312700 1.005100
45.379000 0.992800
45.445300 0.978800
45.511500 0.976800
45.577800 0.978400
45.644100 0.987400
45.710400 1.016800
45.776600 1.060700
45.842900 1.052000
45.909200 1.051600
45.975500 1.052600
46.041800 1.051400
46.108000 1.045200
46.174300 1.047400
46.240600 1.062800
46.306900 1.072300
46.373200 1.082000
46.439400 1.089200
46.505700 1.100000
46.572000 1.085600
46.638300 1.056800
46.704600 1.027700
46.770800 0.994500
46.837100 0.904800
46.903400 0.844800
46.969700 0.810600
47.036000 0.790600
47.102200 0.781800
47.168500 0.777500
47.234800 0.780000
47.301100 0.795100
47.367400 0.813200
47.433600 0.834500
47.499900 0.838400
47.566200 0.869300
47.632500 0.920100
47.698700 0.971400
47.765000 1.023600
47.831300 1.068800
47.897600 1.109500
47.963900 1.127300
48.030100 1.116000
48.096400 1.105700
48.162700 1.098300
48.229000 1.096800
48.295300 1.097400
48.361500 1.113600
48.427800 1.060600
48.494100 1.020500
48.560400 1.006900
48.626700 1.005300
48.692900 1.010700
48.759200 1.005500
48.825500 1.004600
48.891800 1.002900
48.958100 1.004800
49.024300 0.978800
49.090600 0.946900
49.156900 0.960300
49.223200 0.986400
49.289500 1.012500
49.355700 1.016500
49.422000 1.055300
49.488300 1.126600
49.554600 1.193400
49.620900 1.139600
49.687100 1.142400
49.753400 1.122000
49.819700 1.103200
49.886000 1.092100
49.952200 1.044900
50.018500 1.001800
50.084800 0.995100
50.151100 1.001600
50.217400 1.001600
50.283600 0.998000
50.349900 1.009900
50.416200 0.996200
50.482500 1.024700
50.548800 1.086900
50.615000 1.053000
50.681300 1.038400
50.747600 1.021300
50.813900 1.012000
50.880200 1.003300
50.946400 0.993700
51.012700 0.987000
51.079000 0.980200
51.145300 0.976800
51.211600 0.983700
51.277800 0.973700
51.344100 0.986200
51.410400 0.995100
51.476700 1.059600
51.543000 1.047700
51.609200 1.087500
51.675500 1.147000
51.741800 1.153500
51.808100 1.150600
51.874300 1.161800
51.940600 1.100500
52.006900 1.087700
52.073200 1.073500
52.139500 1.060400
52.205700 1.046600
52.272000 1.034900
52.338300 1.027900
52.404600 1.026900
52.470900 1.069100
52.537100 1.051100
52.603400 1.061600
52.669700 1.076900
52.736000 1.084800
52.802300 1.102900
52.868500 1.115900
52.934800 1.123600
53.001100 1.134500
53.067400 1.127900
53.133700 1.122600
53.199900 1.107700
53.266200 1.098600
53.332500 1.063800
53.398800 1.051300
53.465100 1.046000
53.531300 1.020500
53.597600 0.993600
53.663900 0.969600
53.730200 0.950900
53.796400 0.929500
53.862700 0.915900
53.929000 0.903800
53.995300 0.919500
54.061600 0.927300
54.127800 0.919900
54.194100 0.923200
54.260400 0.930700
54.326700 0.956200
54.393000 0.999700
54.459200 1.014800
54.525500 0.984100
54.591800 0.973900
54.658100 0.966600
54.724400 0.945600
54.790600 0.940300
54.856900 0.939400
54.923200 0.945700
54.989500 0.950300
55.055800 0.953600
55.122000 0.962400
55.188300 0.961000
55.254600 0.960200
55.320900 0.952000
55.387200 0.951000
55.453400 0.996300
55.519700 0.994400
55.586000 0.968900
55.652300 0.912800
55.718500 0.917900
55.784800 0.914000
55.851100 0.905200
55.917400 0.901300
55.983700 0.893900
56.049900 0.891100
56.116200 0.893500
56.182500 0.901300
56.248800 0.907300
56.315100 0.922600
56.381300 0.945000
56.447600 0.976600
56.513900 0.993900
56.580200 1.028800
56.646500 1.050200
56.712700 1.072400
56.779000 1.076600
56.845300 1.097800
56.911600 1.101500
56.977900 1.112000
57.044100 1.188900
57.110400 1.270300
57.176700 1.343000
57.243000 1.378200
57.309300 1.403000
57.375500 1.429500
57.441800 1.414900
57.508100 1.343100
57.574400 1.277000
57.640700 1.132300
57.706900 1.130200
57.773200 1.125600
57.839500 1.106200
57.905800 1.092400
57.972000 1.076400
58.038300 1.073100
58.104600 1.065000
58.170900 1.058100
58.237200 1.088300
58.303400 1.070700
58.369700 1.062800
58.436000 1.094500
58.502300 1.158000
58.568600 1.244300
58.634800 1.298500
58.701100 1.112700
58.767400 1.081100
58.833700 1.129100
58.900000 1.093000
58.966200 1.100500
59.032500 1.107900
59.098800 1.130100
59.165100 1.112300
59.231400 1.119200
59.297600 1.123400
59.363900 1.130800
59.430200 1.123100
59.496500 1.169300
59.562800 1.081500
59.629000 1.068900
59.695300 1.083000
59.761600 1.049800
59.827900 1.052300
59.894100 1.061400
59.960400 1.071800
60.026700 1.078300
60.093000 1.078800
60.159300 1.082500
60.225500 1.077600
60.291800 1.078500
60.358100 1.076600
60.424400 1.084400
60.490700 1.073700
60.556900 1.083000
60.623200 1.094600
60.689500 1.124400
60.755800 1.229600
60.822100 1.217000
60.888300 1.201400
60.954600 1.188200
61.020900 1.204300
61.087200 1.298600
61.153500 1.156200
61.219700 1.110700
61.286000 1.072300
61.352300 1.057800
61.418600 1.050300
61.484900 1.049800
61.551100 1.068900
61.617400 1.089400
61.683700 1.102100
61.750000 1.134200
61.816200 1.158400
61.882500 1.169400
61.948800 1.187800
62.015100 1.286800
62.081400 1.086300
62.147600 1.067600
62.213900 1.045300
62.280200 1.025400
62.346500 1.020400
62.412800 1.019300
62.479000 1.017700
62.545300 1.025800
62.611600 1.055800
62.677900 1.088600
62.744200 1.116500
62.810400 1.154900
62.876700 1.190400
62.943000 1.224500
63.009300 1.284700
63.075600 1.303300
63.141800 1.283800
63.208100 1.282000
63.274400 1.290100
63.340700 1.254700
63.407000 1.220000
63.473200 1.186500
63.539500 1.155000
63.605800 1.125500
63.672100 1.106600
63.738300 1.094500
63.804600 1.077000
63.870900 1.068600
63.937200 1.082500
64.003500 1.139000
64.069700 1.078700
64.136000 0.953200
64.202300 0.933500
64.268600 0.955000
64.334900 0.984000
64.401100 1.011900
64.467400 1.027600
64.533700 1.082000
64.600000 1.114400
64.666300 1.090100
64.732500 1.110500
64.798800 1.049700
64.865100 1.041000
64.931400 1.051900
64.997700 1.077500
65.063900 1.095300
65.130200 1.108800
65.196500 1.166100
65.262800 1.101200
65.329100 1.047700
65.395300 1.010900
65.461600 0.989400
65.527900 0.987700
65.594200 0.994400
65.660500 1.024100
65.726700 1.059500
65.793000 1.091200
65.859300 1.128400
65.925600 1.169300
65.991800 1.310700
66.058100 1.244500
66.124400 1.257400
66.190700 1.267300
66.257000 1.265300
66.323200 1.248500
66.389500 1.209600
66.455800 1.174100
66.522100 1.140600
66.588400 1.097300
66.654600 1.072700
66.720900 1.052000
66.787200 1.051400
66.853500 1.059900
66.919800 1.071700
66.986000 1.086200
67.052300 1.111800
67.118600 1.112900
67.184900 1.146800
67.251200 1.126300
67.317400 1.124100
67.383700 1.103700
67.450000 1.098600
67.516300 1.084900
67.582600 1.103000
67.648800 1.121500
67.715100 1.139200
67.781400 1.152500
67.847700 1.196600
67.913900 1.239100
67.980200 1.242100
68.046500 1.208900
68.112800 1.170200
68.179100 1.133200
68.245300 1.109800
68.311600 1.124900
68.377900 1.126500
68.444200 1.161200
68.510500 1.203400
68.576700 1.243500
68.643000 1.248200
68.709300 1.246500
68.775600 1.213800
68.841900 1.188700
68.908100 1.184000
68.974400 1.190200
69.040700 1.196100
69.107000 1.191600
69.173300 1.195600
69.239500 1.208300
69.305800 1.218300
69.372100 1.240000
69.438400 1.257600
69.504700 1.276400
69.570900 1.289200
69.637200 1.293700
69.703500 1.296700
69.769800 1.300300
69.836000 1.292300
69.902300 1.268100
69.968600 1.216000
70.034900 1.143500
70.101200 1.088800
70.167400 1.089000
70.233700 1.104400
70.300000 1.135300
70.366300 1.147500
70.432600 1.153400
70.498800 1.158500
70.565100 1.169300
70.631400 1.178200
70.697700 1.173800
70.764000 1.198800
70.830200 1.177400
70.896500 1.186600
70.962800 1.204200
71.029100 1.216300
71.095400 1.231000
71.161600 1.275700
71.227900 1.309300
71.294200 1.350000
71.360500 1.387400
71.426800 1.398500
71.493000 1.404300
71.559300 1.352200
71.625600 1.325800
71.691900 1.303000
71.758200 1.267800
71.824400 1.250200
71.890700 1.226000
71.957000 1.191100
72.023300 1.176400
72.089500 1.167700
72.155800 1.169000
72.222100 1.144300
72.288400 1.140800
72.354700 1.146000
72.420900 1.158900
72.487200 1.180000
72.553500 1.195600
72.619800 1.219800
72.686100 1.240700
72.752300 1.284600
72.818600 1.289800
72.884900 1.293700
72.951200 1.234400
73.017500 1.172300
73.083700 1.255300
73.150000 1.084300
73.216300 1.049400
73.282600 1.053900
73.348900 1.034000
73.415100 1.034200
73.481400 1.037700
73.547700 1.024100
73.614000 1.009900
73.680300 0.999900
73.746500 0.991800
73.812800 0.989000
73.879100 1.001100
73.945400 1.029400
74.011600 1.079700
74.077900 1.235000
74.144200 1.205600
74.210500 1.257400
74.276800 1.293900
74.343000 1.334200
74.409300 1.358700
74.475600 1.372000
74.541900 1.377200
74.608200 1.388200
74.674400 1.385900
74.740700 1.370500
74.807000 1.339900
74.873300 1.279100
74.939600 1.236800
75.005800 1.214400
75.072100 1.205800
75.138400 1.206400
75.204700 1.225700
75.271000 1.240700
75.337200 1.293200
75.403500 1.363300
75.469800 1.397300
75.536100 1.410600
75.602400 1.423200
75.668600 1.438900
75.734900 1.377400
75.801200 1.286400
75.867500 1.239100
75.933700 1.199200
76.000000 1.164000
76.066300 1.137600
76.132600 1.161700
76.198900 1.112600
76.265100 1.086500
76.331400 1.040200
76.397700 1.021500
76.464000 1.024000
76.530300 1.028400
76.596500 1.024200
76.662800 1.020900
76.729100 1.009500
76.795400 1.020300
76.861700 1.031400
76.927900 1.050100
76.994200 1.073800
77.060500 1.102600
77.126800 1.131500
77.193100 1.179100
77.259300 1.239200
77.325600 1.311100
77.391900 1.381000
77.458200 1.454900
77.524500 1.456400
77.590700 1.470600
77.657000 1.462200
77.723300 1.427100
77.789600 1.368000
77.855800 1.339100
77.922100 1.309500
77.988400 1.282600
78.054700 1.260400
78.121000 1.240600
78.187200 1.242700
78.253500 1.283500
78.319800 1.180600
78.386100 1.086700
78.452400 1.067900
78.518600 1.041700
78.584900 1.042400
78.651200 1.047900
78.717500 1.071800
78.783800 1.100700
78.850000 1.157300
78.916300 1.138800
78.982600 1.190500
79.048900 1.223400
79.115200 1.224300
79.181400 1.194900
79.247700 1.167500
79.314000 1.099300
79.380300 1.037600
79.446600 1.021600
79.512800 1.022600
79.579100 1.027200
79.645400 1.029100
79.711700 1.019100
79.778000 1.054200
79.844200 1.064800
79.910500 1.061900
79.976800 1.064300
80.043100 1.064200
80.109300 1.055300
80.175600 1.040200
80.241900 1.056400
80.308200 1.062600
80.374500 1.065400
80.440700 1.037700
80.507000 1.015000
80.573300 1.016400
80.639600 1.027500
80.705900 1.031300
80.772100 1.062800
80.838400 1.089700
80.904700 1.120500
80.971000 1.154400
81.037300 1.156800
81.103500 1.170300
81.169800 1.147300
81.236100 1.178600
81.302400 1.199700
81.368700 1.234400
81.434900 1.290600
81.501200 1.352500
81.567500 1.403500
81.633800 1.440300
81.700100 1.472200
81.766300 1.527300
81.832600 1.540300
81.898900 1.521200
81.965200 1.496100
82.031400 1.517600
82.097700 1.497200
82.164000 1.464600
82.230300 1.433800
82.296600 1.457000
82.362800 1.430100
82.429100 1.364400
82.495400 1.332700
82.561700 1.328000
82.628000 1.331800
82.694200 1.375000
82.760500 1.413600
82.826800 1.435100
82.893100 1.438800
82.959400 1.442500
83.025600 1.445400
83.091900 1.412300
83.158200 1.308800
83.224500 1.255500
83.290800 1.212100
83.357000 1.183000
83.423300 1.174600
83.489600 1.227400
83.555900 1.133700
83.622200 1.111600
83.688400 1.108800
83.754700 1.103100
83.821000 1.118300
83.887300 1.156700
83.953500 1.234800
84.019800 1.267600
84.086100 1.300000
84.152400 1.323900
84.218700 1.371800
84.284900 1.373400
84.351200 1.361700
84.417500 1.348500
84.483800 1.328800
84.550100 1.315800
84.616300 1.309000
84.682600 1.298600
84.748900 1.293500
84.815200 1.301300
84.881500 1.289100
84.947700 1.270600
85.014000 1.263300
85.080300 1.282000
85.146600 1.312300
85.212900 1.331100
85.279100 1.291600
85.345400 1.281900
85.411700 1.278800
85.478000 1.284700
85.544300 1.305600
85.610500 1.330600
85.676800 1.371800
85.743100 1.443700
85.809400 1.523500
85.875700 1.592300
85.941900 1.603500
86.008200 1.584300
86.074500 1.551800
86.140800 1.501000
86.207000 1.433700
86.273300 1.397900
86.339600 1.375200
86.405900 1.365000
86.472200 1.369400
86.538400 1.350900
86.604700 1.337700
86.671000 1.331400
86.737300 1.317600
86.803600 1.311200
86.869800 1.304900
86.936100 1.309100
87.002400 1.295400
87.068700 1.313600
87.135000 1.298000
87.201200 1.278200
87.267500 1.259100
87.333800 1.289600
87.400100 1.238100
87.466400 1.238700
87.532600 1.252400
87.598900 1.250600
87.665200 1.251000
87.731500 1.251100
87.797800 1.266700
87.864000 1.250100
87.930300 1.258800
87.996600 1.272300
88.062900 1.279800
88.129100 1.288000
88.195400 1.292100
88.261700 1.261200
88.328000 1.256000
88.394300 1.272500
88.460500 1.290200
88.526800 1.292700
88.593100 1.307900
88.659400 1.320400
88.725700 1.315700
88.791900 1.317800
88.858200 1.311400
88.924500 1.331100
88.990800 1.368700
89.057100 1.416100
89.123300 1.459900
89.189600 1.490600
89.255900 1.511700
89.322200 1.537400
89.388500 1.545500
89.454700 1.392500
89.521000 1.333200
89.587300 1.273100
89.653600 1.232300
89.719900 1.163200
89.786100 1.076100
89.852400 1.040500
89.918700 1.038200
89.985000 1.103600
90.051200 1.216200
90.117500 1.304900
90.183800 1.378500
90.250100 1.471600
90.316400 1.474300
90.382600 1.404300
90.448900 1.320400
90.515200 1.244300
90.581500 1.175300
90.647800 1.119300
90.714000 1.072200
90.780300 1.009400
90.846600 0.965000
90.912900 0.890000
90.979200 0.836900
91.045400 0.760600
91.111700 0.706400
91.178000 0.649700
91.244300 0.586300
91.310600 0.538200
91.376800 0.505800
91.443100 0.499000
91.509400 0.472700
91.575700 0.448200
91.642000 0.429700
91.708200 0.414900
91.774500 0.398500
91.840800 0.395900
91.907100 0.359100
91.973300 0.348200
92.039600 0.339000
92.105900 0.331900
92.172200 0.326100
92.238500 0.318900
92.304700 0.310300
92.371000 0.300200
92.437300 0.289800
92.503600 0.277100
92.569900 0.249900
92.636100 0.215300
92.702400 0.201700
92.768700 0.189000
92.835000 0.176500
92.901300 0.159900
92.967500 0.139700
93.033800 0.124800
93.100100 0.117300
93.166400 0.113800
93.232700 0.111300
93.298900 0.109700
93.365200 0.108000
93.431500 0.106200
93.497800 0.104000
93.564100 0.102100
93.630300 0.100400
93.696600 0.098800
93.762900 0.097000
93.829200 0.095200
93.895500 0.092900
93.961700 0.090900
94.028000 0.087200
94.094300 0.086100
94.160600 0.084900
94.226800 0.083700
94.293100 0.082400
94.359400 0.081400
94.425700 0.080700
94.492000 0.079800
94.558200 0.078900
94.624500 0.078000
94.690800 0.077200
94.757100 0.076400
94.823400 0.075800
94.889600 0.075200
94.955900 0.074500
95.022200 0.073900
95.088500 0.073200
95.154800 0.072800
95.221000 0.072100
95.287300 0.071400
95.353600 0.070600
95.419900 0.069900
95.486200 0.069400
95.552400 0.068600
95.618700 0.068000
95.685000 0.067300
95.751300 0.066600
95.817600 0.065900
95.883800 0.065100
95.950100 0.064400
96.016400 0.063600
96.082700 0.062700
96.148900 0.061800
96.215200 0.060900
96.281500 0.060000
96.347800 0.059100
96.414100 0.058200
96.480300 0.057400
96.546600 0.056500
96.612900 0.055700
96.679200 0.055200
96.745500 0.054500
96.811700 0.053600
96.878000 0.052900
96.944300 0.052200
97.010600 0.051500
97.076900 0.050800
97.143100 0.050200
97.209400 0.049500
97.275700 0.048900
97.342000 0.048300
97.408300 0.047700
97.474500 0.047200
97.540800 0.046700
97.607100 0.046300
97.673400 0.046000
97.739700 0.045300
97.805900 0.044200
97.872200 0.043100
97.938500 0.042100
98.004800 0.041300
98.071000 0.040700
98.137300 0.040100
98.203600 0.039600
98.269900 0.039000
98.336200 0.038600
98.402400 0.038400
98.468700 0.037900
98.535000 0.037400
98.601300 0.036900
98.667600 0.036400
98.733800 0.035900
98.800100 0.035200
98.866400 0.034600
98.932700 0.033900
98.999000 0.033700
99.065200 0.032800
99.131500 0.031900
99.197800 0.030900
99.264100 0.029900
99.330400 0.028800
99.396600 0.027700
99.462900 0.027100
99.529200 0.026500
99.595500 0.025800
99.661800 0.025200
99.728000 0.023900
99.794300 0.023400
99.860600 0.022900
99.926900 0.023900
99.993100 0.024900
100.059400 0.024500
100.125700 0.023900
100.192000 0.023000
100.258300 0.021900
100.324500 0.020600
100.390800 0.018900
100.457100 0.018100
100.523400 0.017200
100.589700 0.016100
100.655900 0.014900
100.722200 0.013500
100.788500 0.012000
100.854800 0.010300
100.921100 0.005700
100.987300 0.005600
101.053600 0.005500
101.119900 0.005400
101.186200 0.005300
101.252500 0.005200
101.318700 0.005200
101.385000 0.005300
101.451300 0.005400
101.517600 0.005500
101.583900 0.005700
101.650100 0.005400
101.716400 0.005300
101.782700 0.005300
101.849000 0.005300
101.915300 0.005200
101.981500 0.005200
102.047800 0.005100
102.114100 0.005000
102.180400 0.004900
102.246600 0.004800
102.312900 0.004700
102.379200 0.004600
102.445500 0.004400
102.511800 0.004300
102.578000 0.004100
102.644300 0.003900
102.710600 0.003800
102.776900 0.003600
102.843200 0.012300
102.909400 0.000000
102.975700 0.000000
103.042000 0.000000
103.108300 0.000000
103.174600 0.000000
103.240800 0.000000
103.307100 0.000000
103.373400 0.000000
103.439700 0.000000
103.506000 0.000000
103.572200 0.000000
103.638500 0.000000
103.704800 0.000000
103.771100 0.000000
103.837400 0.000000
103.903600 0.000000
103.969900 0.000000
104.036200 0.000000
104.102500 0.000000
104.168700 0.000000
104.235000 0.000000
104.301300 0.000000
104.367600 0.000000
104.433900 0.000000
104.500100 0.000000
104.566400 0.000000
104.632700 0.000000
104.699000 0.000000
104.765300 0.000000
104.831500 0.000000
104.897800 0.000000
104.964100 0.000000
105.030400 0.000000
105.096700 0.000000
105.162900 0.000000
105.229200 0.000000
105.295500 0.000000
105.361800 0.000000
105.428100 0.000000
105.494300 0.000000
105.560600 0.000000
105.626900 0.000000
105.693200 0.000000
105.759500 0.000000
105.825700 0.000000
105.892000 0.000000
105.958300 0.000000
106.024600 0.000000
106.090800 0.000000
106.157100 0.000000
106.223400 0.000000
106.289700 0.000000
106.356000 0.000000
106.422200 0.000000
106.488500 0.000000
106.554800 0.000000
106.621100 0.000000
106.687400 0.000000
106.753600 0.000000
106.819900 0.000000
106.886200 0.000000
106.952500 0.000000
107.018800 0.000000
107.085000 0.000000
107.151300 0.000000
107.217600 0.000000
107.283900 0.000000
107.350200 0.000000
107.416400 0.000000
107.482700 0.000000
107.549000 0.000000
107.615300 0.000000
107.681600 0.000000
107.747800 0.000000
107.814100 0.000000
107.880400 0.000000
107.946700 0.000000
108.013000 0.000000
108.079200 0.000000
108.145500 0.000000
108.211800 0.000000
108.278100 0.000000
108.344300 0.000000
108.410600 0.000000
108.476900 0.000000
108.543200 0.000000
108.609500 0.000000
108.675700 0.000000
108.742000 0.000000
108.808300 0.000000
108.874600 0.000000
e
