set title 'mp-999142 - Density of States'
set xlabel 'Energy (eV)'
set ylabel 'DOS (states/eV)'
set grid
set xrange [-10:10]
set yrange [0:5.422]
set xzeroaxis lt -1
set terminal png size 800,600
set output 'mp-999142_dos_gnuplot.png'
plot '-' using 1:2 with lines title 'DOS'
-17.180900 0.000000
-17.152700 0.000000
-17.124500 0.000000
-17.096400 0.000000
-17.068200 0.000000
-17.040100 0.000000
-17.011900 0.000000
-16.983800 0.000000
-16.955600 0.000000
-16.927400 0.000000
-16.899300 0.000000
-16.871100 0.000000
-16.843000 0.000000
-16.814800 0.000000
-16.786700 0.000000
-16.758500 0.000000
-16.730300 0.000000
-16.702200 0.000000
-16.674000 0.000000
-16.645900 0.000000
-16.617700 0.000000
-16.589600 0.000000
-16.561400 0.000000
-16.533200 0.000000
-16.505100 0.000000
-16.476900 0.000000
-16.448800 0.000000
-16.420600 0.000000
-16.392400 0.000000
-16.364300 0.000000
-16.336100 0.000000
-16.308000 0.000000
-16.279800 0.000000
-16.251700 0.000000
-16.223500 0.000000
-16.195300 0.000000
-16.167200 0.000000
-16.139000 0.000000
-16.110900 0.000000
-16.082700 0.000000
-16.054600 0.000000
-16.026400 0.000000
-15.998200 0.000000
-15.970100 0.000000
-15.941900 0.000000
-15.913800 0.000000
-15.885600 0.000000
-15.857400 0.000000
-15.829300 0.000000
-15.801100 0.000000
-15.773000 0.000000
-15.744800 0.000000
-15.716700 0.000000
-15.688500 0.000000
-15.660300 0.000000
-15.632200 0.000000
-15.604000 0.000000
-15.575900 0.000000
-15.547700 0.000000
-15.519600 0.000000
-15.491400 0.000000
-15.463200 0.000000
-15.435100 0.000000
-15.406900 0.000000
-15.378800 0.000000
-15.350600 0.000000
-15.322400 0.000000
-15.294300 0.000000
-15.266100 0.000000
-15.238000 0.000000
-15.209800 0.000000
-15.181700 0.000000
-15.153500 0.000000
-15.125300 0.000000
-15.097200 0.000000
-15.069000 0.000000
-15.040900 0.000000
-15.012700 0.000000
-14.984600 0.000000
-14.956400 0.000000
-14.928200 0.000000
-14.900100 0.000000
-14.871900 0.000000
-14.843800 0.000000
-14.815600 0.000000
-14.787500 0.000000
-14.759300 0.000000
-14.731100 0.000000
-14.703000 0.000000
-14.674800 0.000000
-14.646700 0.000000
-14.618500 1.105800
-14.590300 2.514300
-14.562200 3.766100
-14.534000 3.895900
-14.505900 4.204200
-14.477700 4.359600
-14.449600 6.032600
-14.421400 7.440900
-14.393200 9.187700
-14.365100 12.444900
-14.336900 16.084200
-14.308800 15.277400
-14.280600 23.501500
-14.252500 30.691400
-14.224300 45.502900
-14.196100 30.396100
-14.168000 47.644200
-14.139800 67.180500
-14.111700 86.384600
-14.083500 81.267800
-14.055300 70.186900
-14.027200 57.679600
-13.999000 27.096000
-13.970900 7.429100
-13.942700 8.124500
-13.914600 7.971000
-13.886400 3.354300
-13.858200 0.000000
-13.830100 0.000000
-13.801900 0.000000
-13.773800 0.000000
-13.745600 0.000000
-13.717500 0.000000
-13.689300 0.000000
-13.661100 0.000000
-13.633000 0.000000
-13.604800 0.000000
-13.576700 0.000000
-13.548500 0.000000
-13.520400 0.000000
-13.492200 0.000000
-13.464000 0.000000
-13.435900 0.000000
-13.407700 0.000000
-13.379600 0.000000
-13.351400 0.000000
-13.323200 0.000000
-13.295100 0.000000
-13.266900 0.000000
-13.238800 0.000000
-13.210600 0.000000
-13.182500 0.000000
-13.154300 0.000000
-13.126100 0.000000
-13.098000 0.000000
-13.069800 0.000000
-13.041700 0.000000
-13.013500 0.000000
-12.985400 0.000000
-12.957200 0.000000
-12.929000 0.000000
-12.900900 0.000000
-12.872700 0.000000
-12.844600 0.000000
-12.816400 0.000000
-12.788200 0.000000
-12.760100 0.000000
-12.731900 0.000000
-12.703800 0.000000
-12.675600 0.000000
-12.647500 0.000000
-12.619300 0.000000
-12.591100 0.000000
-12.563000 0.000000
-12.534800 0.000000
-12.506700 0.000000
-12.478500 0.000000
-12.450400 0.000000
-12.422200 0.000000
-12.394000 0.000000
-12.365900 0.000000
-12.337700 0.000000
-12.309600 0.000000
-12.281400 0.000000
-12.253300 0.000000
-12.225100 0.000000
-12.196900 0.000000
-12.168800 0.000000
-12.140600 0.000000
-12.112500 0.000000
-12.084300 0.000000
-12.056100 0.000000
-12.028000 0.000000
-11.999800 0.000000
-11.971700 0.000000
-11.943500 0.000000
-11.915400 0.000000
-11.887200 0.000000
-11.859000 0.000000
-11.830900 0.000000
-11.802700 0.000000
-11.774600 0.000000
-11.746400 0.000000
-11.718300 0.000000
-11.690100 0.000000
-11.661900 0.000000
-11.633800 0.000000
-11.605600 0.000000
-11.577500 0.000000
-11.549300 0.000000
-11.521100 0.000000
-11.493000 0.000000
-11.464800 0.000000
-11.436700 0.000000
-11.408500 0.000000
-11.380400 0.000000
-11.352200 0.000000
-11.324000 0.000000
-11.295900 0.000000
-11.267700 0.000000
-11.239600 0.000000
-11.211400 0.000000
-11.183300 0.000000
-11.155100 0.259900
-11.126900 0.743100
-11.098800 0.870800
-11.070600 1.086400
-11.042500 1.307500
-11.014300 1.424100
-10.986200 1.589200
-10.958000 1.803800
-10.929800 2.060500
-10.901700 2.218400
-10.873500 2.395700
-10.845400 2.655200
-10.817200 3.016100
-10.789000 4.404600
-10.760900 4.152100
-10.732700 4.405900
-10.704600 4.187900
-10.676400 4.280800
-10.648300 4.649300
-10.620100 5.192400
-10.591900 5.693600
-10.563800 5.408300
-10.535600 5.790200
-10.507500 5.895800
-10.479300 4.583100
-10.451200 4.032100
-10.423000 3.611300
-10.394800 3.246600
-10.366700 2.575400
-10.338500 2.608300
-10.310400 2.612100
-10.282200 2.619100
-10.254000 2.661200
-10.225900 2.686500
-10.197700 2.208100
-10.169600 2.116100
-10.141400 2.047200
-10.113300 1.978700
-10.085100 1.904700
-10.056900 1.840900
-10.028800 1.784100
-10.000600 1.748100
-9.972500 1.697400
-9.944300 1.639700
-9.916200 1.582500
-9.888000 1.535600
-9.859800 1.497300
-9.831700 1.498800
-9.803500 1.481200
-9.775400 1.405300
-9.747200 1.304000
-9.719000 1.152500
-9.690900 0.965400
-9.662700 0.833600
-9.634600 0.736100
-9.606400 0.549400
-9.578300 0.393900
-9.550100 0.281400
-9.521900 0.000000
-9.493800 0.000000
-9.465600 0.000000
-9.437500 0.000000
-9.409300 0.000000
-9.381200 0.000000
-9.353000 0.000000
-9.324800 0.000000
-9.296700 0.000000
-9.268500 0.000000
-9.240400 0.000000
-9.212200 0.000000
-9.184100 0.000000
-9.155900 0.000000
-9.127700 0.000000
-9.099600 0.000000
-9.071400 0.000000
-9.043300 0.000000
-9.015100 0.000000
-8.986900 0.000000
-8.958800 0.000000
-8.930600 0.000000
-8.902500 0.000000
-8.874300 0.000000
-8.846200 0.000000
-8.818000 0.000000
-8.789800 0.000000
-8.761700 0.000000
-8.733500 0.000000
-8.705400 0.000000
-8.677200 0.000000
-8.649100 0.000000
-8.620900 0.000000
-8.592700 0.000000
-8.564600 0.000000
-8.536400 0.000000
-8.508300 0.000000
-8.480100 0.000000
-8.451900 0.000000
-8.423800 0.000000
-8.395600 0.000000
-8.367500 0.000000
-8.339300 0.000000
-8.311200 0.000000
-8.283000 0.000000
-8.254800 0.000000
-8.226700 0.000000
-8.198500 0.000000
-8.170400 0.000000
-8.142200 0.000000
-8.114100 0.000000
-8.085900 0.000000
-8.057700 0.000000
-8.029600 0.000000
-8.001400 0.000000
-7.973300 0.000000
-7.945100 0.000000
-7.917000 0.000000
-7.888800 0.000000
-7.860600 0.000000
-7.832500 0.000000
-7.804300 0.000000
-7.776200 0.000000
-7.748000 0.000000
-7.719800 0.000000
-7.691700 0.000000
-7.663500 0.000000
-7.635400 0.000000
-7.607200 0.000000
-7.579100 0.000000
-7.550900 0.000000
-7.522700 0.000000
-7.494600 0.000000
-7.466400 0.000000
-7.438300 0.000000
-7.410100 0.000000
-7.382000 0.000000
-7.353800 0.000000
-7.325600 0.000000
-7.297500 0.000000
-7.269300 0.000000
-7.241200 0.000000
-7.213000 0.000000
-7.184800 0.000000
-7.156700 0.000000
-7.128500 0.000000
-7.100400 0.000000
-7.072200 0.000000
-7.044100 0.000000
-7.015900 0.000000
-6.987700 0.000000
-6.959600 0.000000
-6.931400 0.000000
-6.903300 0.000000
-6.875100 0.000000
-6.847000 0.000000
-6.818800 0.000000
-6.790600 0.000000
-6.762500 0.000000
-6.734300 0.000000
-6.706200 0.000000
-6.678000 0.000000
-6.649900 0.000000
-6.621700 0.000000
-6.593500 0.000000
-6.565400 0.000000
-6.537200 0.000000
-6.509100 0.000000
-6.480900 0.000000
-6.452700 0.000000
-6.424600 0.000000
-6.396400 0.000000
-6.368300 0.000000
-6.340100 0.000000
-6.312000 0.000000
-6.283800 0.000000
-6.255600 0.000000
-6.227500 0.000000
-6.199300 0.000000
-6.171200 0.000000
-6.143000 0.000000
-6.114900 0.000000
-6.086700 0.000000
-6.058500 0.000000
-6.030400 0.000000
-6.002200 0.000000
-5.974100 0.000000
-5.945900 0.000000
-5.917700 0.000000
-5.889600 0.000000
-5.861400 0.000000
-5.833300 0.000000
-5.805100 0.000000
-5.777000 0.000000
-5.748800 0.000000
-5.720600 0.000000
-5.692500 0.000000
-5.664300 0.000000
-5.636200 0.000000
-5.608000 0.000000
-5.579900 0.000000
-5.551700 0.000000
-5.523500 0.000000
-5.495400 0.000000
-5.467200 0.000000
-5.439100 0.000000
-5.410900 0.000000
-5.382700 0.000000
-5.354600 0.000000
-5.326400 0.000000
-5.298300 0.000000
-5.270100 0.000000
-5.242000 0.000000
-5.213800 0.000000
-5.185600 0.000000
-5.157500 0.000000
-5.129300 0.000000
-5.101200 0.000000
-5.073000 0.000000
-5.044900 0.000000
-5.016700 0.000000
-4.988500 0.000000
-4.960400 0.000000
-4.932200 0.000000
-4.904100 0.000000
-4.875900 0.000000
-4.847800 0.000000
-4.819600 0.000000
-4.791400 0.000000
-4.763300 0.000000
-4.735100 0.000000
-4.707000 0.000000
-4.678800 0.000000
-4.650600 0.000000
-4.622500 0.000000
-4.594300 0.000000
-4.566200 0.000000
-4.538000 0.000000
-4.509900 0.000000
-4.481700 0.000000
-4.453500 0.000000
-4.425400 0.000000
-4.397200 0.000000
-4.369100 0.000000
-4.340900 0.000000
-4.312800 0.000000
-4.284600 0.000000
-4.256400 0.000000
-4.228300 0.000000
-4.200100 0.000000
-4.172000 0.000000
-4.143800 0.000000
-4.115600 0.000000
-4.087500 0.000000
-4.059300 0.000000
-4.031200 0.000000
-4.003000 0.000000
-3.974900 0.000000
-3.946700 0.000000
-3.918500 0.000000
-3.890400 0.000000
-3.862200 0.000000
-3.834100 0.000000
-3.805900 0.000000
-3.777800 0.000000
-3.749600 0.000000
-3.721400 0.000000
-3.693300 0.000000
-3.665100 0.000000
-3.637000 0.000000
-3.608800 0.000000
-3.580700 0.000000
-3.552500 0.000000
-3.524300 0.000000
-3.496200 0.000000
-3.468000 0.000000
-3.439900 0.000000
-3.411700 0.000000
-3.383500 0.000000
-3.355400 0.000000
-3.327200 0.000000
-3.299100 0.000000
-3.270900 0.000000
-3.242800 0.000000
-3.214600 0.000000
-3.186400 0.000000
-3.158300 0.000000
-3.130100 0.000000
-3.102000 0.000000
-3.073800 0.000000
-3.045700 0.000000
-3.017500 0.000000
-2.989300 0.000000
-2.961200 0.000000
-2.933000 0.000000
-2.904900 0.000000
-2.876700 0.000000
-2.848500 0.000000
-2.820400 0.000000
-2.792200 0.000000
-2.764100 0.000000
-2.735900 0.000000
-2.707800 0.000000
-2.679600 0.000000
-2.651400 0.000000
-2.623300 0.000000
-2.595100 0.000000
-2.567000 0.000000
-2.538800 0.000000
-2.510700 0.000000
-2.482500 0.000000
-2.454300 0.000000
-2.426200 0.000000
-2.398000 0.000000
-2.369900 0.000000
-2.341700 0.000000
-2.313600 0.000000
-2.285400 0.000000
-2.257200 0.000000
-2.229100 0.000000
-2.200900 0.000000
-2.172800 0.000000
-2.144600 0.000000
-2.116400 0.000000
-2.088300 0.000000
-2.060100 0.000000
-2.032000 0.140200
-2.003800 0.193600
-1.975700 0.253200
-1.947500 0.304300
-1.919300 0.348200
-1.891200 0.381800
-1.863000 0.421300
-1.834900 0.433700
-1.806700 0.456100
-1.778600 0.481900
-1.750400 0.507200
-1.722200 0.531800
-1.694100 0.560100
-1.665900 0.588700
-1.637800 0.617300
-1.609600 0.640800
-1.581400 0.664700
-1.553300 0.688400
-1.525100 0.707400
-1.497000 0.731700
-1.468800 0.754700
-1.440700 0.776300
-1.412500 0.799500
-1.384300 0.822400
-1.356200 0.845000
-1.328000 0.867400
-1.299900 0.890500
-1.271700 0.914900
-1.243600 0.940500
-1.215400 0.971200
-1.187200 1.001500
-1.159100 1.032900
-1.130900 1.070700
-1.102800 1.104300
-1.074600 1.137500
-1.046500 1.171100
-1.018300 1.204900
-0.990100 1.239400
-0.962000 1.274800
-0.933800 1.310700
-0.905700 1.432700
-0.877500 1.476000
-0.849300 1.514000
-0.821200 1.607200
-0.793000 1.566000
-0.764900 1.569600
-0.736700 1.543800
-0.708600 1.544800
-0.680400 1.554100
-0.652200 1.561500
-0.624100 1.558200
-0.595900 1.549600
-0.567800 1.538700
-0.539600 1.536500
-0.511500 1.536800
-0.483300 1.528400
-0.455100 1.526700
-0.427000 1.525400
-0.398800 1.525400
-0.370700 1.526000
-0.342500 1.522600
-0.314300 1.534300
-0.286200 1.537000
-0.258000 1.544800
-0.229900 1.552400
-0.201700 1.562900
-0.173600 1.573100
-0.145400 1.583600
-0.117200 1.593100
-0.089100 1.632400
-0.060900 1.659300
-0.032800 1.659500
-0.004600 1.656300
0.023500 1.651300
0.051700 1.621900
0.079900 1.604100
0.108000 1.570900
0.136200 1.561000
0.164300 1.550300
0.192500 1.541400
0.220700 1.531000
0.248800 1.519800
0.277000 1.506000
0.305100 1.481700
0.333300 1.462000
0.361400 1.447200
0.389600 1.432300
0.417800 1.412100
0.445900 1.395100
0.474100 1.377700
0.502200 1.359800
0.530400 1.362700
0.558500 1.359000
0.586700 1.310300
0.614900 1.263200
0.643000 1.238100
0.671200 1.213900
0.699300 1.190500
0.727500 1.156100
0.755600 1.133200
0.783800 1.120300
0.812000 1.107300
0.840100 1.083500
0.868300 1.067300
0.896400 1.160900
0.924600 1.185900
0.952800 1.179600
0.980900 1.199700
1.009100 1.220300
1.037200 2.407800
1.065400 1.100100
1.093500 1.086200
1.121700 1.078000
1.149900 1.051400
1.178000 1.038500
1.206200 1.037000
1.234300 1.026800
1.262500 1.016300
1.290600 1.009200
1.318800 1.004600
1.347000 1.003100
1.375100 0.997500
1.403300 0.993800
1.431400 1.013600
1.459600 1.050600
1.487800 1.045800
1.515900 1.041300
1.544100 1.009300
1.572200 1.020800
1.600400 1.028900
1.628500 1.111900
1.656700 1.060500
1.684900 1.006400
1.713000 0.878300
1.741200 0.892900
1.769300 0.902900
1.797500 0.910700
1.825600 0.908400
1.853800 0.927000
1.882000 1.045300
1.910100 1.053500
1.938300 1.009000
1.966400 1.012800
1.994600 1.013200
2.022700 1.017600
2.050900 1.036200
2.079100 1.043900
2.107200 1.025400
2.135400 1.014100
2.163500 1.094200
2.191700 1.114500
2.219900 1.124000
2.248000 1.133800
2.276200 1.312900
2.304300 1.306200
2.332500 1.351000
2.360600 1.398700
2.388800 1.420700
2.417000 1.458800
2.445100 1.492500
2.473300 1.523500
2.501400 1.586600
2.529600 1.620500
2.557700 1.555300
2.585900 1.597700
2.614100 1.634500
2.642200 1.673900
2.670400 1.715300
2.698500 1.775800
2.726700 1.895600
2.754900 2.085400
2.783000 1.938600
2.811200 1.931900
2.839300 1.951500
2.867500 2.019900
2.895600 2.047100
2.923800 2.085000
2.952000 2.208800
2.980100 2.333100
3.008300 2.330000
3.036400 2.316100
3.064600 2.325300
3.092700 2.299600
3.120900 2.376400
3.149100 2.332800
3.177200 2.495500
3.205400 2.658000
3.233500 2.745200
3.261700 2.799000
3.289800 3.007500
3.318000 2.574700
3.346200 2.505600
3.374300 2.648000
3.402500 2.946700
3.430600 2.939400
3.458800 3.033000
3.487000 3.127400
3.515100 3.217900
3.543300 3.204200
3.571400 3.249500
3.599600 3.211800
3.627700 3.046200
3.655900 2.854400
3.684100 2.853400
3.712200 2.950600
3.740400 3.004300
3.768500 3.162000
3.796700 3.015700
3.824800 2.918900
3.853000 2.899500
3.881200 2.829400
3.909300 2.814700
3.937500 2.771700
3.965600 2.750300
3.993800 2.786900
4.022000 2.948800
4.050100 2.951200
4.078300 2.989000
4.106400 3.155400
4.134600 3.233600
4.162700 3.193100
4.190900 3.136100
4.219100 2.956600
4.247200 2.791700
4.275400 2.727900
4.303500 2.676100
4.331700 2.677700
4.359800 2.499300
4.388000 2.671000
4.416200 2.435200
4.444300 2.314400
4.472500 2.246200
4.500600 2.517400
4.528800 2.125200
4.557000 1.998500
4.585100 1.852100
4.613300 1.665700
4.641400 1.635600
4.669600 1.629800
4.697700 1.621100
4.725900 1.624200
4.754100 1.636400
4.782200 1.655400
4.810400 1.674600
4.838500 1.690500
4.866700 1.715900
4.894800 1.727200
4.923000 1.767700
4.951200 1.808400
4.979300 1.844800
5.007500 1.873700
5.035600 1.881700
5.063800 1.870500
5.091900 1.878700
5.120100 1.903500
5.148300 1.965200
5.176400 2.019800
5.204600 2.089300
5.232700 2.185700
5.260900 2.412100
5.289100 2.449600
5.317200 2.488100
5.345400 2.578700
5.373500 2.693600
5.401700 2.698200
5.429800 2.836600
5.458000 2.950700
5.486200 3.003200
5.514300 3.050800
5.542500 3.042300
5.570600 3.144100
5.598800 2.988000
5.626900 2.950400
5.655100 3.192300
5.683300 2.994900
5.711400 4.928800
5.739600 2.736100
5.767700 3.512600
5.795900 2.894900
5.824100 2.078400
5.852200 2.077300
5.880400 2.102600
5.908500 2.110900
5.936700 2.117800
5.964800 2.125600
5.993000 2.124500
6.021200 2.141300
6.049300 2.168800
6.077500 2.203100
6.105600 2.326300
6.133800 2.297300
6.161900 2.343000
6.190100 2.530500
6.218300 2.586600
6.246400 2.741500
6.274600 2.829800
6.302700 2.859300
6.330900 2.921100
6.359000 3.012800
6.387200 3.072600
6.415400 3.183800
6.443500 3.544200
6.471700 3.330300
6.499800 2.755500
6.528000 2.642500
6.556200 2.639900
6.584300 2.648600
6.612500 2.730200
6.640600 2.055800
6.668800 1.698500
6.696900 1.422800
6.725100 1.283300
6.753300 0.972200
6.781400 0.860800
6.809600 0.754200
6.837700 0.666500
6.865900 0.588600
6.894000 0.586500
6.922200 0.638600
6.950400 0.557200
6.978500 0.530000
7.006700 0.493600
7.034800 0.473700
7.063000 0.396600
7.091200 0.372600
7.119300 0.369000
7.147500 0.338300
7.175600 0.252400
7.203800 0.255700
7.231900 0.289700
7.260100 0.249600
7.288300 0.247300
7.316400 0.256100
7.344600 0.283000
7.372700 0.296900
7.400900 0.312700
7.429000 0.362100
7.457200 0.374800
7.485400 0.356300
7.513500 0.364900
7.541700 0.383500
7.569800 0.398600
7.598000 0.413700
7.626100 0.428800
7.654300 0.443800
7.682500 0.476300
7.710600 0.486500
7.738800 0.495700
7.766900 0.517500
7.795100 0.529400
7.823300 0.510000
7.851400 0.526600
7.879600 0.542400
7.907700 0.557100
7.935900 0.570400
7.964000 0.584000
7.992200 0.592700
8.020400 0.603700
8.048500 0.606400
8.076700 0.609600
8.104800 0.617300
8.133000 0.683600
8.161100 0.693700
8.189300 0.740700
8.217500 0.754800
8.245600 0.742400
8.273800 0.738900
8.301900 0.790500
8.330100 0.807400
8.358300 0.824100
8.386400 0.840300
8.414600 0.856000
8.442700 0.875600
8.470900 0.862600
8.499000 0.880300
8.527200 0.882600
8.555400 0.888400
8.583500 0.897200
8.611700 0.905700
8.639800 0.914600
8.668000 0.919400
8.696100 0.929100
8.724300 0.937200
8.752500 0.948000
8.780600 0.962900
8.808800 0.975000
8.836900 0.987000
8.865100 0.999300
8.893200 1.011300
8.921400 1.017300
8.949600 1.025700
8.977700 1.037900
9.005900 1.057800
9.034000 1.079400
9.062200 1.098800
9.090400 1.113600
9.118500 1.163500
9.146700 1.197200
9.174800 1.212100
9.203000 1.225400
9.231100 1.229600
9.259300 1.246500
9.287500 1.179200
9.315600 1.158200
9.343800 1.137400
9.371900 1.123200
9.400100 1.131700
9.428200 1.118800
9.456400 1.124500
9.484600 1.079600
9.512700 1.092000
9.540900 1.104400
9.569000 1.115900
9.597200 1.126300
9.625400 1.146800
9.653500 1.162800
9.681700 1.121500
9.709800 1.080100
9.738000 1.062800
9.766100 1.055900
9.794300 1.049500
9.822500 1.043700
9.850600 1.038700
9.878800 1.039400
9.906900 1.030100
9.935100 1.021700
9.963200 1.015400
9.991400 0.984800
10.019600 0.989600
10.047700 0.996000
10.075900 1.002100
10.104000 1.008800
10.132200 1.043200
10.160400 1.046300
10.188500 1.092300
10.216700 1.121000
10.244800 1.128500
10.273000 1.120100
10.301100 1.090200
10.329300 1.093100
10.357500 1.103800
10.385600 1.117500
10.413800 1.131900
10.441900 1.146900
10.470100 1.151900
10.498200 1.161700
10.526400 1.175000
10.554600 1.186500
10.582700 1.218100
10.610900 1.227300
10.639000 1.229000
10.667200 1.332300
10.695300 1.273900
10.723500 1.260900
10.751700 1.268200
10.779800 1.262100
10.808000 1.260300
10.836100 1.260100
10.864300 1.248600
10.892500 1.244600
10.920600 1.236700
10.948800 1.197800
10.976900 1.152100
11.005100 1.161100
11.033200 1.165000
11.061400 1.170400
11.089600 1.197100
11.117700 1.200900
11.145900 1.202300
11.174000 1.199600
11.202200 1.215700
11.230300 1.238700
11.258500 1.249200
11.286700 1.193400
11.314800 1.203300
11.343000 1.210900
11.371100 1.221500
11.399300 1.231900
11.427500 1.242200
11.455600 1.252000
11.483800 1.252100
11.511900 1.260100
11.540100 1.306500
11.568200 1.314100
11.596400 1.329500
11.624600 1.346600
11.652700 1.376700
11.680900 1.417000
11.709000 1.453600
11.737200 1.489500
11.765300 1.533000
11.793500 1.530400
11.821700 1.546300
11.849800 1.572800
11.878000 1.587300
11.906100 1.597500
11.934300 1.607600
11.962400 1.616000
11.990600 1.624000
12.018800 1.620900
12.046900 1.663000
12.075100 1.651100
12.103200 1.705100
12.131400 3.028200
12.159600 3.266600
12.187700 2.839500
12.215900 2.383300
12.244000 2.728100
12.272200 2.878900
12.300300 2.759000
12.328500 2.642700
12.356700 2.486800
12.384800 2.245700
12.413000 2.209700
12.441100 2.077400
12.469300 2.030400
12.497400 1.980600
12.525600 1.957100
12.553800 1.933800
12.581900 1.907400
12.610100 1.883600
12.638200 1.869100
12.666400 1.861200
12.694600 1.871900
12.722700 1.979900
12.750900 2.016200
12.779000 2.091700
12.807200 2.311000
12.835300 2.308800
12.863500 2.282900
12.891700 2.284700
12.919800 2.277900
12.948000 2.287100
12.976100 2.204700
13.004300 2.320000
13.032400 2.365500
13.060600 2.378700
13.088800 2.243100
13.116900 2.196900
13.145100 2.118600
13.173200 1.862000
13.201400 1.754400
13.229500 1.663300
13.257700 1.539200
13.285900 1.528900
13.314000 1.558900
13.342200 1.692400
13.370300 1.731900
13.398500 1.759100
13.426700 1.790100
13.454800 1.818700
13.483000 1.851000
13.511100 1.876900
13.539300 1.925800
13.567400 1.942700
13.595600 1.969500
13.623800 2.311300
13.651900 2.356700
13.680100 2.409100
13.708200 2.413800
13.736400 2.401300
13.764500 2.182600
13.792700 2.063700
13.820900 1.970000
13.849000 1.887400
13.877200 1.827500
13.905300 1.822300
13.933500 1.826900
13.961700 1.857300
13.989800 1.928400
14.018000 1.990600
14.046100 2.066100
14.074300 2.185100
14.102400 2.165800
14.130600 2.190500
14.158800 2.160000
14.186900 2.149800
14.215100 2.097900
14.243200 2.005600
14.271400 1.956200
14.299500 1.924100
14.327700 1.895800
14.355900 1.868100
14.384000 1.822700
14.412200 1.802400
14.440300 1.815100
14.468500 1.858300
14.496700 1.872300
14.524800 1.750300
14.553000 1.713600
14.581100 1.679700
14.609300 1.641800
14.637400 1.642600
14.665600 1.692400
14.693800 1.731500
14.721900 1.795500
14.750100 1.852200
14.778200 1.875200
14.806400 1.920100
14.834500 2.162600
14.862700 2.541000
14.890900 2.251500
14.919000 2.316900
14.947200 2.278800
14.975300 2.103600
15.003500 1.922800
15.031600 1.738700
15.059800 1.611100
15.088000 1.443300
15.116100 1.370900
15.144300 1.225200
15.172400 1.360000
15.200600 1.649800
15.228800 2.102800
15.256900 2.371100
15.285100 2.773400
15.313200 2.662500
15.341400 2.249100
15.369500 2.317700
15.397700 2.841800
15.425900 2.075000
15.454000 1.872000
15.482200 1.800800
15.510300 1.772900
15.538500 1.767100
15.566600 1.753400
15.594800 1.585300
15.623000 1.556600
15.651100 1.514100
15.679300 1.530400
15.707400 1.495900
15.735600 1.481800
15.763800 1.476700
15.791900 1.445400
15.820100 1.425600
15.848200 1.413000
15.876400 1.402200
15.904500 1.403500
15.932700 1.374700
15.960900 1.352700
15.989000 1.343000
16.017200 1.330700
16.045300 1.313300
16.073500 1.281100
16.101600 1.210200
16.129800 1.159300
16.158000 1.129700
16.186100 1.095600
16.214300 1.045000
16.242400 1.025900
16.270600 1.013400
16.298700 0.999800
16.326900 0.980800
16.355100 1.002600
16.383200 1.020000
16.411400 1.039700
16.439500 1.059500
16.467700 1.094800
16.495900 1.172200
16.524000 0.976900
16.552200 0.994400
16.580300 1.034900
16.608500 1.075900
16.636600 1.119200
16.664800 1.143700
16.693000 1.147500
16.721100 1.163900
16.749300 1.177100
16.777400 1.185700
16.805600 1.160600
16.833700 1.179100
16.861900 1.175200
16.890100 1.175100
16.918200 1.175500
16.946400 1.188600
16.974500 1.159500
17.002700 1.144200
17.030900 1.127900
17.059000 1.130600
17.087200 1.119200
17.115300 1.105800
17.143500 1.098400
17.171600 1.102000
17.199800 1.093400
17.228000 1.057500
17.256100 1.059000
17.284300 1.062900
17.312400 1.067400
17.340600 1.107300
17.368700 1.120600
17.396900 1.160700
17.425100 1.168200
17.453200 1.176800
17.481400 1.185300
17.509500 1.208500
17.537700 1.225400
17.565800 1.242700
17.594000 1.265700
17.622200 1.289800
17.650300 1.316100
17.678500 1.356500
17.706600 1.392900
17.734800 1.425200
17.763000 1.463100
17.791100 1.456300
17.819300 1.464000
17.847400 1.478300
17.875600 1.495100
17.903700 1.507000
17.931900 1.525400
17.960100 1.543900
17.988200 1.562900
18.016400 1.578100
18.044500 1.642800
18.072700 1.691300
18.100800 1.733800
18.129000 1.731000
18.157200 1.731800
18.185300 1.687500
18.213500 1.663100
18.241600 1.769700
18.269800 1.777600
18.298000 1.776400
18.326100 1.778700
18.354300 1.751100
18.382400 1.697900
18.410600 1.641700
18.438700 1.546600
18.466900 1.546000
18.495100 1.522900
18.523200 1.556200
18.551400 1.596400
18.579500 1.645700
18.607700 1.881900
18.635800 1.765100
18.664000 1.829200
18.692200 1.837600
18.720300 1.853300
18.748500 1.891600
18.776600 1.918300
18.804800 1.951600
18.832900 2.026400
18.861100 2.113400
18.889300 2.201000
18.917400 2.217800
18.945600 2.179600
18.973700 2.114000
19.001900 2.039000
19.030100 2.016800
19.058200 2.001400
19.086400 2.011000
19.114500 1.961000
19.142700 1.933500
19.170800 1.903600
19.199000 1.928300
19.227200 1.913000
19.255300 1.882800
19.283500 1.841200
19.311600 1.768100
19.339800 1.724600
19.367900 2.168700
19.396100 1.809600
19.424300 1.780500
19.452400 1.741800
19.480600 1.738600
19.508700 1.752900
19.536900 1.745200
19.565100 1.714400
19.593200 1.749100
19.621400 1.790700
19.649500 1.772500
19.677700 1.764800
19.705800 1.796800
19.734000 1.767000
19.762200 1.753000
19.790300 1.740800
19.818500 1.718400
19.846600 1.711300
19.874800 1.712100
19.902900 1.705600
19.931100 1.976200
19.959300 2.038200
19.987400 2.047000
20.015600 2.142600
20.043700 1.839800
20.071900 1.583600
20.100100 1.470400
20.128200 1.529300
20.156400 1.440000
20.184500 1.357300
20.212700 1.302200
20.240800 1.265400
20.269000 1.389800
20.297200 1.247200
20.325300 1.274800
20.353500 1.329500
20.381600 1.399100
20.409800 1.477000
20.437900 1.574300
20.466100 1.575700
20.494300 1.526600
20.522400 1.536900
20.550600 1.500400
20.578700 1.436300
20.606900 1.397100
20.635000 1.364600
20.663200 1.346900
20.691400 1.350600
20.719500 1.323100
20.747700 1.311100
20.775800 1.302400
20.804000 1.347000
20.832200 1.349500
20.860300 1.350100
20.888500 1.337100
20.916600 1.288700
20.944800 1.334800
20.972900 1.382400
21.001100 1.443500
21.029300 1.545700
21.057400 1.666400
21.085600 1.642500
21.113700 1.630300
21.141900 1.623100
21.170000 1.640800
21.198200 1.655700
21.226400 1.813900
21.254500 1.921400
21.282700 1.784600
21.310800 1.781000
21.339000 1.804300
21.367200 1.849400
21.395300 1.879800
21.423500 1.928700
21.451600 1.951700
21.479800 2.195000
21.507900 2.199400
21.536100 2.291600
21.564300 2.413600
21.592400 2.442900
21.620600 2.515400
21.648700 2.538300
21.676900 2.513300
21.705000 2.676300
21.733200 2.551400
21.761400 2.525500
21.789500 2.601300
21.817700 2.710300
21.845800 3.368400
21.874000 2.996200
21.902100 2.491600
21.930300 1.999500
21.958500 1.923500
21.986600 2.051800
22.014800 2.035800
22.042900 2.052300
22.071100 2.085400
22.099300 2.017900
22.127400 1.960300
22.155600 1.971800
22.183700 1.946000
22.211900 2.720600
22.240000 2.021500
22.268200 1.997000
22.296400 2.029400
22.324500 2.768000
22.352700 2.200400
22.380800 2.118500
22.409000 2.140800
22.437100 2.258600
22.465300 2.288300
22.493500 2.277100
22.521600 2.205800
22.549800 2.199600
22.577900 2.205900
22.606100 2.140300
22.634300 2.103600
22.662400 2.022800
22.690600 1.938300
22.718700 1.847900
22.746900 1.788200
22.775000 1.753600
22.803200 1.772000
22.831400 1.827700
22.859500 1.751000
22.887700 1.626000
22.915800 1.619000
22.944000 1.715700
22.972100 1.786900
23.000300 1.886000
23.028500 2.112200
23.056600 2.209500
23.084800 2.409900
23.112900 2.434000
23.141100 2.328300
23.169200 2.297400
23.197400 2.343700
23.225600 2.405800
23.253700 2.222900
23.281900 2.073500
23.310000 2.050900
23.338200 2.029900
23.366400 2.007900
23.394500 2.102100
23.422700 2.151900
23.450800 2.289500
23.479000 2.211100
23.507100 2.185900
23.535300 2.144200
23.563500 2.111700
23.591600 2.093100
23.619800 2.075100
23.647900 2.071100
23.676100 2.094500
23.704200 2.093700
23.732400 2.109500
23.760600 2.109200
23.788700 2.120400
23.816900 2.074100
23.845000 2.046100
23.873200 2.396800
23.901400 1.952100
23.929500 1.817600
23.957700 1.761700
23.985800 1.701500
24.014000 1.666000
24.042100 1.638500
24.070300 1.608400
24.098500 1.586800
24.126600 1.558000
24.154800 1.648100
24.182900 1.736800
24.211100 1.788600
24.239200 1.797900
24.267400 1.816100
24.295600 1.814300
24.323700 1.813000
24.351900 1.770700
24.380000 1.787200
24.408200 1.889900
24.436400 1.939300
24.464500 1.955300
24.492700 2.019000
24.520800 2.108900
24.549000 2.185200
24.577100 2.117700
24.605300 2.158100
24.633500 2.181700
24.661600 2.182100
24.689800 2.179600
24.717900 2.187000
24.746100 2.180000
24.774200 2.185800
24.802400 2.306000
24.830600 2.230400
24.858700 2.240800
24.886900 2.233300
24.915000 2.220600
24.943200 2.186600
24.971300 2.177400
24.999500 2.197700
25.027700 2.184500
25.055800 2.306800
25.084000 2.282300
25.112100 2.396900
25.140300 2.348100
25.168500 2.315600
25.196600 2.189100
25.224800 2.453700
25.252900 2.735200
25.281100 2.878500
25.309200 2.845000
25.337400 2.671100
25.365600 2.201800
25.393700 2.103300
25.421900 1.950900
25.450000 2.203400
25.478200 1.720900
25.506300 1.728200
25.534500 1.746900
25.562700 1.830300
25.590800 1.567800
25.619000 1.644600
25.647100 1.623100
25.675300 1.572000
25.703500 1.621800
25.731600 1.589500
25.759800 1.609800
25.787900 1.639900
25.816100 1.665900
25.844200 1.706900
25.872400 1.713800
25.900600 1.734000
25.928700 1.751800
25.956900 1.814800
25.985000 1.884400
26.013200 1.978000
26.041300 2.072000
26.069500 2.253200
26.097700 2.216400
26.125800 2.096100
26.154000 2.096500
26.182100 2.118100
26.210300 2.242100
26.238400 2.272800
26.266600 2.193200
26.294800 2.204700
26.322900 2.281600
26.351100 2.378400
26.379200 2.411700
26.407400 2.497100
26.435600 2.413800
26.463700 2.419200
26.491900 2.480600
26.520000 2.573600
26.548200 2.514100
26.576300 2.612000
26.604500 2.691500
26.632700 2.724600
26.660800 2.733000
26.689000 2.710100
26.717100 2.636400
26.745300 2.581600
26.773400 2.595300
26.801600 2.614700
26.829800 2.616000
26.857900 2.374300
26.886100 2.150300
26.914200 2.079800
26.942400 2.069200
26.970600 2.071700
26.998700 2.083000
27.026900 2.100900
27.055000 2.144900
27.083200 2.342300
27.111300 2.361600
27.139500 2.364500
27.167700 2.366200
27.195800 2.354700
27.224000 2.371000
27.252100 2.377400
27.280300 2.399700
27.308400 2.447600
27.336600 2.670800
27.364800 2.670600
27.392900 2.763400
27.421100 2.800700
27.449200 2.905800
27.477400 2.894900
27.505500 2.920700
27.533700 2.958600
27.561900 2.994500
27.590000 2.951500
27.618200 3.187000
27.646300 3.073400
27.674500 3.067600
27.702700 3.011100
27.730800 3.081900
27.759000 2.937600
27.787100 2.837400
27.815300 2.891500
27.843400 2.849500
27.871600 2.853400
27.899800 2.812800
27.927900 2.767200
27.956100 2.716700
27.984200 2.690000
28.012400 2.662400
28.040500 2.760500
28.068700 2.696600
28.096900 2.445700
28.125000 2.388700
28.153200 2.377700
28.181300 2.321900
28.209500 2.226200
28.237700 2.139400
28.265800 2.154600
28.294000 2.251000
28.322100 2.279900
28.350300 2.216200
28.378400 2.146900
28.406600 2.151500
28.434800 2.090800
28.462900 2.126000
28.491100 2.129300
28.519200 2.121700
28.547400 2.157700
28.575500 2.215000
28.603700 2.223200
28.631900 2.290900
28.660000 2.582300
28.688200 3.244000
28.716300 2.618200
28.744500 2.596800
28.772600 2.548600
28.800800 2.655800
28.829000 2.687400
28.857100 2.686000
28.885300 2.611600
28.913400 2.596600
28.941600 2.591800
28.969800 2.624100
28.997900 2.596200
29.026100 2.558600
29.054200 2.839700
29.082400 2.862400
29.110500 2.817600
29.138700 2.728400
29.166900 2.706000
29.195000 2.707500
29.223200 2.689400
29.251300 2.716400
29.279500 2.763800
29.307600 2.851100
29.335800 2.820000
29.364000 2.822800
29.392100 2.943700
29.420300 3.729600
29.448400 3.047600
29.476600 3.044100
29.504800 3.108500
29.532900 3.093300
29.561100 3.054200
29.589200 2.919600
29.617400 3.049100
29.645500 3.111600
29.673700 3.266500
29.701900 3.271300
29.730000 3.493200
29.758200 3.575100
29.786300 3.599400
29.814500 3.623100
29.842600 3.681500
29.870800 3.684300
29.899000 3.788700
29.927100 3.879400
29.955300 4.025200
29.983400 4.087500
30.011600 4.125800
30.039800 4.251700
30.067900 4.270300
30.096100 4.292300
30.124200 4.115600
30.152400 4.070200
30.180500 4.199200
30.208700 4.273900
30.236900 4.194700
30.265000 4.245900
30.293200 4.604500
30.321300 4.730300
30.349500 4.815200
30.377600 4.648200
30.405800 4.365000
30.434000 4.325700
30.462100 4.754800
30.490300 4.393100
30.518400 4.592000
30.546600 4.575700
30.574700 4.378600
30.602900 4.559100
30.631100 4.959100
30.659200 5.268400
30.687400 5.063800
30.715500 4.798200
30.743700 4.752200
30.771900 4.665500
30.800000 4.625000
30.828200 4.481000
30.856300 4.397400
30.884500 4.398800
30.912600 4.421500
30.940800 4.374700
30.969000 4.408400
30.997100 4.498600
31.025300 4.449100
31.053400 4.680900
31.081600 4.748900
31.109700 4.342700
31.137900 4.190100
31.166100 4.006500
31.194200 3.869300
31.222400 3.764500
31.250500 3.589900
31.278700 3.396800
31.306900 3.472900
31.335000 3.447400
31.363200 3.446700
31.391300 3.442600
31.419500 3.374000
31.447600 3.495500
31.475800 3.537700
31.504000 3.997900
31.532100 3.639800
31.560300 3.477100
31.588400 3.407500
31.616600 3.272500
31.644700 3.203900
31.672900 3.008700
31.701100 2.926000
31.729200 2.763600
31.757400 2.705600
31.785500 2.619200
31.813700 2.542600
31.841800 2.538600
31.870000 2.495700
31.898200 2.404900
31.926300 2.338000
31.954500 2.328300
31.982600 2.343900
32.010800 2.295300
32.039000 2.255800
32.067100 2.174400
32.095300 2.148600
32.123400 2.249500
32.151600 2.281500
32.179700 2.306700
32.207900 2.442500
32.236100 2.494400
32.264200 2.285700
32.292400 2.279800
32.320500 2.251600
32.348700 2.268300
32.376800 2.404900
32.405000 2.547900
32.433200 2.548700
32.461300 2.688300
32.489500 2.728000
32.517600 2.742600
32.545800 2.642400
32.574000 2.698000
32.602100 2.717500
32.630300 2.731800
32.658400 2.888000
32.686600 2.806300
32.714700 2.468200
32.742900 2.314800
32.771100 2.351100
32.799200 2.280900
32.827400 2.267000
32.855500 2.202500
32.883700 2.200700
32.911800 2.395800
32.940000 2.504500
32.968200 2.600700
32.996300 2.884600
33.024500 2.657400
33.052600 2.638500
33.080800 2.596400
33.108900 2.534400
33.137100 2.494100
33.165300 2.461100
33.193400 2.427200
33.221600 2.406500
33.249700 2.381200
33.277900 2.362000
33.306100 2.349200
33.334200 2.350000
33.362400 2.351900
33.390500 2.351700
33.418700 2.366900
33.446800 2.393200
33.475000 2.408500
33.503200 2.375400
33.531300 2.362500
33.559500 2.356300
33.587600 2.368500
33.615800 2.328800
33.643900 2.323800
33.672100 2.270700
33.700300 2.132100
33.728400 2.043300
33.756600 1.990200
33.784700 1.922700
33.812900 1.779600
33.841100 1.728900
33.869200 1.672900
33.897400 1.605100
33.925500 1.549900
33.953700 1.491700
33.981800 1.439900
34.010000 1.363900
34.038200 1.312200
34.066300 1.243400
34.094500 1.198200
34.122600 1.131300
34.150800 1.081400
34.178900 1.036400
34.207100 1.017400
34.235300 1.011100
34.263400 0.985100
34.291600 0.966800
34.319700 0.948900
34.347900 0.947100
34.376100 0.929200
34.404200 0.914700
34.432400 0.902100
34.460500 0.903400
34.488700 0.875200
34.516800 0.867100
34.545000 0.854300
34.573200 0.847400
34.601300 0.841100
34.629500 0.835800
34.657600 0.832200
34.685800 0.827600
34.713900 0.834700
34.742100 0.852400
34.770300 0.872400
34.798400 0.890000
34.826600 0.919000
34.854700 0.927900
34.882900 0.939200
34.911000 0.967200
34.939200 1.129800
34.967400 1.112000
34.995500 1.097600
35.023700 1.194300
35.051800 0.973700
35.080000 0.993400
35.108200 1.092800
35.136300 1.185900
35.164500 1.241400
35.192600 1.276100
35.220800 1.245700
35.248900 1.144300
35.277100 1.075800
35.305300 0.940100
35.333400 0.915700
35.361600 0.906200
35.389700 0.901900
35.417900 0.897900
35.446000 0.959900
35.474200 1.080900
35.502400 1.074400
35.530500 1.177300
35.558700 1.400200
35.586800 1.336700
35.615000 1.253300
35.643200 1.917000
35.671300 1.137600
35.699500 1.083600
35.727600 0.984800
35.755800 0.944200
35.783900 0.911500
35.812100 0.814300
35.840300 0.853800
35.868400 0.862000
35.896600 0.576100
35.924700 0.528500
35.952900 0.460000
35.981000 0.425800
36.009200 0.403600
36.037400 0.309900
36.065500 0.222500
36.093700 0.198300
36.121800 0.175700
36.150000 0.154800
36.178100 0.119300
36.206300 0.102000
36.234500 0.086400
36.262600 0.072500
36.290800 0.059700
36.318900 0.052100
36.347100 0.044800
36.375300 0.037900
36.403400 0.031400
36.431600 0.025300
36.459700 0.019500
36.487900 0.014200
36.516000 0.009200
36.544200 0.004600
36.572400 0.000400
36.600500 0.000000
36.628700 0.000000
36.656800 0.000000
36.685000 0.000000
36.713100 0.000000
36.741300 0.000000
36.769500 0.000000
36.797600 0.000000
36.825800 0.000000
36.853900 0.000000
36.882100 0.000000
36.910300 0.000000
36.938400 0.000000
36.966600 0.000000
36.994700 0.000000
37.022900 0.000000
37.051000 0.000000
37.079200 0.000000
37.107400 0.000000
37.135500 0.000000
37.163700 0.000000
37.191800 0.000000
37.220000 0.000000
37.248100 0.000000
37.276300 0.000000
37.304500 0.000000
37.332600 0.000000
37.360800 0.000000
37.388900 0.000000
37.417100 0.000000
37.445200 0.000000
37.473400 0.000000
37.501600 0.000000
37.529700 0.000000
37.557900 0.000000
37.586000 0.000000
37.614200 0.000000
37.642400 0.000000
37.670500 0.000000
37.698700 0.000000
37.726800 0.000000
37.755000 0.000000
37.783100 0.000000
37.811300 0.000000
37.839500 0.000000
37.867600 0.000000
37.895800 0.000000
37.923900 0.000000
37.952100 0.000000
37.980200 0.000000
38.008400 0.000000
38.036600 0.000000
38.064700 0.000000
38.092900 0.000000
38.121000 0.000000
38.149200 0.000000
38.177400 0.000000
38.205500 0.000000
38.233700 0.000000
38.261800 0.000000
38.290000 0.000000
38.318100 0.000000
38.346300 0.000000
38.374500 0.000000
38.402600 0.000000
38.430800 0.000000
38.458900 0.000000
38.487100 0.000000
38.515200 0.000000
38.543400 0.000000
38.571600 0.000000
38.599700 0.000000
38.627900 0.000000
38.656000 0.000000
38.684200 0.000000
38.712300 0.000000
38.740500 0.000000
38.768700 0.000000
38.796800 0.000000
38.825000 0.000000
38.853100 0.000000
38.881300 0.000000
38.909500 0.000000
38.937600 0.000000
38.965800 0.000000
38.993900 0.000000
39.022100 0.000000
39.050200 0.000000
39.078400 0.000000
39.106600 0.000000
39.134700 0.000000
e
