set title 'mp-1219463 - Density of States'
set xlabel 'Energy (eV)'
set ylabel 'DOS (states/eV)'
set grid
set xrange [-10:10]
set yrange [0:3.555]
set xzeroaxis lt -1
set terminal png size 800,600
set output 'mp-1219463_dos_gnuplot.png'
plot '-' using 1:2 with lines title 'DOS'
-8.618600 0.000000
-8.592000 0.000000
-8.565400 0.000000
-8.538800 0.000000
-8.512200 0.000000
-8.485600 0.000000
-8.459000 0.000000
-8.432500 0.000000
-8.405900 0.000000
-8.379300 0.000000
-8.352700 0.000000
-8.326100 0.000000
-8.299500 0.000000
-8.272900 0.000000
-8.246300 0.000000
-8.219800 0.000000
-8.193200 0.000000
-8.166600 0.000000
-8.140000 0.000000
-8.113400 0.000000
-8.086800 0.000000
-8.060200 0.000000
-8.033600 0.000000
-8.007000 0.000000
-7.980500 0.000000
-7.953900 0.000000
-7.927300 0.000000
-7.900700 0.000000
-7.874100 0.000000
-7.847500 0.000000
-7.820900 0.000000
-7.794300 0.000000
-7.767800 0.000000
-7.741200 0.000000
-7.714600 0.000000
-7.688000 0.000000
-7.661400 0.000000
-7.634800 0.000000
-7.608200 0.000000
-7.581600 0.000000
-7.555100 0.000000
-7.528500 0.000000
-7.501900 0.000000
-7.475300 0.000000
-7.448700 0.000000
-7.422100 0.000000
-7.395500 0.000000
-7.368900 0.000000
-7.342300 0.000000
-7.315800 0.000000
-7.289200 0.000000
-7.262600 0.000000
-7.236000 0.000000
-7.209400 0.000000
-7.182800 0.000000
-7.156200 0.000000
-7.129600 0.000000
-7.103100 0.000000
-7.076500 0.000000
-7.049900 0.000000
-7.023300 0.000000
-6.996700 0.000000
-6.970100 0.000000
-6.943500 0.000000
-6.916900 0.000000
-6.890400 0.000000
-6.863800 0.000000
-6.837200 0.000000
-6.810600 0.000000
-6.784000 0.000000
-6.757400 0.000000
-6.730800 0.000000
-6.704200 0.000000
-6.677600 0.000000
-6.651100 0.000000
-6.624500 0.000000
-6.597900 0.000000
-6.571300 0.000000
-6.544700 0.000000
-6.518100 0.000000
-6.491500 0.000000
-6.464900 0.000000
-6.438400 0.000000
-6.411800 0.000000
-6.385200 0.000000
-6.358600 0.000000
-6.332000 0.000000
-6.305400 0.000000
-6.278800 0.000000
-6.252200 0.000000
-6.225700 0.000000
-6.199100 0.005600
-6.172500 0.068800
-6.145900 0.134700
-6.119300 0.158100
-6.092700 0.177200
-6.066100 0.198800
-6.039500 0.224000
-6.013000 0.250500
-5.986400 0.272200
-5.959800 0.289100
-5.933200 0.301600
-5.906600 0.313000
-5.880000 0.329000
-5.853400 0.346300
-5.826800 0.363900
-5.800200 0.381800
-5.773700 0.400000
-5.747100 0.415500
-5.720500 0.426600
-5.693900 0.439600
-5.667300 0.453000
-5.640700 0.466500
-5.614100 0.480500
-5.587500 0.495000
-5.561000 0.510000
-5.534400 0.525700
-5.507800 0.541700
-5.481200 0.558000
-5.454600 0.574000
-5.428000 0.589600
-5.401400 0.604800
-5.374800 0.620100
-5.348300 0.636300
-5.321700 0.653200
-5.295100 0.670700
-5.268500 0.688700
-5.241900 0.707000
-5.215300 0.725600
-5.188700 0.744800
-5.162100 0.765200
-5.135500 0.789100
-5.109000 0.815700
-5.082400 0.843600
-5.055800 0.873800
-5.029200 0.907600
-5.002600 0.956500
-4.976000 1.007100
-4.949400 1.034600
-4.922800 1.038800
-4.896300 1.081500
-4.869700 1.113100
-4.843100 1.122700
-4.816500 1.140200
-4.789900 1.164500
-4.763300 1.193300
-4.736700 1.220800
-4.710100 1.249600
-4.683600 1.279700
-4.657000 1.313900
-4.630400 1.363900
-4.603800 1.422600
-4.577200 1.492700
-4.550600 1.571700
-4.524000 1.664600
-4.497400 1.778400
-4.470800 1.933500
-4.444300 2.255400
-4.417700 2.461300
-4.391100 2.474300
-4.364500 2.799800
-4.337900 2.591200
-4.311300 2.773700
-4.284700 3.231800
-4.258100 2.088500
-4.231600 1.826800
-4.205000 1.604200
-4.178400 1.502300
-4.151800 1.179900
-4.125200 0.000000
-4.098600 0.000000
-4.072000 0.000000
-4.045400 0.000000
-4.018900 0.000000
-3.992300 0.000000
-3.965700 0.000000
-3.939100 0.000000
-3.912500 0.000000
-3.885900 0.000000
-3.859300 0.000000
-3.832700 0.000000
-3.806100 0.000000
-3.779600 0.000000
-3.753000 0.000000
-3.726400 0.000000
-3.699800 0.000000
-3.673200 0.000000
-3.646600 0.000000
-3.620000 0.000000
-3.593400 0.000000
-3.566900 0.000000
-3.540300 0.000000
-3.513700 0.000000
-3.487100 0.000000
-3.460500 0.000000
-3.433900 0.000000
-3.407300 0.000000
-3.380700 0.000000
-3.354200 0.000000
-3.327600 0.000000
-3.301000 0.000000
-3.274400 0.049200
-3.247800 0.062600
-3.221200 0.077100
-3.194600 0.092800
-3.168000 0.109700
-3.141400 0.127800
-3.114900 0.138800
-3.088300 0.144700
-3.061700 0.154500
-3.035100 0.163800
-3.008500 0.172500
-2.981900 0.180700
-2.955300 0.189000
-2.928700 0.199200
-2.902200 0.211300
-2.875600 0.224500
-2.849000 0.238800
-2.822400 0.254200
-2.795800 0.270400
-2.769200 0.283300
-2.742600 0.296000
-2.716000 0.308500
-2.689500 0.320600
-2.662900 0.333500
-2.636300 0.352400
-2.609700 0.394900
-2.583100 0.486000
-2.556500 0.618800
-2.529900 0.784600
-2.503300 0.985300
-2.476700 1.094300
-2.450200 1.224700
-2.423600 1.302400
-2.397000 1.388700
-2.370400 1.511400
-2.343800 1.518700
-2.317200 1.532500
-2.290600 1.548400
-2.264000 1.631700
-2.237500 1.732100
-2.210900 1.860200
-2.184300 2.160400
-2.157700 2.098000
-2.131100 2.025100
-2.104500 1.916800
-2.077900 1.746600
-2.051300 1.601300
-2.024800 1.486000
-1.998200 1.410900
-1.971600 1.371700
-1.945000 1.330200
-1.918400 1.296500
-1.891800 1.262700
-1.865200 1.218700
-1.838600 1.183600
-1.812000 1.156100
-1.785500 1.132000
-1.758900 1.117100
-1.732300 1.120000
-1.705700 1.100200
-1.679100 1.071200
-1.652500 1.043400
-1.625900 1.009600
-1.599300 0.977900
-1.572800 0.971400
-1.546200 1.034200
-1.519600 1.027800
-1.493000 0.913600
-1.466400 0.745700
-1.439800 0.643100
-1.413200 0.583300
-1.386600 0.562700
-1.360100 0.542600
-1.333500 0.523100
-1.306900 0.504100
-1.280300 0.485300
-1.253700 0.466700
-1.227100 0.447600
-1.200500 0.428300
-1.173900 0.408500
-1.147300 0.382900
-1.120800 0.364800
-1.094200 0.352400
-1.067600 0.340800
-1.041000 0.328900
-1.014400 0.316600
-0.987800 0.305700
-0.961200 0.297000
-0.934600 0.288400
-0.908100 0.280000
-0.881500 0.271600
-0.854900 0.263200
-0.828300 0.254700
-0.801700 0.246300
-0.775100 0.237800
-0.748500 0.229300
-0.721900 0.220800
-0.695400 0.211400
-0.668800 0.201900
-0.642200 0.193500
-0.615600 0.185900
-0.589000 0.178800
-0.562400 0.171900
-0.535800 0.165300
-0.509200 0.159100
-0.482700 0.153000
-0.456100 0.147000
-0.429500 0.141000
-0.402900 0.135100
-0.376300 0.129200
-0.349700 0.123800
-0.323100 0.118300
-0.296500 0.112700
-0.269900 0.107000
-0.243400 0.102400
-0.216800 0.098000
-0.190200 0.090300
-0.163600 0.081900
-0.137000 0.073700
-0.110400 0.065800
-0.083800 0.058200
-0.057200 0.051000
-0.030700 0.044000
-0.004100 0.037300
0.022500 0.066600
0.049100 0.000000
0.075700 0.000000
0.102300 0.000000
0.128900 0.000000
0.155500 0.000000
0.182000 0.000000
0.208600 0.000000
0.235200 0.000000
0.261800 0.000000
0.288400 0.000000
0.315000 0.000000
0.341600 0.000000
0.368200 0.000000
0.394800 0.000000
0.421300 0.000000
0.447900 0.000000
0.474500 0.000000
0.501100 0.000000
0.527700 0.000000
0.554300 0.000000
0.580900 0.000000
0.607500 0.000000
0.634000 0.000000
0.660600 0.000000
0.687200 0.000000
0.713800 0.000000
0.740400 0.000000
0.767000 0.000000
0.793600 0.000000
0.820200 0.000000
0.846700 0.000000
0.873300 0.000000
0.899900 0.000000
0.926500 0.000000
0.953100 0.000000
0.979700 0.000000
1.006300 0.000000
1.032900 0.000000
1.059500 0.000000
1.086000 0.000000
1.112600 0.000000
1.139200 0.000000
1.165800 0.000000
1.192400 0.045600
1.219000 0.091000
1.245600 0.137700
1.272200 0.196600
1.298700 0.238500
1.325300 0.292300
1.351900 0.312700
1.378500 0.300200
1.405100 0.303900
1.431700 0.324400
1.458300 0.353800
1.484900 0.389000
1.511400 0.428400
1.538000 0.466000
1.564600 0.520000
1.591200 0.513100
1.617800 0.498500
1.644400 0.491800
1.671000 0.505800
1.697600 0.531900
1.724200 0.557700
1.750700 0.583200
1.777300 0.608300
1.803900 0.633200
1.830500 0.659200
1.857100 0.688600
1.883700 0.732200
1.910300 0.932000
1.936900 0.792200
1.963400 0.787700
1.990000 0.765800
2.016600 0.774000
2.043200 0.776200
2.069800 0.777500
2.096400 0.801500
2.123000 0.826500
2.149600 0.849200
2.176100 0.860200
2.202700 0.874100
2.229300 0.892800
2.255900 0.913700
2.282500 0.936300
2.309100 0.960300
2.335700 1.005500
2.362300 1.161100
2.388900 1.338700
2.415400 1.454000
2.442000 1.552700
2.468600 1.664800
2.495200 1.737300
2.521800 1.760300
2.548400 1.769700
2.575000 1.743600
2.601600 1.724300
2.628100 1.713300
2.654700 1.688900
2.681300 1.580600
2.707900 1.559300
2.734500 1.553500
2.761100 1.551500
2.787700 1.555600
2.814300 1.560700
2.840800 1.566100
2.867400 1.574700
2.894000 1.589300
2.920600 1.587200
2.947200 1.556100
2.973800 1.537100
3.000400 1.526600
3.027000 1.516200
3.053600 1.508000
3.080100 1.510300
3.106700 1.613900
3.133300 1.627200
3.159900 1.665500
3.186500 1.703000
3.213100 1.837200
3.239700 1.927300
3.266300 1.838400
3.292800 1.712500
3.319400 1.741300
3.346000 1.645300
3.372600 1.576300
3.399200 1.530800
3.425800 1.508000
3.452400 1.473300
3.479000 1.349500
3.505500 1.257400
3.532100 1.205300
3.558700 1.155700
3.585300 1.109400
3.611900 1.066900
3.638500 1.028900
3.665100 0.997600
3.691700 1.027000
3.718300 1.148200
3.744800 1.299200
3.771400 1.496800
3.798000 1.469800
3.824600 1.433100
3.851200 1.428900
3.877800 1.434400
3.904400 1.445100
3.931000 1.457100
3.957500 1.464100
3.984100 1.465500
4.010700 1.460900
4.037300 1.453700
4.063900 1.444900
4.090500 1.436700
4.117100 1.427700
4.143700 1.423000
4.170200 1.423500
4.196800 1.423900
4.223400 1.424300
4.250000 1.423700
4.276600 1.426500
4.303200 1.427900
4.329800 1.429400
4.356400 1.433400
4.383000 1.439900
4.409500 1.453900
4.436100 1.474500
4.462700 1.487600
4.489300 1.507700
4.515900 1.527200
4.542500 1.543400
4.569100 1.558300
4.595700 1.628300
4.622200 1.618600
4.648800 1.607000
4.675400 1.655700
4.702000 1.672100
4.728600 1.669700
4.755200 1.657500
4.781800 1.643700
4.808400 1.643500
4.834900 1.657200
4.861500 1.678700
4.888100 1.708800
4.914700 1.688800
4.941300 1.661300
4.967900 1.646500
4.994500 1.643700
5.021100 1.655200
5.047600 1.655600
5.074200 1.656500
5.100800 1.654400
5.127400 1.629600
5.154000 1.642300
5.180600 1.684700
5.207200 1.710100
5.233800 1.723300
5.260400 1.735600
5.286900 1.763400
5.313500 1.772100
5.340100 1.752700
5.366700 1.715600
5.393300 1.668100
5.419900 1.574500
5.446500 1.453300
5.473100 1.385000
5.499600 1.361200
5.526200 1.299800
5.552800 1.294700
5.579400 1.226000
5.606000 1.204800
5.632600 1.187500
5.659200 1.167200
5.685800 1.142300
5.712300 1.113500
5.738900 1.086000
5.765500 1.077400
5.792100 1.084200
5.818700 1.061000
5.845300 1.043600
5.871900 1.038500
5.898500 1.024800
5.925100 0.983900
5.951600 0.936100
5.978200 0.891500
6.004800 0.877900
6.031400 0.794500
6.058000 0.763500
6.084600 0.739600
6.111200 0.717000
6.137800 0.692900
6.164300 0.677600
6.190900 0.664500
6.217500 0.653700
6.244100 0.658100
6.270700 0.673100
6.297300 0.941500
6.323900 0.679100
6.350500 0.694700
6.377000 0.707100
6.403600 0.715300
6.430200 0.722000
6.456800 0.734700
6.483400 0.760700
6.510000 0.799600
6.536600 0.844600
6.563200 0.885100
6.589800 0.920200
6.616300 0.952600
6.642900 0.987000
6.669500 1.023900
6.696100 1.055100
6.722700 1.071500
6.749300 1.056600
6.775900 1.060000
6.802500 1.056600
6.829000 1.053200
6.855600 1.052600
6.882200 1.049700
6.908800 1.046900
6.935400 1.071800
6.962000 1.090400
6.988600 1.107700
7.015200 1.135900
7.041700 1.166200
7.068300 1.191500
7.094900 1.211600
7.121500 1.226500
7.148100 1.236300
7.174700 1.239600
7.201300 1.251800
7.227900 1.270300
7.254500 1.284300
7.281000 1.297900
7.307600 1.323100
7.334200 1.378400
7.360800 1.435700
7.387400 1.476800
7.414000 1.500600
7.440600 1.507000
7.467200 1.497800
7.493700 1.477400
7.520300 1.450300
7.546900 1.413800
7.573500 1.377800
7.600100 1.344900
7.626700 1.315000
7.653300 1.288200
7.679900 1.264400
7.706400 1.242800
7.733000 1.225100
7.759600 1.214500
7.786200 1.205300
7.812800 1.197400
7.839400 1.190700
7.866000 1.184200
7.892600 1.178900
7.919200 1.174600
7.945700 1.170800
7.972300 1.167500
7.998900 1.164700
8.025500 1.162300
8.052100 1.160300
8.078700 1.158400
8.105300 1.156700
8.131900 1.155300
8.158400 1.154200
8.185000 1.153400
8.211600 1.153000
8.238200 1.152700
8.264800 1.152600
8.291400 1.152900
8.318000 1.153800
8.344600 1.154900
8.371100 1.156000
8.397700 1.157200
8.424300 1.158500
8.450900 1.159900
8.477500 1.161700
8.504100 1.163900
8.530700 1.166500
8.557300 1.169700
8.583900 1.175000
8.610400 1.185000
8.637000 1.192200
8.663600 1.197700
8.690200 1.201600
8.716800 1.205200
8.743400 1.208900
8.770000 1.212600
8.796600 1.216600
8.823100 1.221300
8.849700 1.226600
8.876300 1.233400
8.902900 1.239900
8.929500 1.245400
8.956100 1.250500
8.982700 1.255300
9.009300 1.259900
9.035800 1.264500
9.062400 1.269400
9.089000 1.274500
9.115600 1.300300
9.142200 1.249500
9.168800 1.245500
9.195400 1.244500
9.222000 1.246800
9.248600 1.252700
9.275100 1.265100
9.301700 1.287400
9.328300 1.325200
9.354900 1.367300
9.381500 1.425800
9.408100 1.489100
9.434700 1.516200
9.461300 1.510900
9.487800 1.491500
9.514400 1.479900
9.541000 1.457000
9.567600 1.439700
9.594200 1.445400
9.620800 1.488500
9.647400 1.575400
9.674000 1.668800
9.700500 1.789300
9.727100 1.814200
9.753700 1.908500
9.780300 1.936600
9.806900 1.917800
9.833500 1.925800
9.860100 1.945900
9.886700 1.984200
9.913200 2.128700
9.939800 2.007400
9.966400 1.933700
9.993000 1.879800
10.019600 1.835700
10.046200 1.784400
10.072800 1.727100
10.099400 1.672000
10.126000 1.679300
10.152500 1.546500
10.179100 1.437200
10.205700 1.402100
10.232300 1.396900
10.258900 1.409000
10.285500 1.430800
10.312100 1.459200
10.338700 1.478700
10.365200 1.500000
10.391800 1.587900
10.418400 1.640900
10.445000 1.697400
10.471600 1.740000
10.498200 1.742500
10.524800 1.675800
10.551400 1.640700
10.577900 1.571600
10.604500 1.564400
10.631100 1.540000
10.657700 1.498600
10.684300 1.454800
10.710900 1.423500
10.737500 1.404200
10.764100 1.385300
10.790700 1.365300
10.817200 1.382100
10.843800 1.406600
10.870400 1.384200
10.897000 1.347600
10.923600 1.299500
10.950200 1.263600
10.976800 1.235900
11.003400 1.219400
11.029900 1.144600
11.056500 1.198800
11.083100 1.276100
11.109700 1.238400
11.136300 1.165500
11.162900 1.092200
11.189500 1.049900
11.216100 0.905300
11.242600 0.883700
11.269200 0.863300
11.295800 0.839000
11.322400 0.812900
11.349000 0.801700
11.375600 0.800800
11.402200 0.799800
11.428800 0.798600
11.455400 0.796900
11.481900 0.794800
11.508500 0.793200
11.535100 0.793100
11.561700 0.794500
11.588300 0.897100
11.614900 0.800900
11.641500 0.790700
11.668100 0.785300
11.694600 0.793200
11.721200 0.798900
11.747800 0.796200
11.774400 0.786600
11.801000 0.777200
11.827600 0.768000
11.854200 0.760800
11.880800 0.763900
11.907300 0.769000
11.933900 0.775800
11.960500 0.785500
11.987100 0.798000
12.013700 0.814400
12.040300 0.838100
12.066900 0.866100
12.093500 0.891700
12.120100 0.911600
12.146600 0.925800
12.173200 0.934100
12.199800 0.930800
12.226400 0.921800
12.253000 0.911200
12.279600 0.874600
12.306200 0.827000
12.332800 0.817100
12.359300 0.822000
12.385900 0.820200
12.412500 0.809200
12.439100 0.806300
12.465700 0.812200
12.492300 0.816400
12.518900 0.817600
12.545500 0.812500
12.572000 0.805700
12.598600 0.799600
12.625200 0.797000
12.651800 0.794100
12.678400 0.790500
12.705000 0.801500
12.731600 0.815800
12.758200 0.820400
12.784800 0.809400
12.811300 0.806100
12.837900 0.801500
12.864500 0.795500
12.891100 0.788100
12.917700 0.780100
12.944300 0.773100
12.970900 0.767800
12.997500 0.766200
13.024000 0.772400
13.050600 0.788900
13.077200 0.799500
13.103800 0.805000
13.130400 0.818500
13.157000 0.829600
13.183600 0.837700
13.210200 0.851700
13.236700 0.859200
13.263300 0.860200
13.289900 0.857500
13.316500 0.854600
13.343100 0.847200
13.369700 0.841000
13.396300 0.914000
13.422900 0.792900
13.449500 0.809500
13.476000 0.850300
13.502600 0.896300
13.529200 0.931200
13.555800 0.968700
13.582400 1.025800
13.609000 1.077100
13.635600 1.094900
13.662200 1.306000
13.688700 1.140500
13.715300 1.138600
13.741900 1.130900
13.768500 1.133400
13.795100 1.135800
13.821700 1.136800
13.848300 1.131100
13.874900 1.135900
13.901400 1.150000
13.928000 1.159000
13.954600 1.165200
13.981200 1.170500
14.007800 1.177800
14.034400 1.185500
14.061000 1.193400
14.087600 1.205400
14.114200 1.220800
14.140700 1.238100
14.167300 1.255400
14.193900 1.278800
14.220500 1.307500
14.247100 1.334200
14.273700 1.354200
14.300300 1.357500
14.326900 1.354900
14.353400 1.348500
14.380000 1.336900
14.406600 1.330800
14.433200 1.349400
14.459800 1.385500
14.486400 1.406200
14.513000 1.420000
14.539600 1.435300
14.566100 1.449300
14.592700 1.460600
14.619300 1.471700
14.645900 1.483100
14.672500 1.495300
14.699100 1.490700
14.725700 1.492700
14.752300 1.508000
14.778900 1.528300
14.805400 1.582700
14.832000 1.622100
14.858600 1.661700
14.885200 1.641500
14.911800 1.677200
14.938400 1.706900
14.965000 1.754400
14.991600 1.892200
15.018100 1.876300
15.044700 1.888700
15.071300 1.911800
15.097900 1.939400
15.124500 1.973300
15.151100 2.036600
15.177700 2.098700
15.204300 2.151800
15.230800 2.124700
15.257400 2.093200
15.284000 2.084300
15.310600 2.105600
15.337200 2.145700
15.363800 2.211300
15.390400 2.286900
15.417000 2.327600
15.443500 2.316700
15.470100 2.297700
15.496700 2.313000
15.523300 2.307700
15.549900 2.266500
15.576500 2.231000
15.603100 2.199700
15.629700 2.236000
15.656300 2.293500
15.682800 2.380900
15.709400 2.378200
15.736000 2.362600
15.762600 2.488000
15.789200 2.670800
15.815800 2.485600
15.842400 2.459600
15.869000 2.411900
15.895500 2.375600
15.922100 2.377700
15.948700 2.416500
15.975300 2.459600
16.001900 2.434100
16.028500 2.350600
16.055100 2.238600
16.081700 2.186200
16.108200 2.246500
16.134800 2.591100
16.161400 2.789100
16.188000 2.824500
16.214600 2.844300
16.241200 2.963500
16.267800 2.768500
16.294400 2.629400
16.321000 2.501600
16.347500 2.366400
16.374100 2.247200
16.400700 2.143600
16.427300 2.051700
16.453900 1.997200
16.480500 1.979200
16.507100 2.002800
16.533700 2.017600
16.560200 1.961100
16.586800 1.953400
16.613400 1.918500
16.640000 1.869800
16.666600 1.877500
16.693200 1.898700
16.719800 1.929100
16.746400 1.957400
16.772900 2.008800
16.799500 2.060100
16.826100 2.116200
16.852700 2.279000
16.879300 2.235900
16.905900 2.295300
16.932500 2.339000
16.959100 2.352600
16.985700 2.360600
17.012200 2.317500
17.038800 2.227400
17.065400 2.214600
17.092000 2.179700
17.118600 2.134400
17.145200 2.109400
17.171800 2.106500
17.198400 2.154200
17.224900 2.226100
17.251500 2.275100
17.278100 2.304700
17.304700 2.359400
17.331300 2.371100
17.357900 2.320900
17.384500 2.246400
17.411100 2.191500
17.437600 2.187100
17.464200 2.189000
17.490800 2.174900
17.517400 2.113000
17.544000 2.043100
17.570600 1.977400
17.597200 1.950500
17.623800 1.920700
17.650400 1.892200
17.676900 1.864100
17.703500 1.841300
17.730100 1.812300
17.756700 1.780900
17.783300 1.756000
17.809900 1.742700
17.836500 1.751500
17.863100 1.778300
17.889600 1.824300
17.916200 1.855100
17.942800 1.870500
17.969400 1.872500
17.996000 1.937800
18.022600 1.924600
18.049200 1.917100
18.075800 1.916600
18.102300 1.923900
18.128900 1.940600
18.155500 1.950700
18.182100 1.942500
18.208700 1.911200
18.235300 1.875500
18.261900 1.852500
18.288500 1.834100
18.315100 1.806900
18.341600 1.790600
18.368200 1.798500
18.394800 1.817800
18.421400 1.847900
18.448000 1.931800
18.474600 2.026100
18.501200 2.108900
18.527800 2.183500
18.554300 2.254400
18.580900 2.311200
18.607500 2.357500
18.634100 2.364400
18.660700 2.355200
18.687300 2.306100
18.713900 2.208200
18.740500 2.157000
18.767000 2.111300
18.793600 2.087100
18.820200 2.088900
18.846800 1.958800
18.873400 1.911800
18.900000 1.908100
18.926600 1.922300
18.953200 1.935200
18.979800 1.941700
19.006300 1.946000
19.032900 1.955100
19.059500 1.979100
19.086100 2.021400
19.112700 2.073000
19.139300 2.106800
19.165900 2.162000
19.192500 2.208200
19.219000 2.221000
19.245600 2.204800
19.272200 2.212300
19.298800 2.182300
19.325400 2.173400
19.352000 2.169400
19.378600 2.170100
19.405200 2.185800
19.431700 2.202000
19.458300 2.226200
19.484900 2.250900
19.511500 2.270000
19.538100 2.278500
19.564700 2.275900
19.591300 2.327000
19.617900 2.320700
19.644500 2.347900
19.671000 2.351500
19.697600 2.345000
19.724200 2.358400
19.750800 2.401100
19.777400 2.486900
19.804000 2.458800
19.830600 2.408000
19.857200 2.366500
19.883700 2.331500
19.910300 2.286400
19.936900 2.241000
19.963500 2.180800
19.990100 2.216400
20.016700 2.274300
20.043300 2.294800
20.069900 2.293800
20.096400 2.255800
20.123000 2.239700
20.149600 2.216800
20.176200 2.162200
20.202800 2.140200
20.229400 2.115400
20.256000 2.093400
20.282600 2.112100
20.309200 2.150400
20.335700 2.196900
20.362300 2.244700
20.388900 2.293200
20.415500 2.321500
20.442100 2.349100
20.468700 2.425800
20.495300 2.513600
20.521900 2.449500
20.548400 2.405400
20.575000 2.334000
20.601600 2.354200
20.628200 2.351300
20.654800 2.334500
20.681400 2.311800
20.708000 2.318600
20.734600 2.346800
20.761100 2.338600
20.787700 2.344200
20.814300 2.356600
20.840900 2.372000
20.867500 2.390200
20.894100 2.404900
20.920700 2.412600
20.947300 2.421800
20.973800 2.433000
21.000400 2.466800
21.027000 2.460100
21.053600 2.342000
21.080200 2.385800
21.106800 2.458400
21.133400 2.309700
21.160000 2.324700
21.186600 2.332200
21.213100 2.334900
21.239700 2.342800
21.266300 2.351700
21.292900 2.370200
21.319500 2.413600
21.346100 2.458800
21.372700 2.509400
21.399300 2.604200
21.425800 2.704800
21.452400 2.784800
21.479000 2.861900
21.505600 2.819400
21.532200 2.830300
21.558800 2.835000
21.585400 2.828200
21.612000 2.808400
21.638500 2.779000
21.665100 2.681900
21.691700 2.588700
21.718300 2.556400
21.744900 2.544000
21.771500 2.531500
21.798100 2.519300
21.824700 2.529500
21.851300 2.519900
21.877800 2.468200
21.904400 2.374800
21.931000 2.299300
21.957600 2.264700
21.984200 2.267600
22.010800 2.279700
22.037400 2.286400
22.064000 2.297000
22.090500 2.311800
22.117100 2.333100
22.143700 2.355800
22.170300 2.456800
22.196900 2.421900
22.223500 2.471300
22.250100 2.530100
22.276700 2.577700
22.303200 2.696700
22.329800 2.763400
22.356400 2.748100
22.383000 2.781500
22.409600 2.690800
22.436200 2.682300
22.462800 2.667800
22.489400 2.646900
22.516000 2.634800
22.542500 2.600400
22.569100 2.559000
22.595700 2.520700
22.622300 2.490000
22.648900 2.512100
22.675500 2.539700
22.702100 2.405900
22.728700 2.389700
22.755200 2.380100
22.781800 2.381100
22.808400 2.392200
22.835000 2.415500
22.861600 2.475800
22.888200 2.634400
22.914800 2.895900
22.941400 2.941300
22.967900 2.598200
22.994500 2.562800
23.021100 2.577500
23.047700 2.591400
23.074300 2.597200
23.100900 2.667700
23.127500 2.640500
23.154100 2.432400
23.180700 2.321400
23.207200 2.231200
23.233800 2.163500
23.260400 2.118000
23.287000 2.090700
23.313600 2.141900
23.340200 2.206100
23.366800 2.293400
23.393400 2.389900
23.419900 2.512300
23.446500 2.608000
23.473100 2.660900
23.499700 2.740000
23.526300 2.657400
23.552900 2.724400
23.579500 2.830400
23.606100 2.947100
23.632600 3.013800
23.659200 3.004800
23.685800 2.989300
23.712400 2.982300
23.739000 3.009000
23.765600 3.060200
23.792200 2.983300
23.818800 2.954100
23.845400 2.909100
23.871900 2.923000
23.898500 2.909500
23.925100 2.851100
23.951700 2.796700
23.978300 2.716700
24.004900 2.497600
24.031500 2.445800
24.058100 2.462000
24.084600 2.487200
24.111200 2.519100
24.137800 2.549200
24.164400 2.580400
24.191000 2.619700
24.217600 2.656900
24.244200 2.664600
24.270800 2.712700
24.297300 2.688600
24.323900 2.716800
24.350500 2.761900
24.377100 2.823500
24.403700 2.859900
24.430300 2.926600
24.456900 2.946700
24.483500 2.949500
24.510100 2.988300
24.536600 3.062600
24.563200 3.133500
24.589800 3.177800
24.616400 3.172800
24.643000 3.218900
24.669600 3.217200
24.696200 3.047800
24.722800 2.918500
24.749300 2.860400
24.775900 2.854500
24.802500 2.877300
24.829100 2.895100
24.855700 2.954500
24.882300 2.946100
24.908900 2.849500
24.935500 2.771000
24.962000 2.814700
24.988600 2.664000
25.015200 2.616500
25.041800 2.578000
25.068400 2.550900
25.095000 2.430800
25.121600 2.391800
25.148200 2.380600
25.174800 2.423500
25.201300 2.459600
25.227900 2.474000
25.254500 2.515400
25.281100 2.610800
25.307700 2.695900
25.334300 2.713900
25.360900 2.710800
25.387500 2.713800
25.414000 2.740200
25.440600 2.790000
25.467200 2.849400
25.493800 2.909600
25.520400 2.973300
25.547000 3.095300
25.573600 3.171300
25.600200 3.180500
25.626700 3.184100
25.653300 3.134800
25.679900 3.018200
25.706500 3.018600
25.733100 3.051600
25.759700 3.089200
25.786300 3.110200
25.812900 3.106100
25.839500 3.136300
25.866000 3.195000
25.892600 3.258900
25.919200 3.376100
25.945800 3.317300
25.972400 3.250900
25.999000 3.217600
26.025600 3.051800
26.052200 2.947900
26.078700 2.849600
26.105300 2.685600
26.131900 2.598700
26.158500 2.566800
26.185100 2.604700
26.211700 2.629700
26.238300 2.671600
26.264900 2.685000
26.291400 2.759000
26.318000 2.915800
26.344600 3.034000
26.371200 3.189900
26.397800 3.030700
26.424400 3.058200
26.451000 2.996800
26.477600 3.032000
26.504100 3.092100
26.530700 3.156900
26.557300 3.208600
26.583900 3.254000
26.610500 3.271500
26.637100 3.172600
26.663700 3.009300
26.690300 2.964900
26.716900 2.911900
26.743400 2.861300
26.770000 2.769200
26.796600 2.636500
26.823200 2.552600
26.849800 2.508500
26.876400 2.501300
26.903000 2.542600
26.929600 2.548300
26.956100 2.585200
26.982700 2.710200
27.009300 2.783600
27.035900 2.815500
27.062500 2.730200
27.089100 2.759600
27.115700 2.738500
27.142300 2.694500
27.168800 2.680700
27.195400 2.643900
27.222000 2.615100
27.248600 2.617200
27.275200 2.621100
27.301800 2.791500
27.328400 2.723100
27.355000 2.825600
27.381600 2.934500
27.408100 3.022100
27.434700 3.117600
27.461300 3.159200
27.487900 3.189800
27.514500 3.179400
27.541100 3.155600
27.567700 3.148000
27.594300 3.167500
27.620800 3.143000
27.647400 3.122200
27.674000 3.101900
27.700600 3.091300
27.727200 3.086000
27.753800 3.086700
27.780400 3.082600
27.807000 3.084500
27.833500 3.043800
27.860100 2.969900
27.886700 2.920800
27.913300 2.887900
27.939900 2.858100
27.966500 2.844800
27.993100 2.864500
28.019700 2.872300
28.046300 2.838400
28.072800 2.833500
28.099400 2.820700
28.126000 2.889700
28.152600 2.831700
28.179200 2.834600
28.205800 2.842000
28.232400 2.851700
28.259000 2.846700
28.285500 2.833200
28.312100 2.900600
28.338700 2.998400
28.365300 3.027000
28.391900 2.993900
28.418500 3.006200
28.445100 3.015800
28.471700 3.017100
28.498200 3.112500
28.524800 3.191700
28.551400 3.209700
28.578000 3.254700
28.604600 3.264100
28.631200 3.259500
28.657800 3.188100
28.684400 3.147200
28.711000 3.145700
28.737500 3.140700
28.764100 3.117100
28.790700 3.080800
28.817300 2.866500
28.843900 2.819500
28.870500 2.802400
28.897100 2.760600
28.923700 2.758900
28.950200 2.795200
28.976800 2.867800
29.003400 2.936700
29.030000 2.993300
29.056600 3.044800
29.083200 3.081500
29.109800 3.049400
29.136400 2.972600
29.162900 3.064700
29.189500 2.987700
29.216100 2.821400
29.242700 2.800000
29.269300 2.818800
29.295900 2.919800
29.322500 3.007100
29.349100 3.097000
29.375700 3.187700
29.402200 3.179700
29.428800 3.250600
29.455400 3.155000
29.482000 3.120300
29.508600 3.148500
29.535200 3.149700
29.561800 3.132800
29.588400 3.158700
29.614900 3.181000
29.641500 3.295100
29.668100 3.264800
29.694700 3.357400
29.721300 3.477100
29.747900 3.605000
29.774500 3.547000
29.801100 3.568100
29.827600 3.581300
29.854200 3.473700
29.880800 3.462400
29.907400 3.481600
29.934000 3.533500
29.960600 3.469900
29.987200 3.486800
30.013800 3.491500
30.040400 3.489100
30.066900 3.466200
30.093500 3.492600
30.120100 3.446800
30.146700 3.389600
30.173300 3.256600
30.199900 3.149100
30.226500 3.102000
30.253100 3.119900
30.279600 3.161200
30.306200 3.227100
30.332800 3.297600
30.359400 3.367000
30.386000 3.403700
30.412600 3.396400
30.439200 3.327900
30.465800 3.230900
30.492300 3.175900
30.518900 3.308500
30.545500 3.226900
30.572100 3.286400
30.598700 3.341600
30.625300 3.345600
30.651900 3.282700
30.678500 3.184100
30.705100 3.168800
30.731600 3.185500
30.758200 3.270300
30.784800 3.410200
30.811400 3.742500
30.838000 3.871000
30.864600 3.839300
30.891200 3.886100
30.917800 3.850800
30.944300 4.020800
30.970900 3.805400
30.997500 3.545500
31.024100 3.546400
31.050700 3.591600
31.077300 3.639400
31.103900 3.733400
31.130500 3.809100
31.157000 3.806100
31.183600 3.793400
31.210200 3.765700
31.236800 3.798900
31.263400 3.787300
31.290000 3.803100
31.316600 3.793600
31.343200 3.798100
31.369700 3.807600
31.396300 3.763700
31.422900 3.712200
31.449500 3.737900
31.476100 3.898200
31.502700 4.051200
31.529300 4.046000
31.555900 3.718000
31.582500 3.603700
31.609000 3.531200
31.635600 3.507000
31.662200 3.464800
31.688800 3.402800
31.715400 3.288500
31.742000 3.180900
31.768600 3.167000
31.795200 3.134000
31.821700 3.122000
31.848300 3.172700
31.874900 3.273500
31.901500 3.493500
31.928100 3.372800
31.954700 3.395800
31.981300 3.486700
32.007900 3.530400
32.034400 3.535900
32.061000 3.551900
32.087600 3.607900
32.114200 3.625800
32.140800 3.687200
32.167400 3.597900
32.194000 3.472000
32.220600 3.440200
32.247200 3.469700
32.273700 3.554800
32.300300 3.626900
32.326900 3.723600
32.353500 3.679600
32.380100 3.623000
32.406700 3.816500
32.433300 4.117700
32.459900 4.267000
32.486400 4.106700
32.513000 4.154000
32.539600 3.968700
32.566200 3.724500
32.592800 3.640400
32.619400 3.548000
32.646000 3.557400
32.672600 3.568200
32.699100 3.609600
32.725700 3.747100
32.752300 3.562000
32.778900 3.479800
32.805500 3.352000
32.832100 3.147300
32.858700 3.081100
32.885300 3.058800
32.911900 3.093400
32.938400 3.030400
32.965000 2.935800
32.991600 2.812000
33.018200 2.768700
33.044800 2.720000
33.071400 2.713800
33.098000 2.670500
33.124600 2.608300
33.151100 2.660400
33.177700 2.714800
33.204300 2.766900
33.230900 2.825100
33.257500 2.906700
33.284100 3.047500
33.310700 3.198700
33.337300 3.178200
33.363800 3.078300
33.390400 3.140000
33.417000 3.112900
33.443600 3.058300
33.470200 2.975700
33.496800 2.823000
33.523400 2.705900
33.550000 2.613200
33.576600 2.526300
33.603100 2.424700
33.629700 2.276800
33.656300 2.245600
33.682900 2.244900
33.709500 2.309100
33.736100 2.372600
33.762700 2.390500
33.789300 2.421600
33.815800 2.417400
33.842400 2.449600
33.869000 2.504900
33.895600 2.529800
33.922200 2.513200
33.948800 2.497200
33.975400 2.431800
34.002000 2.281400
34.028500 2.166000
34.055100 2.054800
34.081700 2.025000
34.108300 2.001200
34.134900 2.003500
34.161500 2.034300
34.188100 2.078900
34.214700 2.147200
34.241300 2.213800
34.267800 2.308800
34.294400 2.417800
34.321000 2.556000
34.347600 2.615200
34.374200 2.617600
34.400800 2.660400
34.427400 2.720900
34.454000 2.801200
34.480500 2.920700
34.507100 3.082400
34.533700 3.172200
34.560300 3.370400
34.586900 3.508300
34.613500 3.404100
34.640100 3.329800
34.666700 3.268900
34.693200 3.223500
34.719800 3.160700
34.746400 3.087900
34.773000 3.022700
34.799600 3.050300
34.826200 2.980200
34.852800 2.981200
34.879400 3.121300
34.906000 3.061500
34.932500 3.099000
34.959100 3.162700
34.985700 3.280300
35.012300 3.425900
35.038900 3.638000
35.065500 3.628600
35.092100 3.624100
35.118700 3.583100
35.145200 3.482700
35.171800 3.338200
35.198400 3.104600
35.225000 2.858200
35.251600 2.891100
35.278200 2.837800
35.304800 2.891600
35.331400 2.884100
35.357900 2.929400
35.384500 3.035500
35.411100 3.076600
35.437700 3.237500
35.464300 3.536100
35.490900 3.874700
35.517500 4.054500
35.544100 3.796000
35.570700 3.724700
35.597200 3.662000
35.623800 3.626900
35.650400 3.672200
35.677000 3.735200
35.703600 3.710800
35.730200 3.745400
35.756800 3.786700
35.783400 3.786800
35.809900 3.809700
35.836500 3.817200
35.863100 3.828500
35.889700 3.759600
35.916300 3.954500
35.942900 3.893500
35.969500 3.831400
35.996100 3.872700
36.022600 3.307700
36.049200 3.142800
36.075800 2.740700
36.102400 2.647000
36.129000 2.607900
36.155600 2.676300
36.182200 2.702300
36.208800 2.779900
36.235400 3.142400
36.261900 3.726600
36.288500 3.732800
36.315100 3.815400
36.341700 3.796000
36.368300 3.656000
36.394900 3.561400
36.421500 3.435600
36.448100 3.306700
36.474600 3.209000
36.501200 3.128800
36.527800 3.057400
36.554400 3.013700
36.581000 3.013600
36.607600 3.031000
36.634200 3.075500
36.660800 3.104400
36.687300 3.126700
36.713900 3.234500
36.740500 3.510600
36.767100 3.522800
36.793700 3.667700
36.820300 3.682700
36.846900 3.670800
36.873500 3.319000
36.900000 3.222800
36.926600 3.127300
36.953200 3.072000
36.979800 3.042600
37.006400 3.040800
37.033000 3.082800
37.059600 3.109800
37.086200 3.098300
37.112800 3.097200
37.139300 3.087100
37.165900 3.097200
37.192500 3.055500
37.219100 3.027500
37.245700 3.007000
37.272300 2.744900
37.298900 2.666200
37.325500 2.825900
37.352000 2.819200
37.378600 2.776800
37.405200 2.773000
37.431800 2.744300
37.458400 2.720000
37.485000 2.699500
37.511600 2.692400
37.538200 2.691000
37.564700 2.680100
37.591300 2.671600
37.617900 2.653600
37.644500 2.622700
37.671100 2.598200
37.697700 2.575600
37.724300 2.571800
37.750900 2.585200
37.777500 2.616200
37.804000 2.662900
37.830600 2.713000
37.857200 2.771300
37.883800 2.811500
37.910400 2.849700
37.937000 2.930400
37.963600 2.938900
37.990200 2.909100
38.016700 2.879000
38.043300 2.848700
38.069900 2.853200
38.096500 2.844600
38.123100 2.946700
38.149700 2.838000
38.176300 2.843300
38.202900 2.900800
38.229400 2.971700
38.256000 3.063300
38.282600 3.137400
38.309200 3.223400
38.335800 3.370400
38.362400 3.703500
38.389000 3.694400
38.415600 3.711100
38.442200 3.725500
38.468700 3.683900
38.495300 3.676900
38.521900 3.673400
38.548500 3.502400
38.575100 3.209100
38.601700 3.172800
38.628300 3.029400
38.654900 2.986100
38.681400 3.031200
38.708000 2.965500
38.734600 3.053800
38.761200 3.078200
38.787800 3.076300
38.814400 3.074100
38.841000 2.923400
38.867600 2.860000
38.894100 2.850500
38.920700 2.925400
38.947300 2.950600
38.973900 2.985400
39.000500 2.975500
39.027100 2.929300
39.053700 2.909000
39.080300 2.958400
39.106900 2.963200
39.133400 2.934300
39.160000 2.943600
39.186600 3.021900
39.213200 3.110600
39.239800 3.274200
39.266400 3.402100
39.293000 3.412900
39.319600 3.278200
39.346100 3.327500
39.372700 3.242100
39.399300 3.283000
39.425900 3.502500
39.452500 3.645600
39.479100 3.742000
39.505700 3.767300
39.532300 3.959800
39.558800 3.939100
39.585400 3.927800
39.612000 3.970300
39.638600 3.968800
39.665200 3.885100
39.691800 3.691900
39.718400 3.634500
39.745000 3.662500
39.771600 3.684600
39.798100 3.859900
39.824700 4.009100
39.851300 3.822600
39.877900 3.515600
39.904500 3.185100
39.931100 3.185200
39.957700 2.847800
39.984300 2.760300
40.010800 2.902500
40.037400 3.064600
40.064000 3.282000
40.090600 3.721200
40.117200 3.855300
40.143800 4.419600
40.170400 4.551800
40.197000 4.523600
40.223500 4.346100
40.250100 3.943800
40.276700 3.591400
40.303300 3.155500
40.329900 2.964600
40.356500 2.809800
40.383100 2.701200
40.409700 2.743900
40.436300 2.694800
40.462800 2.728000
40.489400 2.623800
40.516000 2.667000
40.542600 2.820000
40.569200 3.127100
40.595800 3.278400
40.622400 3.415900
40.649000 3.199800
40.675500 3.054700
40.702100 3.065600
40.728700 3.084800
40.755300 3.196200
40.781900 3.246100
40.808500 3.362000
40.835100 3.601400
40.861700 3.650300
40.888200 3.355300
40.914800 3.008900
40.941400 2.846100
40.968000 2.700200
40.994600 2.566800
41.021200 2.507900
41.047800 2.502400
41.074400 2.517100
41.101000 2.535200
41.127500 2.580100
41.154100 2.628900
41.180700 2.883100
41.207300 2.931900
41.233900 2.876200
41.260500 2.733900
41.287100 2.437000
41.313700 2.252600
41.340200 2.073800
41.366800 1.911200
41.393400 1.759000
41.420000 1.596900
41.446600 1.451500
41.473200 1.311900
41.499800 1.189700
41.526400 1.108700
41.552900 1.039000
41.579500 0.957000
41.606100 0.879000
41.632700 0.858700
41.659300 0.841500
41.685900 0.791400
41.712500 0.749100
41.739100 0.717600
41.765700 0.697600
41.792200 0.670300
41.818800 0.664700
41.845400 0.560500
41.872000 0.399500
41.898600 0.354300
41.925200 0.308200
41.951800 0.253400
41.978400 0.181000
42.004900 0.128200
42.031500 0.085400
42.058100 0.051500
42.084700 0.029100
42.111300 0.013100
42.137900 0.000900
42.164500 0.000000
42.191100 0.000000
42.217600 0.000000
42.244200 0.000000
42.270800 0.000000
42.297400 0.000000
42.324000 0.000000
42.350600 0.000000
42.377200 0.000000
42.403800 0.000000
42.430300 0.000000
42.456900 0.000000
42.483500 0.000000
42.510100 0.000000
42.536700 0.000000
42.563300 0.000000
42.589900 0.000000
42.616500 0.000000
42.643100 0.000000
42.669600 0.000000
42.696200 0.000000
42.722800 0.000000
42.749400 0.000000
42.776000 0.000000
42.802600 0.000000
42.829200 0.000000
42.855800 0.000000
42.882300 0.000000
42.908900 0.000000
42.935500 0.000000
42.962100 0.000000
42.988700 0.000000
43.015300 0.000000
43.041900 0.000000
43.068500 0.000000
43.095000 0.000000
43.121600 0.000000
43.148200 0.000000
43.174800 0.000000
43.201400 0.000000
43.228000 0.000000
43.254600 0.000000
43.281200 0.000000
43.307800 0.000000
43.334300 0.000000
43.360900 0.000000
43.387500 0.000000
43.414100 0.000000
43.440700 0.000000
43.467300 0.000000
43.493900 0.000000
43.520500 0.000000
43.547000 0.000000
43.573600 0.000000
43.600200 0.000000
43.626800 0.000000
43.653400 0.000000
43.680000 0.000000
43.706600 0.000000
43.733200 0.000000
43.759700 0.000000
43.786300 0.000000
43.812900 0.000000
43.839500 0.000000
43.866100 0.000000
43.892700 0.000000
43.919300 0.000000
43.945900 0.000000
43.972500 0.000000
43.999000 0.000000
44.025600 0.000000
44.052200 0.000000
44.078800 0.000000
44.105400 0.000000
44.132000 0.000000
44.158600 0.000000
44.185200 0.000000
44.211700 0.000000
44.238300 0.000000
44.264900 0.000000
44.291500 0.000000
44.318100 0.000000
44.344700 0.000000
44.371300 0.000000
44.397900 0.000000
44.424400 0.000000
44.451000 0.000000
44.477600 0.000000
44.504200 0.000000
44.530800 0.000000
44.557400 0.000000
e
