set title 'mp-510436 - Density of States'
set xlabel 'Energy (eV)'
set ylabel 'DOS (states/eV)'
set grid
set xrange [-10:10]
set yrange [0:187.272]
set xzeroaxis lt -1
set terminal png size 800,600
set output 'mp-510436_dos_gnuplot.png'
plot '-' using 1:2 with lines title 'DOS'
-9.645000 0.000000
-9.627000 0.000000
-9.609000 0.000000
-9.591100 0.000000
-9.573100 0.000000
-9.555100 0.000000
-9.537200 0.000000
-9.519200 0.000000
-9.501200 0.000000
-9.483300 0.000000
-9.465300 0.000000
-9.447300 0.000000
-9.429400 0.000000
-9.411400 0.000000
-9.393400 0.000000
-9.375500 0.000000
-9.357500 0.000000
-9.339500 0.000000
-9.321600 0.000000
-9.303600 0.000000
-9.285600 0.000000
-9.267600 0.000000
-9.249700 0.000000
-9.231700 0.000000
-9.213700 0.000000
-9.195800 0.000000
-9.177800 0.000000
-9.159800 0.000000
-9.141900 0.000000
-9.123900 0.000000
-9.105900 0.000000
-9.088000 0.000000
-9.070000 0.000000
-9.052000 0.000000
-9.034100 0.000000
-9.016100 0.000000
-8.998100 0.000000
-8.980200 0.000000
-8.962200 0.000000
-8.944200 0.000000
-8.926300 0.000000
-8.908300 0.000000
-8.890300 0.000000
-8.872400 0.000000
-8.854400 0.000000
-8.836400 0.000000
-8.818500 0.000000
-8.800500 0.000000
-8.782500 0.000000
-8.764600 0.000000
-8.746600 0.000000
-8.728600 0.000000
-8.710700 0.000000
-8.692700 0.000000
-8.674700 0.000000
-8.656800 0.000000
-8.638800 0.000000
-8.620800 0.000000
-8.602900 0.000000
-8.584900 0.000000
-8.566900 0.000000
-8.549000 0.000000
-8.531000 0.000000
-8.513000 0.000000
-8.495100 0.000000
-8.477100 0.000000
-8.459100 0.000000
-8.441200 0.000000
-8.423200 0.000000
-8.405200 0.000000
-8.387300 0.000000
-8.369300 0.000000
-8.351300 0.000000
-8.333400 0.000000
-8.315400 0.000000
-8.297400 0.000000
-8.279500 0.000000
-8.261500 0.000000
-8.243500 0.000000
-8.225500 0.000000
-8.207600 0.000000
-8.189600 0.000000
-8.171600 0.000000
-8.153700 0.000000
-8.135700 0.000000
-8.117700 0.000000
-8.099800 0.000000
-8.081800 0.000000
-8.063800 0.000000
-8.045900 0.000000
-8.027900 0.000000
-8.009900 0.349400
-7.992000 31.073700
-7.974000 76.993100
-7.956000 149.059100
-7.938100 170.247500
-7.920100 30.937600
-7.902100 31.181300
-7.884200 31.615100
-7.866200 28.276700
-7.848200 4.612500
-7.830300 0.000000
-7.812300 0.000000
-7.794300 0.000000
-7.776400 0.000000
-7.758400 0.000000
-7.740400 0.000000
-7.722500 0.000000
-7.704500 0.000000
-7.686500 0.000000
-7.668600 0.000000
-7.650600 0.000000
-7.632600 0.000000
-7.614700 0.000000
-7.596700 0.000000
-7.578700 0.000000
-7.560800 0.000000
-7.542800 0.000000
-7.524800 0.000000
-7.506900 0.000000
-7.488900 0.000000
-7.470900 0.000000
-7.453000 0.000000
-7.435000 0.000000
-7.417000 0.000000
-7.399100 0.000000
-7.381100 0.000000
-7.363100 0.000000
-7.345200 0.000000
-7.327200 0.000000
-7.309200 0.000000
-7.291300 0.000000
-7.273300 0.000000
-7.255300 0.000000
-7.237300 0.000000
-7.219400 0.000000
-7.201400 0.000000
-7.183400 0.000000
-7.165500 0.000000
-7.147500 0.000000
-7.129500 0.000000
-7.111600 0.000000
-7.093600 0.000000
-7.075600 0.000000
-7.057700 0.000000
-7.039700 0.000000
-7.021700 0.000000
-7.003800 0.000000
-6.985800 0.000000
-6.967800 0.000000
-6.949900 0.000000
-6.931900 0.000000
-6.913900 0.000000
-6.896000 0.000000
-6.878000 0.000000
-6.860000 0.000000
-6.842100 0.000000
-6.824100 0.000000
-6.806100 0.000000
-6.788200 0.000000
-6.770200 0.000000
-6.752200 0.000000
-6.734300 0.000000
-6.716300 0.000000
-6.698300 0.000000
-6.680400 0.000000
-6.662400 0.000000
-6.644400 0.000000
-6.626500 0.000000
-6.608500 0.000000
-6.590500 0.000000
-6.572600 0.000000
-6.554600 0.000000
-6.536600 0.000000
-6.518700 0.000000
-6.500700 0.000000
-6.482700 0.000000
-6.464800 0.000000
-6.446800 0.000000
-6.428800 0.000000
-6.410900 0.000000
-6.392900 0.000000
-6.374900 0.000000
-6.357000 0.000000
-6.339000 0.000000
-6.321000 0.000000
-6.303100 0.000000
-6.285100 0.000000
-6.267100 0.000000
-6.249200 0.000000
-6.231200 0.000000
-6.213200 0.000000
-6.195200 0.000000
-6.177300 0.000000
-6.159300 0.000000
-6.141300 0.000000
-6.123400 0.000000
-6.105400 0.000000
-6.087400 0.000000
-6.069500 0.000000
-6.051500 0.000000
-6.033500 0.000000
-6.015600 0.000000
-5.997600 0.000000
-5.979600 0.000000
-5.961700 0.000000
-5.943700 0.000000
-5.925700 0.000000
-5.907800 0.000000
-5.889800 0.000000
-5.871800 0.000000
-5.853900 0.000000
-5.835900 0.000000
-5.817900 0.000000
-5.800000 0.000000
-5.782000 0.000000
-5.764000 0.000000
-5.746100 0.000000
-5.728100 0.000000
-5.710100 0.000000
-5.692200 0.000000
-5.674200 0.000000
-5.656200 0.000000
-5.638300 0.000000
-5.620300 0.000000
-5.602300 0.000000
-5.584400 0.000000
-5.566400 0.000000
-5.548400 0.000000
-5.530500 0.000000
-5.512500 0.000000
-5.494500 0.000000
-5.476600 0.000000
-5.458600 0.000000
-5.440600 0.000000
-5.422700 0.000000
-5.404700 0.000000
-5.386700 0.000000
-5.368800 0.000000
-5.350800 0.000000
-5.332800 0.000000
-5.314900 0.000000
-5.296900 0.000000
-5.278900 0.000000
-5.261000 0.000000
-5.243000 0.000000
-5.225000 0.000000
-5.207000 0.000000
-5.189100 0.000000
-5.171100 0.000000
-5.153100 0.000000
-5.135200 0.000000
-5.117200 0.000000
-5.099200 0.000000
-5.081300 0.000000
-5.063300 0.000000
-5.045300 0.000000
-5.027400 0.000000
-5.009400 0.000000
-4.991400 0.000000
-4.973500 0.000000
-4.955500 0.000000
-4.937500 0.000000
-4.919600 0.000000
-4.901600 0.000000
-4.883600 0.000000
-4.865700 0.000000
-4.847700 0.000000
-4.829700 0.000000
-4.811800 0.000000
-4.793800 0.000000
-4.775800 0.000000
-4.757900 0.000000
-4.739900 0.000000
-4.721900 0.000000
-4.704000 0.000000
-4.686000 0.000000
-4.668000 0.000000
-4.650100 0.000000
-4.632100 0.000000
-4.614100 0.000000
-4.596200 0.000000
-4.578200 0.000000
-4.560200 0.000000
-4.542300 0.000000
-4.524300 0.000000
-4.506300 0.000000
-4.488400 0.000000
-4.470400 0.000000
-4.452400 0.000000
-4.434500 0.000000
-4.416500 0.000000
-4.398500 0.000000
-4.380600 0.000000
-4.362600 0.000000
-4.344600 0.000000
-4.326700 0.000000
-4.308700 0.000000
-4.290700 0.000000
-4.272800 0.000000
-4.254800 0.000000
-4.236800 0.000000
-4.218900 0.000000
-4.200900 0.000000
-4.182900 0.000000
-4.164900 0.000000
-4.147000 0.000000
-4.129000 0.000000
-4.111000 0.000000
-4.093100 0.000000
-4.075100 0.000000
-4.057100 0.000000
-4.039200 0.000000
-4.021200 0.000000
-4.003200 0.000000
-3.985300 0.000000
-3.967300 0.000000
-3.949300 0.000000
-3.931400 0.000000
-3.913400 0.000000
-3.895400 0.000000
-3.877500 0.000000
-3.859500 0.000000
-3.841500 0.000000
-3.823600 0.000000
-3.805600 0.000000
-3.787600 0.000000
-3.769700 0.000000
-3.751700 0.000000
-3.733700 0.000000
-3.715800 0.000000
-3.697800 0.000000
-3.679800 0.000000
-3.661900 0.000000
-3.643900 0.000000
-3.625900 0.000000
-3.608000 0.000000
-3.590000 0.000000
-3.572000 0.000000
-3.554100 0.000000
-3.536100 0.000000
-3.518100 0.000000
-3.500200 0.000000
-3.482200 0.000000
-3.464200 0.000000
-3.446300 0.000000
-3.428300 0.000000
-3.410300 0.000000
-3.392400 0.000000
-3.374400 0.000000
-3.356400 0.000000
-3.338500 0.000000
-3.320500 0.000000
-3.302500 0.000000
-3.284600 0.000000
-3.266600 0.000000
-3.248600 0.000000
-3.230700 0.000000
-3.212700 0.000000
-3.194700 0.000000
-3.176700 0.000000
-3.158800 0.000000
-3.140800 0.000000
-3.122800 0.000000
-3.104900 0.000000
-3.086900 0.000000
-3.068900 0.000000
-3.051000 0.000000
-3.033000 0.000000
-3.015000 0.000000
-2.997100 0.000000
-2.979100 0.000000
-2.961100 0.000000
-2.943200 0.000000
-2.925200 0.000000
-2.907200 0.000000
-2.889300 0.000000
-2.871300 0.000000
-2.853300 0.000000
-2.835400 0.000000
-2.817400 0.000000
-2.799400 0.000000
-2.781500 0.000000
-2.763500 0.000000
-2.745500 0.000000
-2.727600 0.000000
-2.709600 0.000000
-2.691600 0.000000
-2.673700 0.000000
-2.655700 0.000000
-2.637700 0.000000
-2.619800 0.000000
-2.601800 0.000000
-2.583800 0.000000
-2.565900 0.000000
-2.547900 0.000000
-2.529900 0.000000
-2.512000 0.000000
-2.494000 0.000000
-2.476000 0.000000
-2.458100 0.000000
-2.440100 0.000000
-2.422100 0.000000
-2.404200 0.000000
-2.386200 0.000000
-2.368200 0.000000
-2.350300 0.000000
-2.332300 0.000700
-2.314300 0.013900
-2.296400 0.043500
-2.278400 0.079800
-2.260400 0.100600
-2.242500 0.105700
-2.224500 0.110100
-2.206500 0.120200
-2.188600 0.134500
-2.170600 0.149600
-2.152600 0.164900
-2.134600 0.176200
-2.116700 0.181400
-2.098700 0.183800
-2.080700 0.188500
-2.062800 0.195900
-2.044800 0.203900
-2.026800 0.211700
-2.008900 0.219400
-1.990900 0.227000
-1.972900 0.234700
-1.955000 0.243000
-1.937000 0.252200
-1.919000 0.260300
-1.901100 0.266300
-1.883100 0.270800
-1.865100 0.275200
-1.847200 0.280500
-1.829200 0.286100
-1.811200 0.291800
-1.793300 0.297300
-1.775300 0.302600
-1.757300 0.308000
-1.739400 0.314100
-1.721400 0.320800
-1.703400 0.327700
-1.685500 0.334700
-1.667500 0.341900
-1.649500 0.349100
-1.631600 0.356000
-1.613600 0.362000
-1.595600 0.367200
-1.577700 0.372300
-1.559700 0.377200
-1.541700 0.382000
-1.523800 0.387300
-1.505800 0.392900
-1.487800 0.398600
-1.469900 0.404400
-1.451900 0.410300
-1.433900 0.416400
-1.416000 0.422700
-1.398000 0.429100
-1.380000 0.435600
-1.362100 0.442100
-1.344100 0.448700
-1.326100 0.455200
-1.308200 0.461800
-1.290200 0.468500
-1.272200 0.475300
-1.254300 0.482000
-1.236300 0.488900
-1.218300 0.496200
-1.200400 0.503500
-1.182400 0.510600
-1.164400 0.517700
-1.146400 0.524900
-1.128500 0.532300
-1.110500 0.539700
-1.092500 0.547200
-1.074600 0.554700
-1.056600 0.562300
-1.038600 0.570000
-1.020700 0.577900
-1.002700 0.586000
-0.984700 0.594400
-0.966800 0.603300
-0.948800 0.612700
-0.930800 0.622500
-0.912900 0.632300
-0.894900 0.642400
-0.876900 0.654000
-0.859000 0.667100
-0.841000 0.680300
-0.823000 0.693200
-0.805100 0.706500
-0.787100 0.720100
-0.769100 0.734500
-0.751200 0.749800
-0.733200 0.765300
-0.715200 0.781200
-0.697300 0.797900
-0.679300 0.814900
-0.661300 0.833100
-0.643400 0.852600
-0.625400 0.872400
-0.607400 0.892800
-0.589500 0.914000
-0.571500 1.015100
-0.553500 1.101600
-0.535600 1.071500
-0.517600 1.077400
-0.499600 1.099700
-0.481700 1.121300
-0.463700 1.126700
-0.445700 1.124600
-0.427800 1.138700
-0.409800 1.199600
-0.391800 1.249400
-0.373900 1.237800
-0.355900 1.264900
-0.337900 1.291800
-0.320000 1.306600
-0.302000 1.454700
-0.284000 1.580000
-0.266100 1.675900
-0.248100 1.764700
-0.230100 1.855800
-0.212200 1.989800
-0.194200 2.152300
-0.176200 2.324500
-0.158300 2.630000
-0.140300 3.071300
-0.122300 3.075400
-0.104300 3.113100
-0.086400 3.146400
-0.068400 2.541900
-0.050400 2.245800
-0.032500 2.184400
-0.014500 1.711300
0.003500 1.523100
0.021400 1.339400
0.039400 1.207500
0.057400 1.104600
0.075300 0.977000
0.093300 0.895700
0.111300 0.820700
0.129200 0.747500
0.147200 0.677400
0.165200 0.617700
0.183100 0.568500
0.201100 0.519000
0.219100 0.463300
0.237000 0.407900
0.255000 0.363900
0.273000 0.320000
0.290900 0.282000
0.308900 0.221200
0.326900 0.166500
0.344800 0.122400
0.362800 0.080100
0.380800 0.000000
0.398700 0.000000
0.416700 0.000000
0.434700 0.000000
0.452600 0.000000
0.470600 0.000000
0.488600 0.000000
0.506500 0.000000
0.524500 0.000000
0.542500 0.000000
0.560400 0.000000
0.578400 0.000000
0.596400 0.000000
0.614300 0.000000
0.632300 0.000000
0.650300 0.000000
0.668200 0.000000
0.686200 0.000000
0.704200 0.000000
0.722100 0.000000
0.740100 0.000000
0.758100 0.000000
0.776000 0.000000
0.794000 0.000000
0.812000 0.000000
0.829900 0.000000
0.847900 0.000000
0.865900 0.029100
0.883800 0.088100
0.901800 0.140700
0.919800 0.166200
0.937800 0.191600
0.955700 0.204100
0.973700 0.217200
0.991700 0.243700
1.009600 0.270400
1.027600 0.288600
1.045600 0.302400
1.063500 0.317700
1.081500 0.333300
1.099500 0.355400
1.117400 0.377500
1.135400 0.400100
1.153400 0.423400
1.171300 0.449100
1.189300 0.475200
1.207300 0.500900
1.225200 0.524400
1.243200 0.546100
1.261200 0.571200
1.279100 0.598200
1.297100 0.625900
1.315100 0.655300
1.333000 0.688700
1.351000 0.724400
1.369000 0.760600
1.386900 0.801000
1.404900 0.893500
1.422900 1.023700
1.440800 1.098000
1.458800 1.167600
1.476800 1.269400
1.494700 1.386500
1.512700 1.499300
1.530700 1.614400
1.548600 1.772600
1.566600 2.559600
1.584600 3.206300
1.602500 4.046200
1.620500 3.766200
1.638500 3.853400
1.656400 3.943500
1.674400 4.030000
1.692400 4.186100
1.710300 4.293200
1.728300 4.415200
1.746300 4.498200
1.764200 4.654300
1.782200 4.783000
1.800200 4.809000
1.818100 4.364800
1.836100 3.689700
1.854100 3.093100
1.872000 2.824700
1.890000 2.386600
1.908000 1.998200
1.926000 1.607900
1.943900 1.359600
1.961900 1.332600
1.979900 1.048200
1.997800 1.135400
2.015800 1.235000
2.033800 1.350600
2.051700 1.442300
2.069700 1.699200
2.087700 2.670300
2.105600 4.244000
2.123600 4.242900
2.141600 4.457000
2.159500 4.751300
2.177500 5.092400
2.195500 5.093100
2.213400 5.998300
2.231400 8.368400
2.249400 10.185800
2.267300 8.026300
2.285300 7.467400
2.303300 7.008200
2.321200 7.375700
2.339200 7.124900
2.357200 5.850200
2.375100 5.746400
2.393100 7.215800
2.411100 9.238500
2.429000 7.698900
2.447000 7.403600
2.465000 7.197500
2.482900 7.109300
2.500900 7.234600
2.518900 8.794300
2.536800 9.463900
2.554800 9.611900
2.572800 9.257400
2.590700 8.450200
2.608700 8.701600
2.626700 8.986600
2.644600 10.127700
2.662600 11.119700
2.680600 10.317500
2.698500 9.340900
2.716500 9.291000
2.734500 9.424200
2.752400 10.578500
2.770400 10.986100
2.788400 10.550000
2.806300 9.845800
2.824300 8.372000
2.842300 8.385900
2.860200 7.456000
2.878200 7.276200
2.896200 7.192800
2.914100 7.183700
2.932100 7.464000
2.950100 7.803100
2.968100 8.461700
2.986000 9.001100
3.004000 8.724500
3.022000 8.192400
3.039900 7.135900
3.057900 6.586900
3.075900 5.770500
3.093800 5.226100
3.111800 5.553200
3.129800 5.849700
3.147700 6.565600
3.165700 6.761700
3.183700 6.893100
3.201600 7.102400
3.219600 7.090300
3.237600 6.993300
3.255500 6.853800
3.273500 6.175800
3.291500 6.271300
3.309400 6.625100
3.327400 7.391600
3.345400 7.592600
3.363300 7.476700
3.381300 7.102300
3.399300 7.158300
3.417200 7.571400
3.435200 7.393200
3.453200 7.067000
3.471100 6.991100
3.489100 6.802500
3.507100 6.721300
3.525000 7.098200
3.543000 7.315000
3.561000 7.266800
3.578900 8.677100
3.596900 8.675800
3.614900 9.225800
3.632800 9.281100
3.650800 9.101100
3.668800 8.861800
3.686700 8.268900
3.704700 8.133200
3.722700 8.019200
3.740600 7.964900
3.758600 8.078900
3.776600 8.233500
3.794500 8.417700
3.812500 8.170200
3.830500 9.372200
3.848400 6.707700
3.866400 6.734400
3.884400 6.730900
3.902300 6.698300
3.920300 6.856600
3.938300 6.423300
3.956300 6.117200
3.974200 5.503900
3.992200 4.916500
4.010200 4.380500
4.028100 4.377000
4.046100 4.472100
4.064100 4.659900
4.082000 5.213600
4.100000 5.480900
4.118000 5.410700
4.135900 5.440200
4.153900 5.389100
4.171900 5.271700
4.189800 5.487500
4.207800 5.436100
4.225800 5.414800
4.243700 5.206400
4.261700 4.936000
4.279700 4.759700
4.297600 4.720000
4.315600 4.865000
4.333600 5.055700
4.351500 5.252000
4.369500 5.618900
4.387500 5.684400
4.405400 6.011300
4.423400 6.455500
4.441400 7.146800
4.459300 7.251800
4.477300 7.732900
4.495300 8.200400
4.513200 8.338200
4.531200 8.441800
4.549200 8.782500
4.567100 8.974700
4.585100 9.210800
4.603100 10.350200
4.621000 10.987800
4.639000 11.504800
4.657000 11.735800
4.674900 11.482100
4.692900 10.955000
4.710900 10.208900
4.728800 12.552900
4.746800 12.922600
4.764800 10.570600
4.782700 11.530400
4.800700 16.356200
4.818700 17.327000
4.836600 18.622300
4.854600 14.143600
4.872600 11.487600
4.890500 10.820900
4.908500 10.025100
4.926500 8.785500
4.944400 7.830100
4.962400 7.214400
4.980400 6.388800
4.998400 5.973500
5.016300 5.758800
5.034300 5.869600
5.052300 5.859400
5.070200 6.061900
5.088200 6.326600
5.106200 6.334100
5.124100 6.613300
5.142100 6.984700
5.160100 7.655400
5.178000 8.321400
5.196000 8.868400
5.214000 9.075800
5.231900 8.967500
5.249900 8.666100
5.267900 8.436200
5.285800 8.510600
5.303800 8.267100
5.321800 7.177400
5.339700 6.595300
5.357700 6.501100
5.375700 6.244400
5.393600 5.248200
5.411600 4.913700
5.429600 5.273900
5.447500 5.428600
5.465500 5.449700
5.483500 5.480100
5.501400 4.894300
5.519400 4.683300
5.537400 4.543600
5.555300 4.297600
5.573300 4.185500
5.591300 4.193600
5.609200 4.439300
5.627200 4.064300
5.645200 3.848800
5.663100 4.007500
5.681100 4.213700
5.699100 3.839500
5.717000 4.596100
5.735000 3.644800
5.753000 3.704900
5.770900 3.820600
5.788900 4.064500
5.806900 4.648800
5.824800 4.802200
5.842800 5.084000
5.860800 5.174800
5.878700 5.466700
5.896700 5.951600
5.914700 5.831400
5.932600 6.010100
5.950600 5.921700
5.968600 5.927900
5.986600 5.884000
6.004500 5.052200
6.022500 4.770500
6.040500 4.456700
6.058400 4.308100
6.076400 4.040300
6.094400 3.885300
6.112300 3.599200
6.130300 3.577000
6.148300 3.617900
6.166200 3.569000
6.184200 3.227000
6.202200 2.908900
6.220100 2.705100
6.238100 2.543000
6.256100 2.511200
6.274000 2.631200
6.292000 2.995600
6.310000 2.320400
6.327900 1.953300
6.345900 1.575600
6.363900 1.349300
6.381800 1.284400
6.399800 1.233200
6.417800 1.178900
6.435700 1.137200
6.453700 1.090400
6.471700 1.017800
6.489600 0.980700
6.507600 0.948400
6.525600 0.923300
6.543500 0.899900
6.561500 0.881200
6.579500 0.863000
6.597400 0.844800
6.615400 0.824700
6.633400 0.800600
6.651300 0.772000
6.669300 0.733900
6.687300 0.723300
6.705200 0.713500
6.723200 0.702500
6.741200 0.692700
6.759100 0.683800
6.777100 0.673700
6.795100 0.662200
6.813000 0.650200
6.831000 0.638000
6.849000 0.624100
6.866900 0.610600
6.884900 0.601600
6.902900 0.585700
6.920800 0.572200
6.938800 0.559400
6.956800 0.593600
6.974700 0.593100
6.992700 0.747100
7.010700 0.769700
7.028700 0.775200
7.046600 0.762400
7.064600 0.742900
7.082600 0.712300
7.100500 0.611000
7.118500 0.581200
7.136500 0.571100
7.154400 0.568900
7.172400 0.567400
7.190400 0.569200
7.208300 0.573200
7.226300 0.577900
7.244300 0.586900
7.262200 0.596000
7.280200 0.612100
7.298200 0.646400
7.316100 0.681700
7.334100 0.713500
7.352100 0.749200
7.370000 0.843900
7.388000 0.890600
7.406000 0.985100
7.423900 1.090700
7.441900 1.175800
7.459900 1.240200
7.477800 1.286600
7.495800 1.350000
7.513800 1.398400
7.531700 1.502200
7.549700 1.493800
7.567700 1.520700
7.585600 1.578600
7.603600 1.630300
7.621600 1.678200
7.639500 1.719200
7.657500 1.770900
7.675500 1.650000
7.693400 1.673900
7.711400 1.688400
7.729400 1.681100
7.747300 1.692700
7.765300 1.728700
7.783300 1.763600
7.801200 1.799900
7.819200 1.839700
7.837200 1.865500
7.855100 1.875800
7.873100 1.864900
7.891100 1.853400
7.909000 1.825700
7.927000 1.785200
7.945000 1.748800
7.962900 1.723100
7.980900 1.703400
7.998900 1.686800
8.016900 1.665700
8.034800 1.637800
8.052800 1.614400
8.070800 1.604900
8.088700 1.560800
8.106700 1.521100
8.124700 1.476300
8.142600 1.430200
8.160600 1.389900
8.178600 1.367000
8.196500 1.358800
8.214500 1.351800
8.232500 1.344100
8.250400 1.334100
8.268400 1.325600
8.286400 1.317400
8.304300 1.298800
8.322300 1.289900
8.340300 1.281700
8.358200 1.272500
8.376200 1.265100
8.394200 1.259000
8.412100 1.253200
8.430100 1.249900
8.448100 1.247600
8.466000 1.245400
8.484000 1.240700
8.502000 1.231900
8.519900 1.223500
8.537900 1.217400
8.555900 1.207600
8.573800 1.197600
8.591800 1.187000
8.609800 1.180000
8.627700 1.172000
8.645700 1.163400
8.663700 1.158000
8.681600 1.168000
8.699600 1.165100
8.717600 1.161400
8.735500 1.157000
8.753500 1.154500
8.771500 1.152200
8.789400 1.150000
8.807400 1.148200
8.825400 1.147100
8.843300 1.147100
8.861300 1.147300
8.879300 1.146900
8.897200 1.146000
8.915200 1.144600
8.933200 1.143700
8.951100 1.139000
8.969100 1.135100
8.987100 1.128400
9.005000 1.122700
9.023000 1.117700
9.041000 1.112800
9.059000 1.107900
9.076900 1.106000
9.094900 1.099800
9.112900 1.095400
9.130800 1.090900
9.148800 1.091700
9.166800 1.088700
9.184700 1.086100
9.202700 1.082400
9.220700 1.078300
9.238600 1.075100
9.256600 1.071900
9.274600 1.069600
9.292500 1.068200
9.310500 1.067600
9.328500 1.066900
9.346400 1.057000
9.364400 1.056700
9.382400 1.049800
9.400300 1.046500
9.418300 1.058000
9.436300 1.054800
9.454200 1.050700
9.472200 1.045800
9.490200 1.040300
9.508100 1.034300
9.526100 1.032100
9.544100 1.031200
9.562000 1.030400
9.580000 1.030600
9.598000 1.032000
9.615900 1.034200
9.633900 1.035100
9.651900 1.036700
9.669800 1.038500
9.687800 1.041600
9.705800 1.046300
9.723700 1.056600
9.741700 1.069000
9.759700 1.079600
9.777600 1.090000
9.795600 1.102800
9.813600 1.068700
9.831500 1.062200
9.849500 1.060000
9.867500 1.058700
9.885400 1.058000
9.903400 1.058300
9.921400 1.058700
9.939300 1.058300
9.957300 1.057300
9.975300 1.054300
9.993200 1.051300
10.011200 1.047900
10.029200 1.045300
10.047100 1.043300
10.065100 1.053000
10.083100 1.050800
10.101100 1.051800
10.119000 1.051300
10.137000 1.051000
10.155000 1.049700
10.172900 1.047800
10.190900 1.047600
10.208900 1.062400
10.226800 1.110800
10.244800 1.074300
10.262800 1.063900
10.280700 1.053400
10.298700 1.044000
10.316700 1.035000
10.334600 1.029000
10.352600 1.032700
10.370600 1.039700
10.388500 1.033400
10.406500 1.025100
10.424500 1.021000
10.442400 1.016300
10.460400 1.010900
10.478400 1.005200
10.496300 1.000100
10.514300 0.997000
10.532300 0.999300
10.550200 1.007500
10.568200 1.013300
10.586200 1.005200
10.604100 0.986800
10.622100 0.966600
10.640100 0.955700
10.658000 0.939400
10.676000 0.920900
10.694000 0.908700
10.711900 0.897700
10.729900 0.892300
10.747900 0.892100
10.765800 0.892200
10.783800 0.892200
10.801800 0.886600
10.819700 0.871400
10.837700 0.851200
10.855700 0.842100
10.873600 0.830800
10.891600 0.818300
10.909600 0.807500
10.927500 0.799200
10.945500 0.791500
10.963500 0.784800
10.981400 0.778800
10.999400 0.775000
11.017400 0.772500
11.035300 0.770800
11.053300 0.769600
11.071300 0.769400
11.089300 0.770400
11.107200 0.777400
11.125200 0.950000
11.143200 0.806200
11.161100 0.853900
11.179100 0.845100
11.197100 0.834000
11.215000 0.830900
11.233000 0.876600
11.251000 0.924000
11.268900 0.967500
11.286900 1.018300
11.304900 1.103200
11.322800 1.205200
11.340800 1.174100
11.358800 1.170400
11.376700 1.181400
11.394700 1.199800
11.412700 1.228900
11.430600 1.259900
11.448600 1.287900
11.466600 1.282200
11.484500 1.282900
11.502500 1.292200
11.520500 1.309700
11.538400 1.334400
11.556400 1.321200
11.574400 1.289500
11.592300 1.270900
11.610300 1.261000
11.628300 1.255700
11.646200 1.235300
11.664200 1.239600
11.682200 1.244800
11.700100 1.251100
11.718100 1.246600
11.736100 1.247300
11.754000 1.249200
11.772000 1.250900
11.790000 1.250300
11.807900 1.251800
11.825900 1.252300
11.843900 1.251700
11.861800 1.246700
11.879800 1.245300
11.897800 1.245500
11.915700 1.247700
11.933700 1.250000
11.951700 1.257000
11.969600 1.266700
11.987600 1.279500
12.005600 1.294400
12.023500 1.309700
12.041500 1.326800
12.059500 1.346600
12.077400 1.368800
12.095400 1.376100
12.113400 1.382100
12.131400 1.418100
12.149300 1.400300
12.167300 1.396100
12.185300 1.392000
12.203200 1.383600
12.221200 1.376300
12.239200 1.370400
12.257100 1.359300
12.275100 1.345700
12.293100 1.338700
12.311000 1.339000
12.329000 1.343000
12.347000 1.346500
12.364900 1.348700
12.382900 1.349300
12.400900 1.348100
12.418800 1.346600
12.436800 1.344700
12.454800 1.341400
12.472700 1.338300
12.490700 1.335400
12.508700 1.373000
12.526600 1.382900
12.544600 1.395000
12.562600 1.412700
12.580500 1.439900
12.598500 1.462700
12.616500 1.466100
12.634400 1.443900
12.652400 1.443900
12.670400 1.444500
12.688300 1.446900
12.706300 1.450500
12.724300 1.432900
12.742200 1.401300
12.760200 1.368500
12.778200 1.344300
12.796100 1.335300
12.814100 1.328400
12.832100 1.323300
12.850000 1.314400
12.868000 1.302200
12.886000 1.296600
12.903900 1.290100
12.921900 1.287100
12.939900 1.299500
12.957800 1.319800
12.975800 1.330500
12.993800 1.345200
13.011700 1.361200
13.029700 1.378500
13.047700 1.373200
13.065600 1.387700
13.083600 1.398800
13.101600 1.409200
13.119600 1.421800
13.137500 1.431800
13.155500 1.432100
13.173500 1.432500
13.191400 1.432900
13.209400 1.433300
13.227400 1.433600
13.245300 1.434900
13.263300 1.434200
13.281300 1.429800
13.299200 1.424900
13.317200 1.421200
13.335200 1.417600
13.353100 1.415000
13.371100 1.414200
13.389100 1.412500
13.407000 1.408800
13.425000 1.415300
13.443000 1.424000
13.460900 1.432800
13.478900 1.441000
13.496900 1.447200
13.514800 1.454100
13.532800 1.471400
13.550800 1.486800
13.568700 1.488000
13.586700 1.482800
13.604700 1.470000
13.622600 1.471800
13.640600 1.470600
13.658600 1.466400
13.676500 1.458700
13.694500 1.449200
13.712500 1.438200
13.730400 1.425100
13.748400 1.404500
13.766400 1.393000
13.784300 1.398300
13.802300 1.409800
13.820300 1.424400
13.838200 1.438800
13.856200 1.452700
13.874200 1.468500
13.892100 1.482300
13.910100 1.490700
13.928100 1.494000
13.946000 1.499100
13.964000 1.498100
13.982000 1.488300
13.999900 1.475800
14.017900 1.465200
14.035900 1.452600
14.053800 1.442200
14.071800 1.433600
14.089800 1.427600
14.107700 1.419800
14.125700 1.423200
14.143700 1.436900
14.161700 1.455600
14.179600 1.476700
14.197600 1.501100
14.215600 1.532900
14.233500 1.554000
14.251500 1.565100
14.269500 1.582300
14.287400 1.631600
14.305400 1.671700
14.323400 1.697800
14.341300 1.712800
14.359300 1.713400
14.377300 1.706600
14.395200 1.706300
14.413200 1.634200
14.431200 1.585300
14.449100 1.601100
14.467100 1.636800
14.485100 1.708600
14.503000 1.749300
14.521000 1.768400
14.539000 1.777000
14.556900 1.766200
14.574900 1.791700
14.592900 1.821300
14.610800 1.856500
14.628800 1.883000
14.646800 1.884200
14.664700 1.890400
14.682700 1.886600
14.700700 1.874100
14.718600 1.855700
14.736600 1.824800
14.754600 1.782000
14.772500 1.742700
14.790500 1.694200
14.808500 1.642800
14.826400 1.614900
14.844400 1.603700
14.862400 1.597300
14.880300 1.587600
14.898300 1.579200
14.916300 1.581800
14.934200 1.573200
14.952200 1.563800
14.970200 1.550400
14.988100 1.549900
15.006100 1.565000
15.024100 1.602600
15.042000 1.609400
15.060000 1.625800
15.078000 1.567500
15.095900 1.613800
15.113900 1.646100
15.131900 1.646600
15.149900 1.671100
15.167800 1.695500
15.185800 1.717700
15.203800 1.738900
15.221700 1.762500
15.239700 1.785000
15.257700 1.804500
15.275600 1.812900
15.293600 1.819500
15.311600 1.827900
15.329500 1.838400
15.347500 1.823600
15.365500 1.797100
15.383400 1.781300
15.401400 1.775800
15.419400 1.812500
15.437300 1.837600
15.455300 1.872400
15.473300 1.887600
15.491200 1.926100
15.509200 1.963400
15.527200 1.996900
15.545100 2.024400
15.563100 2.041800
15.581100 2.054200
15.599000 2.068900
15.617000 2.070700
15.635000 2.075700
15.652900 2.085800
15.670900 2.090500
15.688900 2.091300
15.706800 2.092600
15.724800 2.088700
15.742800 2.080500
15.760700 2.063800
15.778700 2.049900
15.796700 2.037700
15.814600 2.019400
15.832600 2.000400
15.850600 1.967300
15.868500 1.953000
15.886500 1.942000
15.904500 1.933200
15.922400 1.929200
15.940400 1.929700
15.958400 1.926800
15.976300 1.918100
15.994300 1.912900
16.012300 1.904400
16.030200 1.890700
16.048200 1.877100
16.066200 1.864100
16.084100 1.850100
16.102100 1.868100
16.120100 1.879700
16.138000 1.868600
16.156000 1.929100
16.174000 1.872300
16.192000 1.731500
16.209900 1.711200
16.227900 1.700100
16.245900 1.718300
16.263800 1.741500
16.281800 1.676300
16.299800 1.642700
16.317700 1.613400
16.335700 1.595800
16.353700 1.595800
16.371600 1.619800
16.389600 1.626400
16.407600 1.611200
16.425500 1.623600
16.443500 1.674900
16.461500 1.744800
16.479400 1.812000
16.497400 1.876000
16.515400 1.943700
16.533300 2.025700
16.551300 2.106200
16.569300 2.189200
16.587200 2.128300
16.605200 2.251300
16.623200 2.135200
16.641100 2.114800
16.659100 2.135100
16.677100 2.155300
16.695000 2.115100
16.713000 2.087100
16.731000 2.076000
16.748900 2.063100
16.766900 2.046300
16.784900 2.033800
16.802800 2.026800
16.820800 2.027300
16.838800 2.035900
16.856700 2.041400
16.874700 2.032400
16.892700 2.005600
16.910600 1.968700
16.928600 1.934400
16.946600 1.892000
16.964500 1.870400
16.982500 1.856800
17.000500 1.846800
17.018400 1.836200
17.036400 1.831100
17.054400 1.823400
17.072300 1.845500
17.090300 1.862900
17.108300 1.894900
17.126200 1.897400
17.144200 1.911100
17.162200 1.927700
17.180100 1.953300
17.198100 1.986600
17.216100 2.018200
17.234100 2.070100
17.252000 2.135300
17.270000 2.168900
17.288000 2.196900
17.305900 2.151900
17.323900 2.090500
17.341900 2.058800
17.359800 2.032300
17.377800 2.008700
17.395800 1.992100
17.413700 1.973500
17.431700 1.973700
17.449700 1.981400
17.467600 1.996000
17.485600 2.005100
17.503600 2.008600
17.521500 2.017500
17.539500 2.025700
17.557500 2.039900
17.575400 2.048400
17.593400 2.112700
17.611400 2.072400
17.629300 2.071600
17.647300 2.158800
17.665300 2.140100
17.683200 2.140700
17.701200 2.144200
17.719200 2.117600
17.737100 2.055100
17.755100 1.980300
17.773100 1.953900
17.791000 1.931200
17.809000 1.919500
17.827000 1.906700
17.844900 1.894400
17.862900 1.887200
17.880900 1.899000
17.898800 1.915300
17.916800 1.934200
17.934800 1.955100
17.952700 1.979300
17.970700 2.007100
17.988700 2.008400
18.006600 1.998400
18.024600 1.993300
18.042600 1.995400
18.060500 2.001300
18.078500 2.009000
18.096500 2.024200
18.114400 2.053300
18.132400 2.073600
18.150400 2.098100
18.168300 2.127400
18.186300 2.154500
18.204300 2.173500
18.222300 2.196900
18.240200 2.229800
18.258200 2.271100
18.276200 2.318200
18.294100 2.366600
18.312100 2.416400
18.330100 2.463700
18.348000 2.488000
18.366000 2.493700
18.384000 2.482900
18.401900 2.460900
18.419900 2.440100
18.437900 2.389800
18.455800 2.337600
18.473800 2.294600
18.491800 2.246700
18.509700 2.207200
18.527700 2.162900
18.545700 2.118000
18.563600 2.076500
18.581600 2.037600
18.599600 2.003000
18.617500 1.970600
18.635500 1.942000
18.653500 1.912900
18.671400 1.889900
18.689400 1.869700
18.707400 1.851800
18.725300 1.834400
18.743300 1.821100
18.761300 1.811800
18.779200 1.807800
18.797200 1.806600
18.815200 1.808900
18.833100 1.811300
18.851100 1.822800
18.869100 1.851400
18.887000 1.877400
18.905000 1.888900
18.923000 1.898200
18.940900 1.905400
18.958900 1.923600
18.976900 1.950100
18.994800 1.989400
19.012800 2.035300
19.030800 2.086000
19.048700 2.114600
19.066700 2.125000
19.084700 2.080400
19.102600 2.054400
19.120600 2.045200
19.138600 2.036700
19.156500 2.022200
19.174500 2.014000
19.192500 2.001000
19.210400 1.984600
19.228400 1.965900
19.246400 1.937400
19.264400 1.906600
19.282300 1.878200
19.300300 1.859200
19.318300 1.840400
19.336200 1.798200
19.354200 1.793000
19.372200 1.799700
19.390100 1.816100
19.408100 1.837500
19.426100 1.863700
19.444000 1.894200
19.462000 1.933400
19.480000 1.986100
19.497900 2.053400
19.515900 2.108700
19.533900 2.092300
19.551800 2.085300
19.569800 2.088100
19.587800 2.097900
19.605700 2.091600
19.623700 2.078300
19.641700 2.063900
19.659600 2.047400
19.677600 2.030200
19.695600 2.005300
19.713500 1.979200
19.731500 1.949000
19.749500 1.917600
19.767400 1.889700
19.785400 1.864900
19.803400 1.842500
19.821300 1.826800
19.839300 1.813700
19.857300 1.795500
19.875200 1.777200
19.893200 1.753500
19.911200 1.729900
19.929100 1.711400
19.947100 1.694100
19.965100 1.695800
19.983000 1.696000
20.001000 1.692000
20.019000 1.686200
20.036900 1.682700
20.054900 1.687700
20.072900 1.691700
20.090800 1.710800
20.108800 1.742500
20.126800 1.763700
20.144700 1.778300
20.162700 1.792000
20.180700 1.804300
20.198600 1.822500
20.216600 1.844400
20.234600 1.867600
20.252600 1.874600
20.270500 1.888000
20.288500 1.905600
20.306500 1.924000
20.324400 1.940700
20.342400 1.952000
20.360400 1.961700
20.378300 1.969800
20.396300 1.972900
20.414300 1.974300
20.432200 1.971300
20.450200 1.964000
20.468200 1.960500
20.486100 1.956100
20.504100 1.951300
20.522100 1.952200
20.540000 1.952700
20.558000 1.952500
20.576000 1.950200
20.593900 1.946700
20.611900 1.959000
20.629900 1.947100
20.647800 1.929200
20.665800 1.916900
20.683800 1.895500
20.701700 1.873600
20.719700 1.856300
20.737700 1.845800
20.755600 1.839900
20.773600 1.832500
20.791600 1.823800
20.809500 1.824000
20.827500 1.841000
20.845500 1.834700
20.863400 1.822700
20.881400 1.822400
20.899400 1.822700
20.917300 1.821100
20.935300 1.817000
20.953300 1.814100
20.971200 1.813500
20.989200 1.814200
21.007200 1.814500
21.025100 1.814900
21.043100 1.822100
21.061100 1.826900
21.079000 1.836100
21.097000 1.858900
21.115000 1.865900
21.132900 1.869800
21.150900 1.972000
21.168900 2.027400
21.186800 2.056300
21.204800 1.966100
21.222800 1.976300
21.240700 1.992100
21.258700 2.007000
21.276700 2.038200
21.294700 2.068100
21.312600 1.966700
21.330600 1.916200
21.348600 1.930500
21.366500 1.984300
21.384500 2.077700
21.402500 2.178400
21.420400 2.235200
21.438400 2.204700
21.456400 2.067400
21.474300 2.057300
21.492300 2.119500
21.510300 2.084000
21.528200 2.070200
21.546200 2.059300
21.564200 2.183500
21.582100 2.265900
21.600100 1.997200
21.618100 2.092900
21.636000 2.203600
21.654000 2.071600
21.672000 2.027900
21.689900 1.994300
21.707900 2.075600
21.725900 1.997700
21.743800 1.920700
21.761800 1.900700
21.779800 1.869100
21.797700 1.896700
21.815700 1.890400
21.833700 1.931400
21.851600 1.853800
21.869600 1.875800
21.887600 1.894700
21.905500 1.927900
21.923500 1.944000
21.941500 1.976700
21.959400 1.849900
21.977400 1.838000
21.995400 1.816800
22.013300 1.816500
22.031300 1.817400
22.049300 1.850300
22.067200 1.842800
22.085200 1.836100
22.103200 1.829200
22.121100 1.828900
22.139100 1.853900
22.157100 1.944800
22.175000 1.883100
22.193000 1.884000
22.211000 1.887800
22.228900 1.812900
22.246900 1.828400
22.264900 1.865300
22.282900 1.923000
22.300800 2.073600
22.318800 2.253600
22.336800 2.304300
22.354700 2.394000
22.372700 2.495000
22.390700 2.589700
22.408600 2.684500
22.426600 2.634200
22.444600 2.646000
22.462500 2.609400
22.480500 2.591500
22.498500 2.655300
22.516400 2.573600
22.534400 2.482100
22.552400 2.799500
22.570300 2.304600
22.588300 1.945000
22.606300 1.875400
22.624200 1.819000
22.642200 1.768100
22.660200 1.737400
22.678100 1.721800
22.696100 1.714200
22.714100 1.710100
22.732000 1.678600
22.750000 1.658500
22.768000 1.643600
22.785900 1.653200
22.803900 1.645200
22.821900 1.681900
22.839800 1.653500
22.857800 1.598300
22.875800 1.632800
22.893700 1.668100
22.911700 1.707800
22.929700 1.825800
22.947600 1.894000
22.965600 1.958700
22.983600 1.986400
23.001500 2.007900
23.019500 2.078800
23.037500 2.100600
23.055400 2.056000
23.073400 1.965600
23.091400 1.966800
23.109300 2.126000
23.127300 1.958800
23.145300 1.956600
23.163200 2.048700
23.181200 2.167000
23.199200 2.253100
23.217100 2.278000
23.235100 2.341300
23.253100 2.600000
23.271000 2.596100
23.289000 2.474300
23.307000 2.399800
23.325000 2.396300
23.342900 2.408800
23.360900 2.403700
23.378900 2.405200
23.396800 2.417400
23.414800 2.400100
23.432800 2.399700
23.450700 2.363100
23.468700 2.222500
23.486700 2.196200
23.504600 2.204200
23.522600 2.172500
23.540600 2.131400
23.558500 2.055400
23.576500 2.024800
23.594500 2.023200
23.612400 2.069500
23.630400 2.137100
23.648400 2.180300
23.666300 2.207600
23.684300 2.200100
23.702300 2.231900
23.720200 2.175100
23.738200 2.467700
23.756200 2.170500
23.774100 1.990700
23.792100 1.936100
23.810100 1.856400
23.828000 1.715700
23.846000 1.648100
23.864000 1.576600
23.881900 1.532200
23.899900 1.468700
23.917900 1.414600
23.935800 1.398600
23.953800 1.351900
23.971800 1.197100
23.989700 1.044600
24.007700 0.904400
24.025700 0.772700
24.043600 0.669600
24.061600 0.570600
24.079600 0.494200
24.097500 0.426700
24.115500 0.368100
24.133500 0.317100
24.151400 0.273600
24.169400 0.239400
24.187400 0.209900
24.205300 0.184100
24.223300 0.167500
24.241300 0.146400
24.259200 0.127400
24.277200 0.110700
24.295200 0.096100
24.313200 0.083700
24.331100 0.073100
24.349100 0.048600
24.367100 0.044100
24.385000 0.040300
24.403000 0.036600
24.421000 0.033000
24.438900 0.029600
24.456900 0.026300
24.474900 0.023200
24.492800 0.020200
24.510800 0.017400
24.528800 0.014500
24.546700 0.011700
24.564700 0.008900
24.582700 0.006200
24.600600 0.003600
24.618600 0.001600
24.636600 0.000400
24.654500 0.000000
24.672500 0.000000
24.690500 0.000000
24.708400 0.000000
24.726400 0.000000
24.744400 0.000000
24.762300 0.000000
24.780300 0.000000
24.798300 0.000000
24.816200 0.000000
24.834200 0.000000
24.852200 0.000000
24.870100 0.000000
24.888100 0.000000
24.906100 0.000000
24.924000 0.000000
24.942000 0.000000
24.960000 0.000000
24.977900 0.000000
24.995900 0.000000
25.013900 0.000000
25.031800 0.000000
25.049800 0.000000
25.067800 0.000000
25.085700 0.000000
25.103700 0.000000
25.121700 0.000000
25.139600 0.000000
25.157600 0.000000
25.175600 0.000000
25.193500 0.000000
25.211500 0.000000
25.229500 0.000000
25.247400 0.000000
25.265400 0.000000
25.283400 0.000000
25.301300 0.000000
25.319300 0.000000
25.337300 0.000000
25.355300 0.000000
25.373200 0.000000
25.391200 0.000000
25.409200 0.000000
25.427100 0.000000
25.445100 0.000000
25.463100 0.000000
25.481000 0.000000
25.499000 0.000000
25.517000 0.000000
25.534900 0.000000
25.552900 0.000000
25.570900 0.000000
25.588800 0.000000
25.606800 0.000000
25.624800 0.000000
25.642700 0.000000
25.660700 0.000000
25.678700 0.000000
25.696600 0.000000
25.714600 0.000000
25.732600 0.000000
25.750500 0.000000
25.768500 0.000000
25.786500 0.000000
25.804400 0.000000
25.822400 0.000000
25.840400 0.000000
25.858300 0.000000
25.876300 0.000000
25.894300 0.000000
25.912200 0.000000
25.930200 0.000000
25.948200 0.000000
25.966100 0.000000
25.984100 0.000000
26.002100 0.000000
26.020000 0.000000
26.038000 0.000000
26.056000 0.000000
26.073900 0.000000
26.091900 0.000000
26.109900 0.000000
26.127800 0.000000
26.145800 0.000000
26.163800 0.000000
26.181700 0.000000
26.199700 0.000000
26.217700 0.000000
26.235600 0.000000
26.253600 0.000000
26.271600 0.000000
26.289500 0.000000
e
