set title 'mp-862621 - Density of States'
set xlabel 'Energy (eV)'
set ylabel 'DOS (states/eV)'
set grid
set xrange [-10:10]
set yrange [0:540.306]
set xzeroaxis lt -1
set terminal png size 800,600
set output 'mp-862621_dos_gnuplot.png'
plot '-' using 1:2 with lines title 'DOS'
-9.484000 0.000000
-9.467700 0.000000
-9.451400 0.000000
-9.435100 0.000000
-9.418700 0.000000
-9.402400 0.000000
-9.386100 0.000000
-9.369800 0.000000
-9.353500 0.000000
-9.337100 0.000000
-9.320800 0.000000
-9.304500 0.000000
-9.288200 0.000000
-9.271800 0.000000
-9.255500 0.000000
-9.239200 0.000000
-9.222900 0.000000
-9.206500 0.000000
-9.190200 0.000000
-9.173900 0.000000
-9.157600 0.000000
-9.141200 0.000000
-9.124900 0.000000
-9.108600 0.000000
-9.092300 0.000000
-9.076000 0.000000
-9.059600 0.000000
-9.043300 0.000000
-9.027000 0.000000
-9.010700 0.000000
-8.994300 0.000000
-8.978000 0.000000
-8.961700 0.000000
-8.945400 0.000000
-8.929000 0.000000
-8.912700 0.000000
-8.896400 0.000000
-8.880100 0.000000
-8.863800 0.000000
-8.847400 0.000000
-8.831100 0.000000
-8.814800 0.000000
-8.798500 0.000000
-8.782100 0.000000
-8.765800 0.000000
-8.749500 0.000000
-8.733200 0.000000
-8.716800 0.000000
-8.700500 0.000000
-8.684200 0.000000
-8.667900 0.000000
-8.651500 0.000000
-8.635200 0.000000
-8.618900 0.000000
-8.602600 0.000000
-8.586300 0.000000
-8.569900 0.000000
-8.553600 0.000000
-8.537300 0.000000
-8.521000 0.000000
-8.504600 0.000000
-8.488300 0.000000
-8.472000 0.000000
-8.455700 0.000000
-8.439300 0.000000
-8.423000 0.000000
-8.406700 0.000000
-8.390400 0.000000
-8.374100 0.000000
-8.357700 0.000000
-8.341400 0.000000
-8.325100 0.000000
-8.308800 0.000000
-8.292400 0.000000
-8.276100 0.000000
-8.259800 0.000000
-8.243500 0.000000
-8.227100 0.000000
-8.210800 0.000000
-8.194500 0.000000
-8.178200 0.000000
-8.161800 0.000000
-8.145500 0.000000
-8.129200 0.000000
-8.112900 0.000000
-8.096600 0.000000
-8.080200 0.000000
-8.063900 0.000000
-8.047600 0.000000
-8.031300 0.000000
-8.014900 0.000000
-7.998600 5.929000
-7.982300 150.732700
-7.966000 491.187000
-7.949600 242.980200
-7.933300 99.641700
-7.917000 86.109900
-7.900700 0.000000
-7.884400 0.000000
-7.868000 0.000000
-7.851700 0.000000
-7.835400 0.000000
-7.819100 0.000000
-7.802700 0.000000
-7.786400 0.000000
-7.770100 0.000000
-7.753800 0.000000
-7.737400 0.000000
-7.721100 0.000000
-7.704800 0.000000
-7.688500 0.000000
-7.672100 0.000000
-7.655800 0.000000
-7.639500 0.000000
-7.623200 0.000000
-7.606900 0.000000
-7.590500 0.000000
-7.574200 0.000000
-7.557900 0.000000
-7.541600 0.000000
-7.525200 0.000000
-7.508900 0.000000
-7.492600 0.000000
-7.476300 0.000000
-7.459900 0.000000
-7.443600 0.000000
-7.427300 0.000000
-7.411000 0.000000
-7.394700 0.000000
-7.378300 0.000000
-7.362000 0.000000
-7.345700 0.000000
-7.329400 0.000000
-7.313000 0.000000
-7.296700 0.000000
-7.280400 0.000000
-7.264100 0.000000
-7.247700 0.000000
-7.231400 0.000000
-7.215100 0.000000
-7.198800 0.000000
-7.182400 0.000000
-7.166100 0.000000
-7.149800 0.000000
-7.133500 0.000000
-7.117200 0.000000
-7.100800 0.000000
-7.084500 0.000000
-7.068200 0.000000
-7.051900 0.000000
-7.035500 0.000000
-7.019200 0.000000
-7.002900 0.000000
-6.986600 0.000000
-6.970200 0.000000
-6.953900 0.000000
-6.937600 0.000000
-6.921300 0.000000
-6.905000 0.000000
-6.888600 0.000000
-6.872300 0.000000
-6.856000 0.000000
-6.839700 0.000000
-6.823300 0.000000
-6.807000 0.000000
-6.790700 0.000000
-6.774400 0.000000
-6.758000 0.000000
-6.741700 0.000000
-6.725400 0.000000
-6.709100 0.000000
-6.692700 0.000000
-6.676400 0.000000
-6.660100 0.000000
-6.643800 0.000000
-6.627500 0.000000
-6.611100 0.000000
-6.594800 0.000000
-6.578500 0.000000
-6.562200 0.000000
-6.545800 0.000000
-6.529500 0.000000
-6.513200 0.000000
-6.496900 0.000000
-6.480500 0.000000
-6.464200 0.000000
-6.447900 0.000000
-6.431600 0.000000
-6.415300 0.000000
-6.398900 0.000000
-6.382600 0.000000
-6.366300 0.000000
-6.350000 0.000000
-6.333600 0.000000
-6.317300 0.000000
-6.301000 0.000000
-6.284700 0.000000
-6.268300 0.000000
-6.252000 0.000000
-6.235700 0.000000
-6.219400 0.000000
-6.203000 0.000000
-6.186700 0.000000
-6.170400 0.000000
-6.154100 0.000000
-6.137800 0.000000
-6.121400 0.000000
-6.105100 0.000000
-6.088800 0.000000
-6.072500 0.000000
-6.056100 0.000000
-6.039800 0.000000
-6.023500 0.000000
-6.007200 0.000000
-5.990800 0.000000
-5.974500 0.000000
-5.958200 0.000000
-5.941900 0.000000
-5.925500 0.000000
-5.909200 0.000000
-5.892900 0.000000
-5.876600 0.000000
-5.860300 0.000000
-5.843900 0.000000
-5.827600 0.000000
-5.811300 0.000000
-5.795000 0.000000
-5.778600 0.000000
-5.762300 0.000000
-5.746000 0.000000
-5.729700 0.000000
-5.713300 0.000000
-5.697000 0.000000
-5.680700 0.000000
-5.664400 0.000000
-5.648100 0.000000
-5.631700 0.000000
-5.615400 0.000000
-5.599100 0.000000
-5.582800 0.000000
-5.566400 0.000000
-5.550100 0.000000
-5.533800 0.000000
-5.517500 0.000000
-5.501100 0.000000
-5.484800 0.000000
-5.468500 0.000000
-5.452200 0.000000
-5.435800 0.000000
-5.419500 0.000000
-5.403200 0.000000
-5.386900 0.000000
-5.370600 0.000000
-5.354200 0.000000
-5.337900 0.000000
-5.321600 0.000000
-5.305300 0.000000
-5.288900 0.000000
-5.272600 0.000000
-5.256300 0.000000
-5.240000 0.000000
-5.223600 0.000000
-5.207300 0.000000
-5.191000 0.000000
-5.174700 0.000000
-5.158400 0.000000
-5.142000 0.000000
-5.125700 0.000000
-5.109400 0.000000
-5.093100 0.000000
-5.076700 0.000000
-5.060400 0.000000
-5.044100 0.000000
-5.027800 0.000000
-5.011400 0.000000
-4.995100 0.000000
-4.978800 0.000000
-4.962500 0.000000
-4.946100 0.000000
-4.929800 0.000000
-4.913500 0.000000
-4.897200 0.000000
-4.880900 0.000000
-4.864500 0.000000
-4.848200 0.000000
-4.831900 0.000000
-4.815600 0.000000
-4.799200 0.000000
-4.782900 0.000000
-4.766600 0.000000
-4.750300 0.000000
-4.733900 0.000000
-4.717600 0.000000
-4.701300 0.000000
-4.685000 0.000000
-4.668700 0.000000
-4.652300 0.000000
-4.636000 0.000000
-4.619700 0.000000
-4.603400 0.000000
-4.587000 0.000000
-4.570700 0.000000
-4.554400 0.000000
-4.538100 0.000000
-4.521700 0.000000
-4.505400 0.000000
-4.489100 0.000000
-4.472800 0.000000
-4.456400 0.000000
-4.440100 0.000000
-4.423800 0.000000
-4.407500 0.000000
-4.391200 0.000000
-4.374800 0.000000
-4.358500 0.000000
-4.342200 0.000000
-4.325900 0.000000
-4.309500 0.000000
-4.293200 0.000000
-4.276900 0.000000
-4.260600 0.000000
-4.244200 0.000000
-4.227900 0.000000
-4.211600 0.000000
-4.195300 0.000000
-4.179000 0.000000
-4.162600 0.000000
-4.146300 0.000000
-4.130000 0.000000
-4.113700 0.000000
-4.097300 0.000000
-4.081000 0.000000
-4.064700 0.000000
-4.048400 0.000000
-4.032000 0.000000
-4.015700 0.000000
-3.999400 0.000000
-3.983100 0.000000
-3.966700 0.000000
-3.950400 0.000000
-3.934100 0.000600
-3.917800 0.015000
-3.901500 0.049000
-3.885100 0.102400
-3.868800 0.166200
-3.852500 0.148200
-3.836200 0.163000
-3.819800 0.180500
-3.803500 0.200700
-3.787200 0.223500
-3.770900 0.248600
-3.754500 0.268200
-3.738200 0.278500
-3.721900 0.279800
-3.705600 0.285700
-3.689300 0.295000
-3.672900 0.306300
-3.656600 0.317900
-3.640300 0.329800
-3.624000 0.341900
-3.607600 0.354400
-3.591300 0.367600
-3.575000 0.381800
-3.558700 0.397100
-3.542300 0.401000
-3.526000 0.408200
-3.509700 0.416500
-3.493400 0.424200
-3.477000 0.431500
-3.460700 0.438200
-3.444400 0.444600
-3.428100 0.451500
-3.411800 0.459000
-3.395400 0.467100
-3.379100 0.479200
-3.362800 0.489400
-3.346500 0.499800
-3.330100 0.510400
-3.313800 0.521100
-3.297500 0.532000
-3.281200 0.541600
-3.264800 0.548900
-3.248500 0.553700
-3.232200 0.557900
-3.215900 0.564000
-3.199500 0.570600
-3.183200 0.577600
-3.166900 0.584900
-3.150600 0.592600
-3.134300 0.600500
-3.117900 0.608500
-3.101600 0.616400
-3.085300 0.624200
-3.069000 0.632300
-3.052600 0.640700
-3.036300 0.649100
-3.020000 0.657700
-3.003700 0.666400
-2.987300 0.675200
-2.971000 0.684000
-2.954700 0.693000
-2.938400 0.700900
-2.922100 0.708400
-2.905700 0.715400
-2.889400 0.722500
-2.873100 0.729500
-2.856800 0.736400
-2.840400 0.743300
-2.824100 0.750400
-2.807800 0.757800
-2.791500 0.765600
-2.775100 0.773600
-2.758800 0.781500
-2.742500 0.789400
-2.726200 0.797300
-2.709800 0.805200
-2.693500 0.813200
-2.677200 0.821200
-2.660900 0.829500
-2.644600 0.838100
-2.628200 0.847300
-2.611900 0.856800
-2.595600 0.866600
-2.579300 0.876300
-2.562900 0.886100
-2.546600 0.895500
-2.530300 0.904200
-2.514000 0.912200
-2.497600 0.920500
-2.481300 0.929200
-2.465000 0.938100
-2.448700 0.947000
-2.432400 0.956100
-2.416000 0.965200
-2.399700 0.974500
-2.383400 0.983800
-2.367100 0.993700
-2.350700 1.004500
-2.334400 1.018600
-2.318100 1.032400
-2.301800 1.049000
-2.285400 1.069500
-2.269100 1.090200
-2.252800 1.111200
-2.236500 1.132400
-2.220100 1.153800
-2.203800 1.175200
-2.187500 1.196800
-2.171200 1.218600
-2.154900 1.241200
-2.138500 1.265100
-2.122200 1.265300
-2.105900 1.260600
-2.089600 1.258700
-2.073200 1.258800
-2.056900 1.261400
-2.040600 1.267500
-2.024300 1.282700
-2.007900 1.298700
-1.991600 1.312400
-1.975300 1.323800
-1.959000 1.330900
-1.942700 1.332300
-1.926300 1.328200
-1.910000 1.318700
-1.893700 1.303600
-1.877400 1.221700
-1.861000 1.225600
-1.844700 1.272800
-1.828400 1.334000
-1.812100 1.409200
-1.795700 1.473700
-1.779400 1.510700
-1.763100 1.629900
-1.746800 1.677600
-1.730400 1.723100
-1.714100 1.766300
-1.697800 1.807200
-1.681500 1.846300
-1.665200 2.002300
-1.648800 2.100000
-1.632500 2.150100
-1.616200 2.113100
-1.599900 2.076900
-1.583500 2.052200
-1.567200 2.047100
-1.550900 2.099400
-1.534600 2.099500
-1.518200 2.067200
-1.501900 2.026200
-1.485600 1.976700
-1.469300 1.897900
-1.453000 1.731000
-1.436600 1.652200
-1.420300 1.695500
-1.404000 1.991000
-1.387700 2.263500
-1.371300 2.513400
-1.355000 2.787000
-1.338700 3.039400
-1.322400 3.241900
-1.306000 3.475200
-1.289700 3.764200
-1.273400 4.150100
-1.257100 4.699400
-1.240700 5.574800
-1.224400 5.783300
-1.208100 5.579900
-1.191800 5.280400
-1.175500 4.934000
-1.159100 4.266800
-1.142800 3.746900
-1.126500 3.323700
-1.110200 2.820900
-1.093800 2.496500
-1.077500 2.277000
-1.061200 2.085100
-1.044900 1.902300
-1.028500 1.744200
-1.012200 1.630400
-0.995900 1.538900
-0.979600 1.439800
-0.963300 1.370500
-0.946900 1.275600
-0.930600 1.176300
-0.914300 1.086200
-0.898000 1.015600
-0.881600 0.948300
-0.865300 0.886900
-0.849000 0.820600
-0.832700 0.739800
-0.816300 0.646600
-0.800000 0.491400
-0.783700 0.475200
-0.767400 0.486000
-0.751000 0.499200
-0.734700 0.463600
-0.718400 0.468300
-0.702100 0.487500
-0.685800 0.456500
-0.669400 0.410200
-0.653100 0.188400
-0.636800 0.247000
-0.620500 0.372900
-0.604100 0.405700
-0.587800 0.455400
-0.571500 0.505700
-0.555200 0.436300
-0.538800 0.459800
-0.522500 0.482600
-0.506200 0.504700
-0.489900 0.525900
-0.473600 0.547500
-0.457200 0.567300
-0.440900 0.627500
-0.424600 0.642900
-0.408300 0.664600
-0.391900 0.691700
-0.375600 0.718700
-0.359300 0.744300
-0.343000 0.809900
-0.326600 0.835900
-0.310300 0.866100
-0.294000 0.899100
-0.277700 0.934600
-0.261300 0.972600
-0.245000 1.004600
-0.228700 1.188800
-0.212400 1.170500
-0.196100 1.170400
-0.179700 1.150700
-0.163400 1.157900
-0.147100 1.167100
-0.130800 1.184200
-0.114400 1.210400
-0.098100 1.239500
-0.081800 1.276200
-0.065500 1.327300
-0.049100 1.386500
-0.032800 1.453700
-0.016500 1.522900
-0.000200 1.580800
0.016200 1.639300
0.032500 1.705300
0.048800 1.778100
0.065100 1.862700
0.081400 2.057700
0.097800 2.192900
0.114100 2.554600
0.130400 2.811700
0.146700 3.102400
0.163100 3.419600
0.179400 3.694300
0.195700 4.045000
0.212000 4.584500
0.228400 5.277100
0.244700 7.885600
0.261000 9.782500
0.277300 9.759400
0.293600 9.513200
0.310000 8.437800
0.326300 6.890200
0.342600 6.049200
0.358900 4.928000
0.375300 4.298400
0.391600 3.980900
0.407900 4.432600
0.424200 5.241200
0.440600 6.083500
0.456900 7.159800
0.473200 8.549900
0.489500 9.839500
0.505900 11.198800
0.522200 11.910000
0.538500 5.351700
0.554800 3.648800
0.571100 2.760900
0.587500 2.179800
0.603800 1.786900
0.620100 1.550000
0.636400 2.174800
0.652800 2.140900
0.669100 2.208100
0.685400 2.324000
0.701700 2.354200
0.718100 2.374000
0.734400 2.385800
0.750700 2.523200
0.767000 3.072900
0.783300 3.349800
0.799700 3.936900
0.816000 4.673300
0.832300 5.878400
0.848600 6.785700
0.865000 6.977500
0.881300 6.705000
0.897600 6.673900
0.913900 7.961800
0.930300 7.444500
0.946600 7.484200
0.962900 6.357700
0.979200 6.131100
0.995600 5.824000
1.011900 5.411900
1.028200 4.818700
1.044500 4.088200
1.060800 3.518100
1.077200 3.048400
1.093500 2.729900
1.109800 2.527200
1.126100 2.503900
1.142500 4.424500
1.158800 3.790200
1.175100 3.793300
1.191400 4.062800
1.207800 4.137900
1.224100 4.758200
1.240400 5.694700
1.256700 6.420300
1.273000 6.798600
1.289400 6.415800
1.305700 6.379900
1.322000 6.593800
1.338300 6.544600
1.354700 6.246200
1.371000 6.136000
1.387300 6.235400
1.403600 6.338900
1.420000 5.997600
1.436300 6.009800
1.452600 7.811400
1.468900 13.299900
1.485300 13.466800
1.501600 14.146700
1.517900 17.861200
1.534200 13.577000
1.550500 10.267500
1.566900 11.522700
1.583200 11.056300
1.599500 10.188100
1.615800 9.466600
1.632200 9.545700
1.648500 11.242200
1.664800 12.219500
1.681100 14.616700
1.697500 11.598500
1.713800 13.260300
1.730100 13.200400
1.746400 14.093500
1.762700 14.263000
1.779100 15.728500
1.795400 15.480200
1.811700 9.920800
1.828000 7.767500
1.844400 8.464800
1.860700 10.064800
1.877000 14.903400
1.893300 14.230200
1.909700 13.236900
1.926000 12.791800
1.942300 12.597400
1.958600 11.396400
1.975000 10.405000
1.991300 9.412200
2.007600 8.034000
2.023900 8.773900
2.040200 9.605300
2.056600 10.460200
2.072900 10.613000
2.089200 11.226000
2.105500 11.453100
2.121900 11.584300
2.138200 11.184500
2.154500 10.539300
2.170800 9.883400
2.187200 8.671700
2.203500 6.357800
2.219800 6.022200
2.236100 6.724800
2.252400 8.408100
2.268800 10.899000
2.285100 12.270000
2.301400 13.130500
2.317700 12.181100
2.334100 9.980400
2.350400 9.326700
2.366700 8.954600
2.383000 8.627100
2.399400 9.944500
2.415700 12.989100
2.432000 13.066000
2.448300 11.772500
2.464700 9.130700
2.481000 8.428500
2.497300 7.406500
2.513600 6.426400
2.529900 7.717400
2.546300 11.351000
2.562600 11.056100
2.578900 11.252000
2.595200 11.947100
2.611600 12.400000
2.627900 11.980100
2.644200 10.580400
2.660500 9.634300
2.676900 9.074000
2.693200 9.496000
2.709500 10.658500
2.725800 10.319400
2.742100 10.255500
2.758500 9.443100
2.774800 10.142400
2.791100 11.089800
2.807400 15.343900
2.823800 12.593300
2.840100 12.548600
2.856400 12.098100
2.872700 11.489400
2.889100 11.527800
2.905400 12.244500
2.921700 12.374600
2.938000 12.683600
2.954400 14.220900
2.970700 13.861400
2.987000 14.226700
3.003300 11.756100
3.019600 10.084000
3.036000 9.460200
3.052300 9.387900
3.068600 9.425100
3.084900 9.803700
3.101300 10.180700
3.117600 9.420300
3.133900 9.227100
3.150200 9.146600
3.166600 9.308100
3.182900 9.923000
3.199200 9.648400
3.215500 10.290000
3.231900 9.570600
3.248200 9.323400
3.264500 9.138800
3.280800 9.053300
3.297100 9.207000
3.313500 9.905900
3.329800 10.415300
3.346100 11.428100
3.362400 11.027100
3.378800 11.515600
3.395100 13.744500
3.411400 13.988400
3.427700 13.624600
3.444100 13.767000
3.460400 13.860800
3.476700 13.166100
3.493000 12.565100
3.509300 12.189200
3.525700 11.783300
3.542000 11.632300
3.558300 13.106900
3.574600 13.076300
3.591000 14.111900
3.607300 13.521200
3.623600 11.740300
3.639900 10.837400
3.656300 11.026600
3.672600 10.341500
3.688900 9.989800
3.705200 8.728200
3.721600 8.607300
3.737900 8.012500
3.754200 7.144200
3.770500 6.135600
3.786800 6.095300
3.803200 6.313400
3.819500 6.592800
3.835800 8.091900
3.852100 8.641900
3.868500 9.533500
3.884800 10.015800
3.901100 10.354500
3.917400 9.662600
3.933800 8.783800
3.950100 7.957800
3.966400 7.739000
3.982700 7.634700
3.999000 8.806800
4.015400 8.961200
4.031700 7.217700
4.048000 7.545700
4.064300 7.852100
4.080700 8.281500
4.097000 7.896200
4.113300 8.071700
4.129600 8.776000
4.146000 9.000000
4.162300 9.024900
4.178600 9.199100
4.194900 9.319200
4.211300 9.540600
4.227600 9.529900
4.243900 9.703900
4.260200 10.479000
4.276500 10.528200
4.292900 10.126900
4.309200 10.023800
4.325500 10.645300
4.341800 10.655800
4.358200 10.220800
4.374500 10.552200
4.390800 11.614000
4.407100 11.137200
4.423500 11.648200
4.439800 11.953200
4.456100 11.129300
4.472400 11.210600
4.488700 11.060500
4.505100 13.344300
4.521400 14.769600
4.537700 16.528000
4.554000 16.164200
4.570400 14.993300
4.586700 13.970500
4.603000 16.027300
4.619300 14.720700
4.635700 17.567400
4.652000 16.975400
4.668300 14.713900
4.684600 12.908700
4.701000 11.609400
4.717300 11.915100
4.733600 12.314600
4.749900 12.348800
4.766200 12.534000
4.782600 13.408600
4.798900 15.218700
4.815200 16.191400
4.831500 14.869100
4.847900 14.093200
4.864200 14.176200
4.880500 13.317700
4.896800 13.974400
4.913200 15.758700
4.929500 15.742500
4.945800 16.154500
4.962100 15.348400
4.978400 13.866900
4.994800 12.897500
5.011100 13.568700
5.027400 12.967400
5.043700 12.322900
5.060100 12.846000
5.076400 10.622600
5.092700 10.314200
5.109000 10.047400
5.125400 9.698000
5.141700 9.107200
5.158000 8.990800
5.174300 9.251800
5.190700 8.450300
5.207000 7.704800
5.223300 7.495000
5.239600 7.867000
5.255900 8.331100
5.272300 8.822300
5.288600 8.962000
5.304900 8.909000
5.321200 9.312200
5.337600 10.450000
5.353900 10.413800
5.370200 10.060000
5.386500 9.076700
5.402900 8.842600
5.419200 8.623600
5.435500 8.966400
5.451800 9.786900
5.468100 9.926800
5.484500 10.259600
5.500800 11.910800
5.517100 11.401900
5.533400 9.953800
5.549800 10.284100
5.566100 11.528700
5.582400 13.361800
5.598700 13.770500
5.615100 13.331800
5.631400 11.742600
5.647700 11.110400
5.664000 9.803300
5.680400 9.101200
5.696700 8.719300
5.713000 8.659500
5.729300 9.272600
5.745600 10.251700
5.762000 11.204300
5.778300 9.858800
5.794600 8.527800
5.810900 8.314800
5.827300 8.642400
5.843600 8.828200
5.859900 9.635600
5.876200 9.346900
5.892600 8.617100
5.908900 7.302400
5.925200 7.080500
5.941500 6.917500
5.957800 6.374100
5.974200 6.073800
5.990500 5.792200
6.006800 5.736800
6.023100 6.770900
6.039500 7.926800
6.055800 8.150300
6.072100 9.517700
6.088400 11.336500
6.104800 11.119300
6.121100 9.768300
6.137400 9.453100
6.153700 9.922000
6.170100 10.444600
6.186400 10.936500
6.202700 11.431700
6.219000 11.129900
6.235300 10.535500
6.251700 10.521600
6.268000 9.836900
6.284300 9.340300
6.300600 8.715700
6.317000 8.402500
6.333300 9.102900
6.349600 6.874200
6.365900 4.925500
6.382300 4.372100
6.398600 4.025900
6.414900 3.999900
6.431200 4.083700
6.447600 4.112000
6.463900 4.121300
6.480200 3.975500
6.496500 4.023400
6.512800 3.989300
6.529200 3.907900
6.545500 3.778400
6.561800 3.681500
6.578100 3.658500
6.594500 3.700900
6.610800 3.827100
6.627100 3.994900
6.643400 4.188200
6.659800 4.584100
6.676100 5.000500
6.692400 5.181500
6.708700 5.005400
6.725000 5.019100
6.741400 5.022000
6.757700 4.934100
6.774000 4.918200
6.790300 4.946000
6.806700 4.986700
6.823000 5.024300
6.839300 5.081200
6.855600 5.090400
6.872000 5.115200
6.888300 4.929200
6.904600 4.632600
6.920900 4.556900
6.937300 4.475500
6.953600 4.401200
6.969900 4.354700
6.986200 4.345600
7.002500 4.399300
7.018900 5.095200
7.035200 4.440700
7.051500 4.132800
7.067800 3.903900
7.084200 3.742600
7.100500 3.401800
7.116800 3.056600
7.133100 2.655800
7.149500 2.294800
7.165800 2.080900
7.182100 1.743800
7.198400 1.487700
7.214700 1.267200
7.231100 1.096100
7.247400 0.938000
7.263700 0.798900
7.280000 0.680700
7.296400 0.574700
7.312700 0.490800
7.329000 0.423700
7.345300 0.370400
7.361700 0.332600
7.378000 0.308200
7.394300 0.308200
7.410600 0.351300
7.427000 0.417100
7.443300 0.508200
7.459600 0.636200
7.475900 0.775600
7.492200 0.833500
7.508600 0.865800
7.524900 0.833800
7.541200 0.763100
7.557500 0.688900
7.573900 0.644500
7.590200 0.633300
7.606500 0.641300
7.622800 0.655400
7.639200 0.736100
7.655500 0.834100
7.671800 0.933900
7.688100 1.050400
7.704400 1.200700
7.720800 1.405900
7.737100 1.848600
7.753400 1.951000
7.769700 2.002000
7.786100 2.035100
7.802400 1.881900
7.818700 1.739000
7.835000 1.705300
7.851400 1.688100
7.867700 1.619800
7.884000 1.662800
7.900300 1.695000
7.916700 1.746700
7.933000 1.820800
7.949300 1.922800
7.965600 2.040100
7.981900 2.200500
7.998300 2.463100
8.014600 2.675000
8.030900 2.935400
8.047200 3.251000
8.063600 3.440800
8.079900 3.946900
8.096200 4.377900
8.112500 4.863100
8.128900 5.381600
8.145200 5.645900
8.161500 5.896300
8.177800 6.017800
8.194100 5.768900
8.210500 5.190100
8.226800 4.771100
8.243100 4.408500
8.259400 4.118000
8.275800 3.939100
8.292100 3.789300
8.308400 3.674000
8.324700 3.625900
8.341100 3.503900
8.357400 3.313000
8.373700 3.093000
8.390000 2.964800
8.406400 2.876200
8.422700 2.776600
8.439000 2.731500
8.455300 2.712200
8.471600 2.704700
8.488000 2.711700
8.504300 2.747700
8.520600 2.821900
8.536900 2.890700
8.553300 2.947000
8.569600 2.989900
8.585900 2.998900
8.602200 2.968400
8.618600 2.930300
8.634900 2.893600
8.651200 2.849200
8.667500 2.807500
8.683800 2.776400
8.700200 2.773100
8.716500 2.879300
8.732800 2.936900
8.749100 3.009400
8.765500 2.879600
8.781800 2.884200
8.798100 2.928900
8.814400 3.015600
8.830800 3.155000
8.847100 3.241800
8.863400 3.232900
8.879700 3.229100
8.896100 3.189600
8.912400 3.187800
8.928700 3.249100
8.945000 3.325100
8.961300 3.414000
8.977700 3.482500
8.994000 3.563100
9.010300 3.675100
9.026600 3.457400
9.043000 3.356600
9.059300 3.274200
9.075600 3.104300
9.091900 3.061200
9.108300 3.066300
9.124600 3.014700
9.140900 3.004000
9.157200 2.991800
9.173500 2.980800
9.189900 3.017600
9.206200 3.018400
9.222500 2.976700
9.238800 2.922300
9.255200 2.877800
9.271500 2.858700
9.287800 2.753600
9.304100 2.668800
9.320500 2.651600
9.336800 2.702900
9.353100 2.828000
9.369400 2.869900
9.385800 2.892700
9.402100 2.962000
9.418400 3.026900
9.434700 2.955300
9.451000 2.870200
9.467400 2.882500
9.483700 2.914700
9.500000 2.965700
9.516300 3.025700
9.532700 3.036900
9.549000 3.055900
9.565300 3.084900
9.581600 3.116100
9.598000 3.126400
9.614300 3.148200
9.630600 3.153900
9.646900 3.154500
9.663300 3.166600
9.679600 3.190500
9.695900 3.177900
9.712200 3.152600
9.728500 3.110000
9.744900 3.080100
9.761200 2.991100
9.777500 2.921400
9.793800 2.845400
9.810200 2.773600
9.826500 2.761800
9.842800 2.832400
9.859100 2.757600
9.875500 2.664700
9.891800 2.569800
9.908100 2.504500
9.924400 2.456600
9.940700 2.437100
9.957100 2.449000
9.973400 2.433200
9.989700 2.441500
10.006000 2.459700
10.022400 2.561300
10.038700 2.480400
10.055000 2.433500
10.071300 2.421700
10.087700 2.420000
10.104000 2.442200
10.120300 2.423800
10.136600 2.422100
10.153000 2.423900
10.169300 2.582200
10.185600 2.601200
10.201900 2.469600
10.218200 2.409500
10.234600 2.369200
10.250900 2.330500
10.267200 2.294500
10.283500 2.260900
10.299900 2.231200
10.316200 2.204100
10.332500 2.177200
10.348800 2.155300
10.365200 2.154900
10.381500 2.161800
10.397800 2.160400
10.414100 2.157400
10.430400 2.156700
10.446800 2.168100
10.463100 2.194500
10.479400 2.234800
10.495700 2.326800
10.512100 2.509300
10.528400 2.726700
10.544700 2.814600
10.561000 2.741900
10.577400 2.607500
10.593700 2.514700
10.610000 2.419600
10.626300 2.330600
10.642700 2.239400
10.659000 2.143000
10.675300 2.047500
10.691600 1.972800
10.707900 1.882400
10.724300 1.822500
10.740600 1.761100
10.756900 1.740000
10.773200 1.680500
10.789600 1.612200
10.805900 1.553300
10.822200 1.517000
10.838500 1.474900
10.854900 1.436600
10.871200 1.420700
10.887500 1.419600
10.903800 1.436000
10.920100 1.470500
10.936500 1.522900
10.952800 1.593500
10.969100 1.652900
10.985400 1.737700
11.001800 1.833400
11.018100 1.996300
11.034400 2.146900
11.050700 2.218400
11.067100 2.417800
11.083400 2.499300
11.099700 2.711900
11.116000 2.927800
11.132400 3.061400
11.148700 3.153000
11.165000 3.240000
11.181300 3.331700
11.197600 3.506900
11.214000 3.742400
11.230300 3.895700
11.246600 4.049400
11.262900 3.845400
11.279300 3.838800
11.295600 3.809000
11.311900 3.783500
11.328200 3.746100
11.344600 3.712800
11.360900 3.618700
11.377200 3.519600
11.393500 3.444000
11.409800 3.435400
11.426200 3.405100
11.442500 3.408200
11.458800 3.406200
11.475100 3.422500
11.491500 3.451200
11.507800 3.472200
11.524100 3.517100
11.540400 3.554200
11.556800 3.531000
11.573100 3.496000
11.589400 3.492500
11.605700 3.388600
11.622100 3.318800
11.638400 3.256500
11.654700 3.188900
11.671000 3.118900
11.687300 3.036700
11.703700 2.955800
11.720000 2.913700
11.736300 2.797700
11.752600 2.730000
11.769000 2.669800
11.785300 2.621300
11.801600 2.568000
11.817900 2.554800
11.834300 2.572700
11.850600 2.604200
11.866900 2.598600
11.883200 2.509300
11.899500 2.459400
11.915900 2.405700
11.932200 2.360200
11.948500 2.314700
11.964800 2.275800
11.981200 2.244100
11.997500 2.219200
12.013800 2.216100
12.030100 2.206500
12.046500 2.341700
12.062800 2.232000
12.079100 2.198600
12.095400 2.191700
12.111800 2.190800
12.128100 2.196000
12.144400 2.166400
12.160700 2.135100
12.177000 2.105200
12.193400 2.082200
12.209700 2.063200
12.226000 2.052000
12.242300 2.048300
12.258700 2.045300
12.275000 2.046300
12.291300 2.051100
12.307600 2.099600
12.324000 2.186400
12.340300 2.189900
12.356600 2.209700
12.372900 2.186600
12.389200 2.035200
12.405600 1.984500
12.421900 1.971800
12.438200 1.943900
12.454500 1.932000
12.470900 1.915000
12.487200 1.897800
12.503500 1.881800
12.519800 1.871800
12.536200 1.866900
12.552500 1.866500
12.568800 1.872700
12.585100 1.886000
12.601500 1.910200
12.617800 1.937300
12.634100 2.011100
12.650400 2.058500
12.666700 2.113800
12.683100 2.196800
12.699400 2.290700
12.715700 2.428200
12.732000 2.629700
12.748400 2.539000
12.764700 2.529200
12.781000 2.504000
12.797300 2.365300
12.813700 2.267500
12.830000 2.191300
12.846300 2.133600
12.862600 2.087300
12.879000 2.052400
12.895300 2.024100
12.911600 2.007900
12.927900 2.011700
12.944200 2.015100
12.960600 1.955300
12.976900 1.897300
12.993200 1.894700
13.009500 1.921900
13.025900 1.965700
13.042200 2.016900
13.058500 2.090300
13.074800 2.160800
13.091200 2.136600
13.107500 2.158000
13.123800 2.189500
13.140100 2.144500
13.156400 2.141000
13.172800 2.083600
13.189100 2.084100
13.205400 2.117200
13.221700 2.140000
13.238100 2.172300
13.254400 2.207500
13.270700 2.242100
13.287000 2.295700
13.303400 2.349500
13.319700 2.404700
13.336000 2.455200
13.352300 2.481600
13.368700 2.491900
13.385000 2.520600
13.401300 2.538400
13.417600 2.546000
13.433900 2.540600
13.450300 2.532000
13.466600 2.490600
13.482900 2.489600
13.499200 2.539000
13.515600 2.567200
13.531900 2.616700
13.548200 2.671000
13.564500 2.719200
13.580900 2.706000
13.597200 2.761600
13.613500 2.803700
13.629800 2.859900
13.646100 3.384100
13.662500 3.141600
13.678800 3.247300
13.695100 3.330900
13.711400 3.431700
13.727800 3.510800
13.744100 3.576100
13.760400 3.639600
13.776700 3.683300
13.793100 3.494500
13.809400 3.383100
13.825700 3.288300
13.842000 3.160000
13.858400 3.125300
13.874700 3.108200
13.891000 3.272300
13.907300 3.680200
13.923600 3.186700
13.940000 2.995300
13.956300 3.067900
13.972600 3.047700
13.988900 3.249700
14.005300 3.735500
14.021600 3.350700
14.037900 2.979600
14.054200 2.825300
14.070600 2.839100
14.086900 2.873900
14.103200 2.890900
14.119500 2.912200
14.135800 2.942100
14.152200 2.980000
14.168500 3.002900
14.184800 3.044300
14.201100 3.086800
14.217500 3.132900
14.233800 3.219100
14.250100 3.459600
14.266400 3.606400
14.282800 3.572200
14.299100 3.474500
14.315400 3.436600
14.331700 3.458900
14.348100 3.548500
14.364400 3.649200
14.380700 3.775500
14.397000 3.771100
14.413300 3.765000
14.429700 3.709800
14.446000 3.759200
14.462300 3.718200
14.478600 3.698900
14.495000 3.585300
14.511300 3.534300
14.527600 3.460800
14.543900 3.444300
14.560300 3.488100
14.576600 3.480000
14.592900 3.500500
14.609200 3.457200
14.625500 3.444600
14.641900 3.408800
14.658200 3.398500
14.674500 3.403000
14.690800 3.418200
14.707200 3.478000
14.723500 3.715200
14.739800 3.736400
14.756100 3.612800
14.772500 3.476300
14.788800 3.329000
14.805100 3.283700
14.821400 3.218400
14.837800 3.169700
14.854100 3.086400
14.870400 3.010000
14.886700 2.922500
14.903000 2.789400
14.919400 2.669900
14.935700 2.611500
14.952000 2.605900
14.968300 2.649700
14.984700 2.681400
15.001000 2.709100
15.017300 2.735300
15.033600 2.730600
15.050000 2.838700
15.066300 2.745200
15.082600 2.644400
15.098900 2.590400
15.115200 2.602600
15.131600 2.521600
15.147900 2.568700
15.164200 2.631400
15.180500 2.685000
15.196900 2.699200
15.213200 2.711900
15.229500 2.728200
15.245800 2.821100
15.262200 2.928100
15.278500 3.101300
15.294800 3.161600
15.311100 3.235300
15.327500 3.287700
15.343800 3.319300
15.360100 3.339300
15.376400 3.352400
15.392700 3.365700
15.409100 3.380800
15.425400 3.401100
15.441700 3.456300
15.458000 3.467600
15.474400 3.474800
15.490700 3.536700
15.507000 3.566800
15.523300 3.533200
15.539700 3.521000
15.556000 3.525900
15.572300 3.546000
15.588600 3.472600
15.604900 3.477000
15.621300 3.478200
15.637600 3.509800
15.653900 3.526300
15.670200 3.547600
15.686600 3.599100
15.702900 3.699000
15.719200 3.584800
15.735500 3.519400
15.751900 3.519900
15.768200 3.533900
15.784500 3.552900
15.800800 3.623700
15.817200 3.657900
15.833500 3.686600
15.849800 3.697300
15.866100 3.713500
15.882400 3.728900
15.898800 3.735100
15.915100 3.740200
15.931400 3.739700
15.947700 3.683000
15.964100 3.603500
15.980400 3.525500
15.996700 3.450200
16.013000 3.413100
16.029400 3.388400
16.045700 3.389700
16.062000 3.412500
16.078300 3.349900
16.094700 3.327600
16.111000 3.322500
16.127300 3.317200
16.143600 3.314700
16.159900 3.331200
16.176300 3.343400
16.192600 3.375100
16.208900 3.367900
16.225200 3.378300
16.241600 3.393100
16.257900 3.426200
16.274200 3.413600
16.290500 3.380500
16.306900 3.344500
16.323200 3.324600
16.339500 3.318700
16.355800 3.293700
16.372100 3.296000
16.388500 3.297800
16.404800 3.284300
16.421100 3.346600
16.437400 3.424900
16.453800 3.439300
16.470100 3.492600
16.486400 3.565600
16.502700 3.662200
16.519100 3.460600
16.535400 3.427800
16.551700 3.472600
16.568000 3.252300
16.584400 3.237900
16.600700 3.231200
16.617000 3.243400
16.633300 3.306300
16.649600 3.386500
16.666000 3.426700
16.682300 3.427800
16.698600 3.423700
16.714900 3.463300
16.731300 3.515600
16.747600 3.524700
16.763900 3.546400
16.780200 3.554200
16.796600 3.555300
16.812900 3.553400
16.829200 3.538800
16.845500 3.573400
16.861800 3.612400
16.878200 3.591700
16.894500 3.593800
16.910800 3.622100
16.927100 3.491900
16.943500 3.404900
16.959800 3.360100
16.976100 3.343300
16.992400 3.281600
17.008800 3.280800
17.025100 3.277600
17.041400 3.253200
17.057700 3.248700
17.074100 3.319100
17.090400 3.275600
17.106700 3.265000
17.123000 3.263700
17.139300 3.386500
17.155700 3.288000
17.172000 3.257100
17.188300 3.266300
17.204600 3.281500
17.221000 3.293600
17.237300 3.323000
17.253600 3.304900
17.269900 3.278900
17.286300 3.285200
17.302600 3.329100
17.318900 3.376400
17.335200 3.450600
17.351500 3.544600
17.367900 3.613300
17.384200 3.668400
17.400500 3.738100
17.416800 3.748400
17.433200 3.768700
17.449500 3.807500
17.465800 3.889600
17.482100 3.813000
17.498500 3.745400
17.514800 3.624400
17.531100 3.539400
17.547400 3.445400
17.563800 3.388700
17.580100 3.355000
17.596400 3.350800
17.612700 3.393700
17.629000 3.471900
17.645400 3.569000
17.661700 3.647200
17.678000 3.732000
17.694300 3.848000
17.710700 3.949100
17.727000 4.007100
17.743300 4.043100
17.759600 4.059600
17.776000 4.140600
17.792300 4.426400
17.808600 4.511700
17.824900 4.544400
17.841200 4.498200
17.857600 4.391300
17.873900 4.291600
17.890200 4.254500
17.906500 4.325200
17.922900 4.360100
17.939200 4.429500
17.955500 4.424600
17.971800 4.433700
17.988200 4.279500
18.004500 4.096700
18.020800 3.900100
18.037100 3.768100
18.053500 3.670000
18.069800 3.593700
18.086100 3.518500
18.102400 3.465700
18.118700 3.420100
18.135100 3.381500
18.151400 3.321200
18.167700 3.223800
18.184000 3.183400
18.200400 3.222200
18.216700 3.274300
18.233000 3.319200
18.249300 3.399100
18.265700 3.443400
18.282000 3.438800
18.298300 3.419900
18.314600 3.409700
18.330900 3.404100
18.347300 3.512400
18.363600 3.625400
18.379900 3.754800
18.396200 3.912200
18.412600 4.036500
18.428900 4.096100
18.445200 4.073400
18.461500 4.057200
18.477900 3.999600
18.494200 3.974600
18.510500 3.913000
18.526800 3.792900
18.543200 3.684200
18.559500 3.521200
18.575800 3.401600
18.592100 3.512100
18.608400 3.350800
18.624800 3.260300
18.641100 3.194500
18.657400 3.117100
18.673700 3.066800
18.690100 3.076400
18.706400 3.180500
18.722700 3.317700
18.739000 3.512400
18.755400 3.613300
18.771700 3.684000
18.788000 3.880200
18.804300 3.876500
18.820600 3.798600
18.837000 3.721400
18.853300 3.754800
18.869600 3.519900
18.885900 3.438300
18.902300 3.310200
18.918600 3.062900
18.934900 3.017000
18.951200 3.066900
18.967600 3.110100
18.983900 3.091400
19.000200 3.096700
19.016500 3.084300
19.032900 3.134300
19.049200 3.004700
19.065500 3.085800
19.081800 2.993200
19.098100 2.908400
19.114500 2.853600
19.130800 2.829700
19.147100 2.824800
19.163400 2.826000
19.179800 2.857600
19.196100 2.907300
19.212400 2.968800
19.228700 3.042400
19.245100 3.194700
19.261400 3.219800
19.277700 3.216700
19.294000 3.257100
19.310400 3.294400
19.326700 3.308300
19.343000 3.320700
19.359300 3.421100
19.375600 3.445300
19.392000 3.445300
19.408300 3.392600
19.424600 3.340700
19.440900 3.347700
19.457300 3.254500
19.473600 3.286200
19.489900 3.364300
19.506200 3.509800
19.522600 3.686700
19.538900 3.877000
19.555200 3.998900
19.571500 4.094700
19.587800 4.169600
19.604200 4.248000
19.620500 4.296900
19.636800 4.259700
19.653100 4.184200
19.669500 4.164800
19.685800 4.101300
19.702100 4.080600
19.718400 4.038300
19.734800 3.971600
19.751100 3.954300
19.767400 4.000600
19.783700 4.030200
19.800100 3.892000
19.816400 3.777000
19.832700 3.688400
19.849000 3.641600
19.865300 3.616700
19.881700 3.599300
19.898000 3.589700
19.914300 3.551300
19.930600 3.514200
19.947000 3.494000
19.963300 3.511500
19.979600 3.546500
19.995900 3.503800
20.012300 3.448300
20.028600 3.482100
20.044900 3.527300
20.061200 3.566600
20.077500 3.588900
20.093900 3.566800
20.110200 3.490800
20.126500 3.521200
20.142800 3.505400
20.159200 3.459900
20.175500 3.384300
20.191800 3.337500
20.208100 3.278600
20.224500 3.224600
20.240800 3.162100
20.257100 3.050800
20.273400 2.919900
20.289800 2.772700
20.306100 2.652400
20.322400 2.552600
20.338700 2.480300
20.355000 2.409600
20.371400 2.342100
20.387700 2.279600
20.404000 2.253700
20.420300 2.214600
20.436700 2.190700
20.453000 2.200900
20.469300 2.108200
20.485600 2.022700
20.502000 1.994200
20.518300 1.830700
20.534600 1.719300
20.550900 1.619500
20.567200 1.522100
20.583600 1.427400
20.599900 1.349900
20.616200 1.259900
20.632500 1.180500
20.648900 1.122000
20.665200 1.057700
20.681500 0.992400
20.697800 0.935800
20.714200 0.906400
20.730500 0.868700
20.746800 0.805500
20.763100 0.754700
20.779500 0.714800
20.795800 0.678200
20.812100 0.645300
20.828400 0.615500
20.844700 0.588800
20.861100 0.565100
20.877400 0.685900
20.893700 0.527100
20.910000 0.512100
20.926400 0.491900
20.942700 0.469100
20.959000 0.448100
20.975300 0.433900
20.991700 0.425600
21.008000 0.428100
21.024300 0.423000
21.040600 0.417600
21.056900 0.412300
21.073300 0.373100
21.089600 0.362400
21.105900 0.350300
21.122200 0.336300
21.138600 0.320100
21.154900 0.286900
21.171200 0.276200
21.187500 0.265700
21.203900 0.255500
21.220200 0.245900
21.236500 0.238000
21.252800 0.228800
21.269200 0.219600
21.285500 0.208000
21.301800 0.198800
21.318100 0.193500
21.334400 0.187300
21.350800 0.179300
21.367100 0.169400
21.383400 0.168400
21.399700 0.250600
21.416100 0.142600
21.432400 0.112900
21.448700 0.084400
21.465000 0.056900
21.481400 0.030600
21.497700 0.009000
21.514000 0.002600
21.530300 0.002100
21.546600 0.001600
21.563000 0.001300
21.579300 0.000900
21.595600 0.000700
21.611900 0.000400
21.628300 0.000200
21.644600 0.000100
21.660900 0.000000
21.677200 0.000000
21.693600 0.000000
21.709900 0.000000
21.726200 0.000000
21.742500 0.000000
21.758900 0.000000
21.775200 0.000000
21.791500 0.000000
21.807800 0.000000
21.824100 0.000000
21.840500 0.000000
21.856800 0.000000
21.873100 0.000000
21.889400 0.000000
21.905800 0.000000
21.922100 0.000000
21.938400 0.000000
21.954700 0.000000
21.971100 0.000000
21.987400 0.000000
22.003700 0.000000
22.020000 0.000000
22.036300 0.000000
22.052700 0.000000
22.069000 0.000000
22.085300 0.000000
22.101600 0.000000
22.118000 0.000000
22.134300 0.000000
22.150600 0.000000
22.166900 0.000000
22.183300 0.000000
22.199600 0.000000
22.215900 0.000000
22.232200 0.000000
22.248600 0.000000
22.264900 0.000000
22.281200 0.000000
22.297500 0.000000
22.313800 0.000000
22.330200 0.000000
22.346500 0.000000
22.362800 0.000000
22.379100 0.000000
22.395500 0.000000
22.411800 0.000000
22.428100 0.000000
22.444400 0.000000
22.460800 0.000000
22.477100 0.000000
22.493400 0.000000
22.509700 0.000000
22.526100 0.000000
22.542400 0.000000
22.558700 0.000000
22.575000 0.000000
22.591300 0.000000
22.607700 0.000000
22.624000 0.000000
22.640300 0.000000
22.656600 0.000000
22.673000 0.000000
22.689300 0.000000
22.705600 0.000000
22.721900 0.000000
22.738300 0.000000
22.754600 0.000000
22.770900 0.000000
22.787200 0.000000
22.803500 0.000000
22.819900 0.000000
22.836200 0.000000
22.852500 0.000000
22.868800 0.000000
22.885200 0.000000
22.901500 0.000000
22.917800 0.000000
22.934100 0.000000
22.950500 0.000000
22.966800 0.000000
22.983100 0.000000
22.999400 0.000000
23.015800 0.000000
23.032100 0.000000
23.048400 0.000000
23.064700 0.000000
23.081000 0.000000
23.097400 0.000000
23.113700 0.000000
23.130000 0.000000
23.146300 0.000000
23.162700 0.000000
e
