set title 'mp-973498 - Density of States'
set xlabel 'Energy (eV)'
set ylabel 'DOS (states/eV)'
set grid
set xrange [-10:10]
set yrange [0:79.352]
set xzeroaxis lt -1
set terminal png size 800,600
set output 'mp-973498_dos_gnuplot.png'
plot '-' using 1:2 with lines title 'DOS'
-9.792800 0.000000
-9.772900 0.000000
-9.753000 0.000000
-9.733000 0.000000
-9.713100 0.000000
-9.693200 0.000000
-9.673200 0.000000
-9.653300 0.000000
-9.633300 0.000000
-9.613400 0.000000
-9.593500 0.000000
-9.573500 0.000000
-9.553600 0.000000
-9.533700 0.000000
-9.513700 0.000000
-9.493800 0.000000
-9.473900 0.000000
-9.453900 0.000000
-9.434000 0.000000
-9.414100 0.000000
-9.394100 0.000000
-9.374200 0.000000
-9.354200 0.000000
-9.334300 0.000000
-9.314400 0.000000
-9.294400 0.000000
-9.274500 0.000000
-9.254600 0.000000
-9.234600 0.000000
-9.214700 0.000000
-9.194800 0.000000
-9.174800 0.000000
-9.154900 0.000000
-9.134900 0.000000
-9.115000 0.000000
-9.095100 0.000000
-9.075100 0.000000
-9.055200 0.000000
-9.035300 0.000000
-9.015300 0.000000
-8.995400 0.000000
-8.975500 0.000000
-8.955500 0.000000
-8.935600 0.000000
-8.915700 0.000000
-8.895700 0.000000
-8.875800 0.000000
-8.855800 0.000000
-8.835900 0.000000
-8.816000 0.000000
-8.796000 0.000000
-8.776100 0.000000
-8.756200 0.000000
-8.736200 0.000000
-8.716300 0.000000
-8.696400 0.000000
-8.676400 0.000000
-8.656500 0.000000
-8.636600 0.000000
-8.616600 0.000000
-8.596700 0.000000
-8.576700 0.000000
-8.556800 0.000000
-8.536900 0.000000
-8.516900 0.000000
-8.497000 0.000000
-8.477100 0.000000
-8.457100 0.000000
-8.437200 0.000000
-8.417300 0.000000
-8.397300 0.000000
-8.377400 0.000000
-8.357500 0.000000
-8.337500 0.000000
-8.317600 0.000000
-8.297600 0.000000
-8.277700 0.000000
-8.257800 0.000000
-8.237800 0.000000
-8.217900 0.000000
-8.198000 0.000000
-8.178000 0.000000
-8.158100 0.000000
-8.138200 0.000000
-8.118200 0.000000
-8.098300 0.000400
-8.078400 0.003200
-8.058400 0.018900
-8.038500 0.084300
-8.018500 0.288700
-7.998600 0.768800
-7.978700 1.633000
-7.958700 2.882700
-7.938800 4.492300
-7.918900 6.658400
-7.898900 9.984100
-7.879000 15.300200
-7.859100 23.059800
-7.839100 32.710900
-7.819200 42.535400
-7.799300 50.206500
-7.779300 54.186300
-7.759400 55.051400
-7.739400 55.048600
-7.719500 56.110600
-7.699600 58.559900
-7.679600 61.444100
-7.659700 63.531800
-7.639800 64.316100
-7.619800 64.633200
-7.599900 65.910800
-7.580000 68.483900
-7.560000 71.103400
-7.540100 72.138500
-7.520100 70.905100
-7.500200 68.077600
-7.480300 65.008100
-7.460300 62.205500
-7.440400 58.388400
-7.420500 51.611000
-7.400500 41.568600
-7.380600 30.294500
-7.360700 20.392200
-7.340700 13.145700
-7.320800 8.403000
-7.300900 5.457400
-7.280900 3.606900
-7.261000 2.317600
-7.241000 1.333300
-7.221100 0.637400
-7.201200 0.241800
-7.181200 0.071100
-7.161300 0.016000
-7.141400 0.002700
-7.121400 0.000400
-7.101500 0.000000
-7.081600 0.000000
-7.061600 0.000000
-7.041700 0.000000
-7.021800 0.000000
-7.001800 0.000000
-6.981900 0.000000
-6.961900 0.000000
-6.942000 0.000000
-6.922100 0.000000
-6.902100 0.000000
-6.882200 0.000000
-6.862300 0.000000
-6.842300 0.000000
-6.822400 0.000000
-6.802500 0.000000
-6.782500 0.000000
-6.762600 0.000000
-6.742700 0.000000
-6.722700 0.000000
-6.702800 0.000000
-6.682800 0.000000
-6.662900 0.000000
-6.643000 0.000000
-6.623000 0.000000
-6.603100 0.000000
-6.583200 0.000000
-6.563200 0.000000
-6.543300 0.000000
-6.523400 0.000000
-6.503400 0.000000
-6.483500 0.000000
-6.463600 0.000000
-6.443600 0.000000
-6.423700 0.000000
-6.403700 0.000000
-6.383800 0.000000
-6.363900 0.000000
-6.343900 0.000000
-6.324000 0.000000
-6.304100 0.000000
-6.284100 0.000000
-6.264200 0.000000
-6.244300 0.000000
-6.224300 0.000000
-6.204400 0.000000
-6.184500 0.000000
-6.164500 0.000000
-6.144600 0.000000
-6.124600 0.000000
-6.104700 0.000000
-6.084800 0.000000
-6.064800 0.000000
-6.044900 0.000000
-6.025000 0.000000
-6.005000 0.000000
-5.985100 0.000000
-5.965200 0.000000
-5.945200 0.000000
-5.925300 0.000000
-5.905300 0.000000
-5.885400 0.000000
-5.865500 0.000000
-5.845500 0.000000
-5.825600 0.000000
-5.805700 0.000000
-5.785700 0.000000
-5.765800 0.000000
-5.745900 0.000000
-5.725900 0.000000
-5.706000 0.000000
-5.686100 0.000000
-5.666100 0.000000
-5.646200 0.000000
-5.626200 0.000000
-5.606300 0.000000
-5.586400 0.000000
-5.566400 0.000000
-5.546500 0.000000
-5.526600 0.000000
-5.506600 0.000000
-5.486700 0.000000
-5.466800 0.000000
-5.446800 0.000000
-5.426900 0.000000
-5.407000 0.000000
-5.387000 0.000000
-5.367100 0.000000
-5.347100 0.000000
-5.327200 0.000000
-5.307300 0.000000
-5.287300 0.000000
-5.267400 0.000000
-5.247500 0.000000
-5.227500 0.000000
-5.207600 0.000000
-5.187700 0.000000
-5.167700 0.000000
-5.147800 0.000000
-5.127900 0.000000
-5.107900 0.000000
-5.088000 0.000000
-5.068000 0.000000
-5.048100 0.000000
-5.028200 0.000000
-5.008200 0.000000
-4.988300 0.000000
-4.968400 0.000000
-4.948400 0.000000
-4.928500 0.000000
-4.908600 0.000000
-4.888600 0.000000
-4.868700 0.000000
-4.848800 0.000000
-4.828800 0.000000
-4.808900 0.000000
-4.788900 0.000000
-4.769000 0.000000
-4.749100 0.000000
-4.729100 0.000000
-4.709200 0.000000
-4.689300 0.000000
-4.669300 0.000000
-4.649400 0.000000
-4.629500 0.000000
-4.609500 0.000000
-4.589600 0.000000
-4.569700 0.000000
-4.549700 0.000000
-4.529800 0.000000
-4.509800 0.000000
-4.489900 0.000000
-4.470000 0.000000
-4.450000 0.000000
-4.430100 0.000000
-4.410200 0.000000
-4.390200 0.000000
-4.370300 0.000000
-4.350400 0.000000
-4.330400 0.000000
-4.310500 0.000000
-4.290500 0.000000
-4.270600 0.000000
-4.250700 0.000000
-4.230700 0.000000
-4.210800 0.000000
-4.190900 0.000000
-4.170900 0.000000
-4.151000 0.000000
-4.131100 0.000000
-4.111100 0.000000
-4.091200 0.000000
-4.071300 0.000000
-4.051300 0.000000
-4.031400 0.000000
-4.011400 0.000000
-3.991500 0.000000
-3.971600 0.000000
-3.951600 0.000000
-3.931700 0.000000
-3.911800 0.000000
-3.891800 0.000000
-3.871900 0.000000
-3.852000 0.000000
-3.832000 0.000000
-3.812100 0.000000
-3.792200 0.000000
-3.772200 0.000000
-3.752300 0.000000
-3.732300 0.000000
-3.712400 0.000000
-3.692500 0.000000
-3.672500 0.000000
-3.652600 0.000000
-3.632700 0.000000
-3.612700 0.000000
-3.592800 0.000000
-3.572900 0.000000
-3.552900 0.000000
-3.533000 0.000000
-3.513100 0.000000
-3.493100 0.000000
-3.473200 0.000000
-3.453200 0.000000
-3.433300 0.000000
-3.413400 0.000000
-3.393400 0.000000
-3.373500 0.000000
-3.353600 0.000000
-3.333600 0.000000
-3.313700 0.000000
-3.293800 0.000000
-3.273800 0.000000
-3.253900 0.000000
-3.234000 0.000000
-3.214000 0.000000
-3.194100 0.000000
-3.174100 0.000000
-3.154200 0.000000
-3.134300 0.000000
-3.114300 0.000000
-3.094400 0.000000
-3.074500 0.000000
-3.054500 0.000000
-3.034600 0.000000
-3.014700 0.000000
-2.994700 0.000000
-2.974800 0.000000
-2.954900 0.000000
-2.934900 0.000000
-2.915000 0.000000
-2.895000 0.000000
-2.875100 0.000000
-2.855200 0.000000
-2.835200 0.000000
-2.815300 0.000000
-2.795400 0.000000
-2.775400 0.000000
-2.755500 0.000000
-2.735600 0.000000
-2.715600 0.000000
-2.695700 0.000000
-2.675700 0.000000
-2.655800 0.000000
-2.635900 0.000000
-2.615900 0.000000
-2.596000 0.000000
-2.576100 0.000200
-2.556100 0.001000
-2.536200 0.004000
-2.516300 0.011800
-2.496300 0.026000
-2.476400 0.044300
-2.456500 0.062600
-2.436500 0.080500
-2.416600 0.101200
-2.396600 0.126800
-2.376700 0.164600
-2.356800 0.229000
-2.336800 0.313000
-2.316900 0.370800
-2.297000 0.354300
-2.277000 0.265900
-2.257100 0.156800
-2.237200 0.081900
-2.217200 0.069700
-2.197300 0.128200
-2.177400 0.249000
-2.157400 0.393700
-2.137500 0.497900
-2.117500 0.516800
-2.097600 0.467700
-2.077700 0.410700
-2.057700 0.395800
-2.037800 0.443000
-2.017900 0.531300
-1.997900 0.583900
-1.978000 0.523100
-1.958100 0.367500
-1.938100 0.220700
-1.918200 0.159100
-1.898300 0.173000
-1.878300 0.209700
-1.858400 0.252200
-1.838400 0.341800
-1.818500 0.506500
-1.798600 0.681300
-1.778600 0.754600
-1.758700 0.696200
-1.738800 0.587300
-1.718800 0.524700
-1.698900 0.550000
-1.679000 0.644300
-1.659000 0.730900
-1.639100 0.712700
-1.619200 0.560300
-1.599200 0.347700
-1.579300 0.185300
-1.559300 0.141000
-1.539400 0.229800
-1.519500 0.428500
-1.499500 0.675100
-1.479600 0.880300
-1.459700 0.969600
-1.439700 0.927200
-1.419800 0.805500
-1.399900 0.685400
-1.379900 0.624600
-1.360000 0.636200
-1.340100 0.681400
-1.320100 0.687400
-1.300200 0.613400
-1.280200 0.501000
-1.260300 0.429500
-1.240400 0.419200
-1.220400 0.420900
-1.200500 0.418300
-1.180600 0.473500
-1.160600 0.622000
-1.140700 0.775900
-1.120800 0.805600
-1.100800 0.695100
-1.080900 0.560600
-1.060900 0.545100
-1.041000 0.722000
-1.021100 1.029300
-1.001100 1.270900
-0.981200 1.257600
-0.961300 0.980500
-0.941300 0.614800
-0.921400 0.362800
-0.901500 0.336700
-0.881500 0.560200
-0.861600 0.983800
-0.841700 1.446800
-0.821700 1.696600
-0.801800 1.571000
-0.781800 1.171900
-0.761900 0.771700
-0.742000 0.559000
-0.722000 0.533700
-0.702100 0.579300
-0.682200 0.573300
-0.662200 0.479800
-0.642300 0.371700
-0.622400 0.336400
-0.602400 0.369300
-0.582500 0.395600
-0.562600 0.387900
-0.542600 0.407800
-0.522700 0.513700
-0.502700 0.677900
-0.482800 0.833000
-0.462900 0.958800
-0.442900 1.089800
-0.423000 1.274400
-0.403100 1.526500
-0.383100 1.755300
-0.363200 1.776600
-0.343300 1.494600
-0.323300 1.033300
-0.303400 0.620900
-0.283500 0.411100
-0.263500 0.446500
-0.243600 0.677200
-0.223600 0.951000
-0.203700 1.083300
-0.183800 1.016300
-0.163800 0.865700
-0.143900 0.793500
-0.124000 0.891200
-0.104000 1.140500
-0.084100 1.389100
-0.064200 1.437600
-0.044200 1.238200
-0.024300 0.937800
-0.004400 0.714400
0.015600 0.659200
0.035500 0.781400
0.055500 1.022400
0.075400 1.256200
0.095300 1.342600
0.115300 1.230800
0.135200 1.006200
0.155100 0.821700
0.175100 0.775500
0.195000 0.835300
0.214900 0.876300
0.234900 0.812700
0.254800 0.691300
0.274700 0.645000
0.294700 0.749200
0.314600 0.934400
0.334600 1.079500
0.354500 1.179900
0.374400 1.335700
0.394400 1.576300
0.414300 1.809200
0.434200 1.929700
0.454200 1.896600
0.474100 1.738600
0.494000 1.529800
0.514000 1.315800
0.533900 1.090700
0.553900 0.886400
0.573800 0.798700
0.593700 0.872400
0.613700 1.034400
0.633600 1.172600
0.653500 1.253200
0.673500 1.336800
0.693400 1.481200
0.713300 1.668800
0.733300 1.845600
0.753200 1.961100
0.773100 1.934000
0.793100 1.679600
0.813000 1.250700
0.833000 0.862400
0.852900 0.705200
0.872800 0.795900
0.892800 1.021500
0.912700 1.270600
0.932600 1.508700
0.952600 1.729500
0.972500 1.869600
0.992400 1.839800
1.012400 1.620500
1.032300 1.274300
1.052200 0.907000
1.072200 0.638000
1.092100 0.554300
1.112100 0.661100
1.132000 0.874700
1.151900 1.067400
1.171900 1.149000
1.191800 1.136100
1.211700 1.122100
1.231700 1.171700
1.251600 1.277700
1.271500 1.390900
1.291500 1.445900
1.311400 1.390700
1.331300 1.245000
1.351300 1.122100
1.371200 1.147700
1.391200 1.346700
1.411100 1.646400
1.431000 1.948200
1.451000 2.123000
1.470900 2.036500
1.490800 1.704000
1.510800 1.338100
1.530700 1.150000
1.550600 1.161000
1.570600 1.241100
1.590500 1.280700
1.610400 1.293900
1.630400 1.358200
1.650300 1.488400
1.670300 1.622000
1.690200 1.740300
1.710100 1.973000
1.730100 2.487400
1.750000 3.203900
1.769900 3.740900
1.789900 3.783700
1.809800 3.406500
1.829700 2.911700
1.849700 2.491400
1.869600 2.134300
1.889500 1.764500
1.909500 1.423000
1.929400 1.309900
1.949400 1.603300
1.969300 2.234900
1.989200 2.909400
2.009200 3.350100
2.029100 3.465000
2.049000 3.286300
2.069000 2.865500
2.088900 2.291200
2.108800 1.724800
2.128800 1.312200
2.148700 1.097600
2.168700 1.074900
2.188600 1.262600
2.208500 1.660800
2.228500 2.162800
2.248400 2.585100
2.268300 2.815900
2.288300 2.905200
2.308200 2.977600
2.328100 3.075900
2.348100 3.156800
2.368000 3.192900
2.387900 3.139500
2.407900 2.903600
2.427800 2.513600
2.447800 2.174400
2.467700 2.053000
2.487600 2.169700
2.507600 2.510400
2.527500 3.039400
2.547400 3.609400
2.567400 4.072800
2.587300 4.483100
2.607200 5.014400
2.627200 5.718700
2.647100 6.490500
2.667000 7.217300
2.687000 7.882000
2.706900 8.487600
2.726900 8.896100
2.746800 8.862300
2.766700 8.317800
2.786700 7.570000
2.806600 7.171400
2.826500 7.563800
2.846500 8.780000
2.866400 10.516800
2.886300 12.529200
2.906300 14.797900
2.926200 17.245800
2.946100 19.502100
2.966100 21.007000
2.986000 21.203600
3.006000 19.783700
3.025900 17.003300
3.045800 13.640000
3.065800 10.504200
3.085700 8.029100
3.105600 6.247600
3.125600 5.014100
3.145500 4.203800
3.165400 3.723700
3.185400 3.467800
3.205300 3.362800
3.225200 3.392700
3.245200 3.532400
3.265100 3.772300
3.285100 4.245500
3.305000 5.103100
3.324900 6.140600
3.344900 6.811100
3.364800 6.745700
3.384700 6.065500
3.404700 5.164600
3.424600 4.379900
3.444500 3.845200
3.464500 3.503400
3.484400 3.230200
3.504300 2.962100
3.524300 2.715200
3.544200 2.554700
3.564200 2.563700
3.584100 2.750700
3.604000 2.972800
3.624000 3.019400
3.643900 2.798700
3.663800 2.446200
3.683800 2.244300
3.703700 2.380700
3.723600 2.740900
3.743600 2.988100
3.763500 2.912400
3.783500 2.634100
3.803400 2.400300
3.823300 2.296900
3.843300 2.245300
3.863200 2.177700
3.883100 2.107900
3.903100 2.050100
3.923000 1.959400
3.942900 1.790500
3.962900 1.592900
3.982800 1.504500
4.002700 1.604700
4.022700 1.810400
4.042600 1.997200
4.062600 2.163100
4.082500 2.370800
4.102400 2.582600
4.122400 2.678700
4.142300 2.611800
4.162200 2.454300
4.182200 2.315900
4.202100 2.271400
4.222000 2.314600
4.242000 2.336600
4.261900 2.202000
4.281800 1.898500
4.301800 1.582700
4.321700 1.439300
4.341700 1.518400
4.361600 1.731800
4.381500 1.949400
4.401500 2.063400
4.421400 2.023500
4.441300 1.882000
4.461300 1.770500
4.481200 1.761200
4.501100 1.762200
4.521100 1.619000
4.541000 1.313000
4.560900 0.986700
4.580900 0.777800
4.600800 0.715400
4.620800 0.789100
4.640700 1.029300
4.660600 1.438400
4.680600 1.871100
4.700500 2.089600
4.720400 2.001300
4.740400 1.750000
4.760300 1.533600
4.780200 1.460800
4.800200 1.582200
4.820100 1.873100
4.840000 2.176500
4.860000 2.311700
4.879900 2.233500
4.899900 2.006700
4.919800 1.705500
4.939700 1.423500
4.959700 1.304200
4.979600 1.446200
4.999500 1.776800
5.019500 2.081900
5.039400 2.193300
5.059300 2.103100
5.079300 1.886700
5.099200 1.631300
5.119100 1.473900
5.139100 1.569800
5.159000 1.942500
5.179000 2.409800
5.198900 2.695200
5.218800 2.627800
5.238800 2.268200
5.258700 1.860600
5.278600 1.638100
5.298600 1.658900
5.318500 1.840100
5.338400 2.094800
5.358400 2.338000
5.378300 2.416400
5.398300 2.216800
5.418200 1.845100
5.438100 1.548600
5.458100 1.461300
5.478000 1.511800
5.497900 1.545700
5.517900 1.481100
5.537800 1.387500
5.557700 1.431100
5.577700 1.694700
5.597600 2.077600
5.617500 2.417300
5.637500 2.613800
5.657400 2.615500
5.677400 2.437400
5.697300 2.197900
5.717200 2.000400
5.737200 1.831000
5.757100 1.679300
5.777000 1.655400
5.797000 1.845700
5.816900 2.125600
5.836800 2.263400
5.856800 2.179100
5.876700 1.983600
5.896600 1.801700
5.916600 1.664400
5.936500 1.543400
5.956500 1.399800
5.976400 1.217700
5.996300 1.036200
6.016300 0.928900
6.036200 0.926000
6.056100 0.968200
6.076100 0.977100
6.096000 0.967200
6.115900 1.016000
6.135900 1.126900
6.155800 1.202100
6.175700 1.159400
6.195700 1.035300
6.215600 0.952700
6.235600 1.006400
6.255500 1.212100
6.275400 1.520500
6.295400 1.799100
6.315300 1.873100
6.335200 1.709000
6.355200 1.493500
6.375100 1.401600
6.395000 1.383600
6.415000 1.308400
6.434900 1.208800
6.454800 1.229900
6.474800 1.402500
6.494700 1.599000
6.514700 1.715700
6.534600 1.806200
6.554500 1.983300
6.574500 2.246300
6.594400 2.473000
6.614300 2.548300
6.634300 2.450800
6.654200 2.243400
6.674100 2.010600
6.694100 1.804600
6.714000 1.658300
6.733900 1.630500
6.753900 1.770300
6.773800 2.011200
6.793800 2.187300
6.813700 2.217000
6.833600 2.187700
6.853600 2.197700
6.873500 2.215800
6.893400 2.163000
6.913400 2.034500
6.933300 1.872400
6.953200 1.695500
6.973200 1.517900
6.993100 1.368900
7.013100 1.236800
7.033000 1.059800
7.052900 0.843200
7.072900 0.728100
7.092800 0.871600
7.112700 1.263100
7.132700 1.709000
7.152600 2.005800
7.172500 2.070900
7.192500 1.905900
7.212400 1.561600
7.232300 1.193300
7.252300 1.025900
7.272200 1.172500
7.292200 1.519300
7.312100 1.841000
7.332000 2.016000
7.352000 2.071800
7.371900 2.063400
7.391800 2.035100
7.411800 2.068900
7.431700 2.229100
7.451600 2.448100
7.471600 2.552100
7.491500 2.419500
7.511400 2.084900
7.531400 1.699900
7.551300 1.423300
7.571300 1.316700
7.591200 1.304200
7.611100 1.258600
7.631100 1.150900
7.651000 1.083700
7.670900 1.171200
7.690900 1.400000
7.710800 1.613100
7.730700 1.649600
7.750700 1.501200
7.770600 1.320200
7.790500 1.285800
7.810500 1.482600
7.830400 1.881400
7.850400 2.344800
7.870300 2.652800
7.890200 2.658500
7.910200 2.437800
7.930100 2.216000
7.950000 2.184600
7.970000 2.370800
7.989900 2.606700
8.009800 2.694600
8.029800 2.632400
8.049700 2.563300
8.069600 2.525200
8.089600 2.404700
8.109500 2.139200
8.129500 1.821000
8.149400 1.567700
8.169300 1.391100
8.189300 1.229000
8.209200 1.044200
8.229100 0.872900
8.249100 0.809200
8.269000 0.946500
8.288900 1.304000
8.308900 1.783000
8.328800 2.180200
8.348700 2.278800
8.368700 2.008200
8.388600 1.540000
8.408600 1.170700
8.428500 1.073900
8.448400 1.185800
8.468400 1.325800
8.488300 1.387200
8.508200 1.386200
8.528200 1.362800
8.548100 1.312500
8.568000 1.232300
8.588000 1.168300
8.607900 1.174700
8.627900 1.255500
8.647800 1.358900
8.667700 1.424100
8.687700 1.468600
8.707600 1.612800
8.727500 1.943400
8.747500 2.347900
8.767400 2.573200
8.787300 2.502100
8.807300 2.313000
8.827200 2.282000
8.847100 2.454200
8.867100 2.617700
8.887000 2.562100
8.907000 2.252300
8.926900 1.817500
8.946800 1.449200
8.966800 1.247600
8.986700 1.177200
9.006600 1.194500
9.026600 1.309600
9.046500 1.479400
9.066400 1.582600
9.086400 1.581800
9.106300 1.585500
9.126200 1.672100
9.146200 1.783000
9.166100 1.844800
9.186100 1.875000
9.206000 1.916200
9.225900 1.937500
9.245900 1.882700
9.265800 1.803800
9.285700 1.818900
9.305700 1.931800
9.325600 2.038400
9.345500 2.096400
9.365500 2.154700
9.385400 2.240900
9.405300 2.346700
9.425300 2.488900
9.445200 2.652700
9.465200 2.728300
9.485100 2.649600
9.505000 2.504800
9.525000 2.392100
9.544900 2.284800
9.564800 2.136000
9.584800 1.990200
9.604700 1.914900
9.624600 1.922800
9.644600 1.979600
9.664500 2.004900
9.684400 1.908600
9.704400 1.701800
9.724300 1.512600
9.744300 1.472800
9.764200 1.652800
9.784100 2.042500
9.804100 2.498800
9.824000 2.773900
9.843900 2.696300
9.863900 2.321900
9.883800 1.857500
9.903700 1.447600
9.923700 1.105000
9.943600 0.832500
9.963500 0.693000
9.983500 0.747900
10.003400 0.990100
10.023400 1.323900
10.043300 1.603700
10.063200 1.745400
10.083200 1.800500
10.103100 1.875400
10.123000 1.991300
10.143000 2.064300
10.162900 1.999200
10.182800 1.765400
10.202800 1.434300
10.222700 1.179400
10.242700 1.167000
10.262600 1.399900
10.282500 1.707000
10.302500 1.930500
10.322400 2.093700
10.342300 2.330100
10.362300 2.689700
10.382200 3.075100
10.402100 3.302800
10.422100 3.202200
10.442000 2.760400
10.461900 2.200900
10.481900 1.831500
10.501800 1.798900
10.521800 2.029900
10.541700 2.355900
10.561600 2.627900
10.581600 2.755800
10.601500 2.724300
10.621400 2.587100
10.641400 2.423500
10.661300 2.288800
10.681200 2.206800
10.701200 2.212300
10.721100 2.339700
10.741000 2.509800
10.761000 2.539500
10.780900 2.375300
10.800900 2.202200
10.820800 2.227300
10.840700 2.461500
10.860700 2.759200
10.880600 2.966000
10.900500 2.988800
10.920500 2.795300
10.940400 2.418000
10.960300 1.968800
10.980300 1.590100
11.000200 1.353200
11.020100 1.227700
11.040100 1.147600
11.060000 1.082000
11.080000 1.059600
11.099900 1.141900
11.119800 1.368500
11.139800 1.720100
11.159700 2.115000
11.179600 2.427600
11.199600 2.545900
11.219500 2.460600
11.239400 2.281900
11.259400 2.141000
11.279300 2.103900
11.299200 2.186500
11.319200 2.348700
11.339100 2.446800
11.359100 2.344500
11.379000 2.101300
11.398900 1.897700
11.418900 1.785000
11.438800 1.660800
11.458700 1.487700
11.478700 1.411800
11.498600 1.641100
11.518500 2.252500
11.538500 3.086800
11.558400 3.795000
11.578300 4.050400
11.598300 3.797400
11.618200 3.278100
11.638200 2.795400
11.658100 2.532000
11.678000 2.562400
11.698000 2.808900
11.717900 2.983500
11.737800 2.821700
11.757800 2.410700
11.777700 2.121300
11.797600 2.215900
11.817600 2.630400
11.837500 3.103200
11.857500 3.391500
11.877400 3.381800
11.897300 3.119400
11.917300 2.762000
11.937200 2.472800
11.957100 2.341400
11.977100 2.355500
11.997000 2.401200
12.016900 2.357600
12.036900 2.235600
12.056800 2.148100
12.076700 2.151700
12.096700 2.213700
12.116600 2.276900
12.136600 2.271900
12.156500 2.157300
12.176400 2.019900
12.196400 2.049000
12.216300 2.336100
12.236200 2.764500
12.256200 3.161900
12.276100 3.466200
12.296000 3.650500
12.316000 3.605400
12.335900 3.237300
12.355800 2.618500
12.375800 1.932000
12.395700 1.317600
12.415700 0.847900
12.435600 0.591200
12.455500 0.616100
12.475500 0.943900
12.495400 1.491400
12.515300 2.061200
12.535300 2.483900
12.555200 2.774500
12.575100 3.020100
12.595100 3.166300
12.615000 3.075200
12.634900 2.740700
12.654900 2.343500
12.674800 2.126400
12.694800 2.220900
12.714700 2.559200
12.734600 2.934500
12.754600 3.146600
12.774500 3.124400
12.794400 2.932900
12.814400 2.643800
12.834300 2.267100
12.854200 1.876500
12.874200 1.662900
12.894100 1.737500
12.914000 1.981800
12.934000 2.166600
12.953900 2.173600
12.973900 2.082400
12.993800 2.056700
13.013700 2.157500
13.033700 2.287100
13.053600 2.306100
13.073500 2.174500
13.093500 1.978400
13.113400 1.860000
13.133300 1.928200
13.153300 2.181300
13.173200 2.521900
13.193100 2.876500
13.213100 3.204500
13.233000 3.368900
13.253000 3.217700
13.272900 2.873400
13.292800 2.690700
13.312800 2.802700
13.332700 2.922000
13.352600 2.724500
13.372600 2.271900
13.392500 1.922200
13.412400 1.897100
13.432400 2.056300
13.452300 2.127700
13.472300 2.061600
13.492200 2.031900
13.512100 2.168200
13.532100 2.447800
13.552000 2.780400
13.571900 3.045100
13.591900 3.117300
13.611800 2.984400
13.631700 2.811800
13.651700 2.818000
13.671600 3.035600
13.691500 3.216500
13.711500 3.061700
13.731400 2.528800
13.751400 1.854900
13.771300 1.327800
13.791200 1.091000
13.811200 1.115000
13.831100 1.272800
13.851000 1.439200
13.871000 1.553700
13.890900 1.598900
13.910800 1.581900
13.930800 1.586400
13.950700 1.729100
13.970600 1.981700
13.990600 2.152000
14.010500 2.120500
14.030500 1.976400
14.050400 1.851700
14.070300 1.768900
14.090300 1.739500
14.110200 1.865100
14.130100 2.230700
14.150100 2.741300
14.170000 3.136400
14.189900 3.210100
14.209900 3.004000
14.229800 2.722100
14.249700 2.490600
14.269700 2.305000
14.289600 2.155400
14.309600 2.064400
14.329500 2.042100
14.349400 2.092900
14.369400 2.195700
14.389300 2.234600
14.409200 2.068100
14.429200 1.714700
14.449100 1.373300
14.469000 1.244000
14.489000 1.385300
14.508900 1.720200
14.528800 2.102200
14.548800 2.372900
14.568700 2.443600
14.588700 2.383300
14.608600 2.397700
14.628500 2.641400
14.648500 3.003000
14.668400 3.154100
14.688300 2.897000
14.708300 2.399000
14.728200 2.025000
14.748100 1.985300
14.768100 2.157400
14.788000 2.223100
14.807900 1.981000
14.827900 1.520000
14.847800 1.110400
14.867800 0.979300
14.887700 1.176700
14.907600 1.571500
14.927600 1.926200
14.947500 2.056700
14.967400 2.000800
14.987400 1.951900
15.007300 2.000500
15.027200 2.082800
15.047200 2.170000
15.067100 2.307400
15.087100 2.458200
15.107000 2.484900
15.126900 2.314700
15.146900 2.031300
15.166800 1.803300
15.186700 1.764100
15.206700 1.923100
15.226600 2.173100
15.246500 2.394300
15.266500 2.510700
15.286400 2.455000
15.306300 2.215000
15.326300 1.932500
15.346200 1.816700
15.366200 1.925600
15.386100 2.098300
15.406000 2.105500
15.426000 1.861100
15.445900 1.498600
15.465800 1.230600
15.485800 1.144600
15.505700 1.173800
15.525600 1.240300
15.545600 1.346100
15.565500 1.505500
15.585400 1.676800
15.605400 1.804600
15.625300 1.884200
15.645300 1.959700
15.665200 2.062600
15.685100 2.165000
15.705100 2.201800
15.725000 2.116100
15.744900 1.885100
15.764900 1.557700
15.784800 1.285100
15.804700 1.254200
15.824700 1.532400
15.844600 1.980700
15.864500 2.358500
15.884500 2.518300
15.904400 2.472300
15.924400 2.288100
15.944300 2.005200
15.964200 1.669200
15.984200 1.364200
16.004100 1.195200
16.024000 1.274800
16.044000 1.653400
16.063900 2.194800
16.083800 2.619700
16.103800 2.766900
16.123700 2.724500
16.143600 2.647300
16.163600 2.586900
16.183500 2.553500
16.203500 2.578000
16.223400 2.637800
16.243300 2.624700
16.263300 2.439000
16.283200 2.095900
16.303100 1.733100
16.323100 1.503500
16.343000 1.461900
16.362900 1.563300
16.382900 1.726900
16.402800 1.868100
16.422700 1.923600
16.442700 1.892700
16.462600 1.823300
16.482600 1.778300
16.502500 1.848600
16.522400 2.112000
16.542400 2.523100
16.562300 2.919700
16.582200 3.149200
16.602200 3.135500
16.622100 2.896600
16.642000 2.571600
16.662000 2.328700
16.681900 2.194000
16.701900 2.047300
16.721800 1.802200
16.741700 1.537100
16.761700 1.432700
16.781600 1.581800
16.801500 1.863000
16.821500 2.031800
16.841400 1.960000
16.861300 1.760400
16.881300 1.675400
16.901200 1.870600
16.921100 2.333100
16.941100 2.918600
16.961000 3.438000
16.981000 3.733200
17.000900 3.790900
17.020800 3.756700
17.040800 3.733000
17.060700 3.657500
17.080600 3.453800
17.100600 3.148000
17.120500 2.776300
17.140400 2.342300
17.160400 1.919100
17.180300 1.659700
17.200200 1.651900
17.220200 1.853900
17.240100 2.186000
17.260100 2.576600
17.280000 2.898700
17.299900 2.996000
17.319900 2.836500
17.339800 2.573300
17.359700 2.413700
17.379700 2.447100
17.399600 2.612700
17.419500 2.817300
17.439500 3.029000
17.459400 3.260100
17.479300 3.542000
17.499300 3.907300
17.519200 4.323700
17.539200 4.648500
17.559100 4.683800
17.579000 4.309900
17.599000 3.607000
17.618900 2.845300
17.638800 2.329500
17.658800 2.224200
17.678700 2.470800
17.698600 2.824900
17.718600 3.017700
17.738500 2.949300
17.758400 2.720000
17.778400 2.511700
17.798300 2.513400
17.818300 2.860200
17.838200 3.485800
17.858100 4.079400
17.878100 4.312500
17.898000 4.098500
17.917900 3.590800
17.937900 2.997100
17.957800 2.475700
17.977700 2.156700
17.997700 2.106900
18.017600 2.235700
18.037500 2.379800
18.057500 2.521700
18.077400 2.792800
18.097400 3.226100
18.117300 3.621600
18.137200 3.750100
18.157200 3.656700
18.177100 3.635100
18.197000 3.871100
18.217000 4.252800
18.236900 4.550600
18.256800 4.621900
18.276800 4.443300
18.296700 4.109300
18.316700 3.809200
18.336600 3.714000
18.356500 3.828100
18.376500 3.934100
18.396400 3.748700
18.416300 3.179400
18.436300 2.395200
18.456200 1.688700
18.476100 1.299900
18.496100 1.284000
18.516000 1.513000
18.535900 1.856700
18.555900 2.324400
18.575800 2.948500
18.595800 3.598400
18.615700 4.021800
18.635600 4.044300
18.655600 3.690000
18.675500 3.164700
18.695400 2.716000
18.715400 2.456000
18.735300 2.326800
18.755200 2.212500
18.775200 2.046200
18.795100 1.865500
18.815000 1.797400
18.835000 1.919500
18.854900 2.121300
18.874900 2.187900
18.894800 2.059300
18.914700 1.929200
18.934700 2.020400
18.954600 2.341800
18.974500 2.741100
18.994500 3.074300
19.014400 3.235800
19.034300 3.172800
19.054300 2.989400
19.074200 2.940400
19.094100 3.216400
19.114100 3.752000
19.134000 4.290900
19.154000 4.642800
19.173900 4.817200
19.193800 4.907700
19.213800 4.928100
19.233700 4.807200
19.253600 4.519100
19.273600 4.131600
19.293500 3.712700
19.313400 3.316700
19.333400 3.090100
19.353300 3.214200
19.373200 3.637800
19.393200 4.006200
19.413100 4.018100
19.433100 3.739800
19.453000 3.426300
19.472900 3.190400
19.492900 2.988800
19.512800 2.790200
19.532700 2.597400
19.552700 2.378500
19.572600 2.139800
19.592500 2.039500
19.612500 2.275500
19.632400 2.828800
19.652300 3.401400
19.672300 3.672900
19.692200 3.587100
19.712200 3.323100
19.732100 3.047500
19.752000 2.810100
19.772000 2.607600
19.791900 2.431900
19.811800 2.295800
19.831800 2.240400
19.851700 2.269300
19.871600 2.296900
19.891600 2.212500
19.911500 1.992200
19.931500 1.747900
19.951400 1.682800
19.971300 1.951700
19.991300 2.503700
20.011200 3.069100
20.031100 3.365400
20.051100 3.336400
20.071000 3.154700
20.090900 3.019700
20.110900 3.002900
20.130800 3.019200
20.150700 2.901200
20.170700 2.566000
20.190600 2.129900
20.210600 1.831500
20.230500 1.840700
20.250400 2.124000
20.270400 2.496300
20.290300 2.824900
20.310200 3.096000
20.330200 3.248300
20.350100 3.128100
20.370000 2.716100
20.390000 2.248800
20.409900 2.006000
20.429800 2.049900
20.449800 2.219200
20.469700 2.349400
20.489700 2.460400
20.509600 2.670900
20.529500 2.958900
20.549500 3.160500
20.569400 3.196500
20.589300 3.150200
20.609300 3.157300
20.629200 3.298800
20.649100 3.527700
20.669100 3.675800
20.689000 3.591900
20.708900 3.286900
20.728900 2.943900
20.748800 2.766900
20.768800 2.781000
20.788700 2.844000
20.808600 2.889800
20.828600 3.016100
20.848500 3.273700
20.868400 3.514300
20.888400 3.525600
20.908300 3.271400
20.928200 2.946600
20.948200 2.766200
20.968100 2.734800
20.988000 2.689400
21.008000 2.531600
21.027900 2.322600
21.047900 2.145800
21.067800 1.978100
21.087700 1.751300
21.107700 1.492600
21.127600 1.351100
21.147500 1.461500
21.167500 1.770600
21.187400 2.056000
21.207300 2.162400
21.227300 2.138100
21.247200 2.095000
21.267100 2.051600
21.287100 1.963800
21.307000 1.821800
21.327000 1.686100
21.346900 1.653600
21.366800 1.812000
21.386800 2.203100
21.406700 2.735500
21.426600 3.141700
21.446600 3.163700
21.466500 2.825900
21.486400 2.453700
21.506400 2.373300
21.526300 2.599900
21.546300 2.866300
21.566200 2.947500
21.586100 2.844800
21.606100 2.635700
21.626000 2.334000
21.645900 2.000800
21.665900 1.803200
21.685800 1.826000
21.705700 1.961900
21.725700 2.092100
21.745600 2.237700
21.765500 2.445100
21.785500 2.653400
21.805400 2.741500
21.825400 2.618300
21.845300 2.289500
21.865200 1.911800
21.885200 1.709400
21.905100 1.777600
21.925000 2.034800
21.945000 2.376200
21.964900 2.766200
21.984800 3.189800
22.004800 3.639200
22.024700 4.129500
22.044600 4.607700
22.064600 4.876400
22.084500 4.717600
22.104500 4.121800
22.124400 3.366000
22.144300 2.808200
22.164300 2.602500
22.184200 2.656600
22.204100 2.815100
22.224100 2.998800
22.244000 3.205300
22.263900 3.425100
22.283900 3.543900
22.303800 3.384300
22.323700 2.920300
22.343700 2.403700
22.363600 2.188400
22.383600 2.398300
22.403500 2.790000
22.423400 2.990100
22.443400 2.866300
22.463300 2.602700
22.483200 2.445100
22.503200 2.476000
22.523100 2.612000
22.543000 2.705800
22.563000 2.649000
22.582900 2.455800
22.602800 2.239000
22.622800 2.071500
22.642700 1.935600
22.662700 1.833300
22.682600 1.855400
22.702500 2.079900
22.722500 2.450200
22.742400 2.815500
22.762300 3.077300
22.782300 3.249000
22.802200 3.373900
22.822100 3.426500
22.842100 3.335300
22.862000 3.099100
22.881900 2.838600
22.901900 2.737500
22.921800 2.937100
22.941800 3.382600
22.961700 3.743500
22.981600 3.675600
23.001600 3.217600
23.021500 2.727800
23.041400 2.420500
23.061400 2.197400
23.081300 1.944400
23.101200 1.767400
23.121200 1.850400
23.141100 2.199900
23.161100 2.630100
23.181000 2.968200
23.200900 3.180700
23.220900 3.306000
23.240800 3.393900
23.260700 3.539200
23.280700 3.832800
23.300600 4.218400
23.320500 4.489500
23.340500 4.452400
23.360400 4.063600
23.380300 3.463400
23.400300 2.916100
23.420200 2.642700
23.440200 2.653700
23.460100 2.774800
23.480000 2.849100
23.500000 2.874900
23.519900 2.939800
23.539800 3.091500
23.559800 3.291600
23.579700 3.429900
23.599600 3.398600
23.619600 3.221300
23.639500 3.031100
23.659400 2.882700
23.679400 2.725500
23.699300 2.569300
23.719300 2.488300
23.739200 2.464500
23.759100 2.406800
23.779100 2.337400
23.799000 2.430700
23.818900 2.816800
23.838900 3.358600
23.858800 3.672900
23.878700 3.449100
23.898700 2.754900
23.918600 1.986900
23.938500 1.549000
23.958500 1.589100
23.978400 1.969700
23.998400 2.435500
24.018300 2.810800
24.038200 3.033200
24.058200 3.082900
24.078100 2.993600
24.098000 2.878300
24.118000 2.851800
24.137900 2.960500
24.157800 3.186500
24.177800 3.455000
24.197700 3.652800
24.217600 3.706200
24.237600 3.654700
24.257500 3.613400
24.277500 3.642300
24.297400 3.684800
24.317300 3.655500
24.337300 3.541000
24.357200 3.402600
24.377100 3.315800
24.397100 3.281000
24.417000 3.190400
24.436900 2.978600
24.456900 2.776100
24.476800 2.766200
24.496700 2.946700
24.516700 3.180100
24.536600 3.381600
24.556600 3.521900
24.576500 3.562800
24.596400 3.522300
24.616400 3.526200
24.636300 3.686200
24.656200 3.948900
24.676200 4.138900
24.696100 4.140000
24.716000 3.979500
24.736000 3.760900
24.755900 3.553500
24.775900 3.352700
24.795800 3.136300
24.815700 2.908000
24.835700 2.720700
24.855600 2.691600
24.875500 2.849000
24.895500 2.967900
24.915400 2.794700
24.935300 2.424300
24.955300 2.229100
24.975200 2.423900
24.995100 2.847200
25.015100 3.174100
25.035000 3.261100
25.055000 3.196900
25.074900 3.064900
25.094800 2.846100
25.114800 2.538500
25.134700 2.202200
25.154600 1.903100
25.174600 1.704300
25.194500 1.683000
25.214400 1.886300
25.234400 2.247100
25.254300 2.582600
25.274200 2.702300
25.294200 2.497100
25.314100 1.995600
25.334100 1.413400
25.354000 1.068100
25.373900 1.141100
25.393900 1.525900
25.413800 1.916800
25.433700 2.041100
25.453700 1.834400
25.473600 1.435000
25.493500 1.043700
25.513500 0.787300
25.533400 0.673900
25.553300 0.635400
25.573300 0.600100
25.593200 0.532300
25.613200 0.445600
25.633100 0.406000
25.653000 0.478400
25.673000 0.634400
25.692900 0.758800
25.712800 0.785200
25.732800 0.772800
25.752700 0.795500
25.772600 0.827300
25.792600 0.812300
25.812500 0.778500
25.832400 0.798000
25.852400 0.869000
25.872300 0.898700
25.892300 0.813200
25.912200 0.656400
25.932100 0.550700
25.952100 0.571000
25.972000 0.695300
25.991900 0.852700
26.011900 0.962500
26.031800 0.950500
26.051700 0.804200
26.071700 0.628200
26.091600 0.594400
26.111500 0.790100
26.131500 1.092000
26.151400 1.234900
26.171400 1.072700
26.191300 0.733400
26.211200 0.457600
26.231200 0.352700
26.251100 0.355700
26.271000 0.356900
26.291000 0.300200
26.310900 0.199900
26.330800 0.102900
26.350800 0.040200
26.370700 0.011800
26.390700 0.002600
26.410600 0.000400
26.430500 0.000000
26.450500 0.000000
26.470400 0.000100
26.490300 0.000700
26.510300 0.004000
26.530200 0.016000
26.550100 0.047400
26.570100 0.105700
26.590000 0.184300
26.609900 0.269600
26.629900 0.359700
26.649800 0.449600
26.669800 0.502000
26.689700 0.484400
26.709600 0.430200
26.729600 0.407700
26.749500 0.437500
26.769400 0.475700
26.789400 0.467100
26.809300 0.401400
26.829200 0.319600
26.849200 0.266800
26.869100 0.247000
26.889000 0.229600
26.909000 0.193900
26.928900 0.152800
26.948900 0.129200
26.968800 0.124000
26.988700 0.117800
27.008700 0.095200
27.028600 0.060600
27.048500 0.029300
27.068500 0.010600
27.088400 0.002800
27.108300 0.000600
27.128300 0.000100
27.148200 0.000100
27.168100 0.000800
27.188100 0.004200
27.208000 0.017600
27.228000 0.054800
27.247900 0.128800
27.267800 0.230100
27.287800 0.316500
27.307700 0.343600
27.327600 0.313600
27.347600 0.276400
27.367500 0.273300
27.387400 0.296100
27.407400 0.308100
27.427300 0.284700
27.447200 0.227700
27.467200 0.157300
27.487100 0.094700
27.507100 0.049700
27.527000 0.022100
27.546900 0.007900
27.566900 0.002200
27.586800 0.000500
27.606700 0.000100
27.626700 0.000000
27.646600 0.000000
27.666500 0.000000
27.686500 0.000000
27.706400 0.000000
27.726300 0.000000
27.746300 0.000000
27.766200 0.000000
27.786200 0.000000
27.806100 0.000000
27.826000 0.000000
27.846000 0.000000
27.865900 0.000000
27.885800 0.000000
27.905800 0.000000
27.925700 0.000000
27.945600 0.000000
27.965600 0.000000
27.985500 0.000000
28.005500 0.000000
28.025400 0.000000
28.045300 0.000000
28.065300 0.000000
28.085200 0.000000
28.105100 0.000000
28.125100 0.000000
28.145000 0.000100
28.164900 0.000400
28.184900 0.001700
28.204800 0.006000
28.224700 0.015800
28.244700 0.030100
28.264600 0.042200
28.284600 0.043400
28.304500 0.032800
28.324400 0.018100
28.344400 0.007400
28.364300 0.002200
28.384200 0.000500
28.404200 0.000100
28.424100 0.000000
28.444000 0.000000
28.464000 0.000000
28.483900 0.000000
28.503800 0.000000
28.523800 0.000000
28.543700 0.000000
28.563700 0.000000
28.583600 0.000000
28.603500 0.000000
28.623500 0.000000
28.643400 0.000000
28.663300 0.000000
28.683300 0.000000
28.703200 0.000000
28.723100 0.000000
28.743100 0.000000
28.763000 0.000000
28.782900 0.000000
28.802900 0.000000
28.822800 0.000000
28.842800 0.000000
28.862700 0.000000
28.882600 0.000000
28.902600 0.000000
28.922500 0.000000
28.942400 0.000000
28.962400 0.000000
28.982300 0.000000
29.002200 0.000000
29.022200 0.000000
29.042100 0.000000
29.062000 0.000000
29.082000 0.000000
29.101900 0.000000
29.121900 0.000000
29.141800 0.000000
29.161700 0.000000
29.181700 0.000000
29.201600 0.000000
29.221500 0.000000
29.241500 0.000000
29.261400 0.000000
29.281300 0.000000
29.301300 0.000000
29.321200 0.000000
29.341100 0.000000
29.361100 0.000000
29.381000 0.000000
29.401000 0.000000
29.420900 0.000000
29.440800 0.000000
29.460800 0.000000
29.480700 0.000000
29.500600 0.000000
29.520600 0.000000
29.540500 0.000000
29.560400 0.000000
29.580400 0.000000
29.600300 0.000000
29.620300 0.000000
29.640200 0.000000
29.660100 0.000000
29.680100 0.000000
29.700000 0.000000
29.719900 0.000000
29.739900 0.000000
29.759800 0.000000
29.779700 0.000000
29.799700 0.000000
29.819600 0.000000
29.839500 0.000000
29.859500 0.000000
29.879400 0.000000
29.899400 0.000000
29.919300 0.000000
29.939200 0.000000
29.959200 0.000000
29.979100 0.000000
29.999000 0.000000
30.019000 0.000000
30.038900 0.000000
30.058800 0.000000
30.078800 0.000000
e
