set title 'mp-569567 - Density of States'
set xlabel 'Energy (eV)'
set ylabel 'DOS (states/eV)'
set grid
set xrange [-10:10]
set yrange [0:7.604]
set xzeroaxis lt -1
set terminal png size 800,600
set output 'mp-569567_dos_gnuplot.png'
plot '-' using 1:2 with lines title 'DOS'
-13.940700 0.000000
-13.916400 0.000000
-13.892000 0.000000
-13.867700 0.000000
-13.843400 0.000000
-13.819100 0.000000
-13.794800 0.000000
-13.770500 0.000000
-13.746200 0.000000
-13.721900 0.000000
-13.697600 0.000000
-13.673300 0.000000
-13.649000 0.000000
-13.624700 0.000000
-13.600300 0.000000
-13.576000 0.000000
-13.551700 0.000000
-13.527400 0.000000
-13.503100 0.000000
-13.478800 0.000000
-13.454500 0.000000
-13.430200 0.000000
-13.405900 0.000000
-13.381600 0.000000
-13.357300 0.000000
-13.333000 0.000000
-13.308600 0.000000
-13.284300 0.000000
-13.260000 0.000000
-13.235700 0.000000
-13.211400 0.000000
-13.187100 0.000000
-13.162800 0.000000
-13.138500 0.000000
-13.114200 0.000000
-13.089900 0.000000
-13.065600 0.000000
-13.041300 0.000000
-13.016900 0.000000
-12.992600 0.000000
-12.968300 0.000000
-12.944000 0.000000
-12.919700 0.000000
-12.895400 0.000000
-12.871100 0.000000
-12.846800 0.000000
-12.822500 0.000000
-12.798200 0.000000
-12.773900 0.000000
-12.749600 0.000000
-12.725200 0.000000
-12.700900 0.000000
-12.676600 0.000000
-12.652300 0.000000
-12.628000 0.000000
-12.603700 0.000000
-12.579400 0.000000
-12.555100 0.000000
-12.530800 0.000000
-12.506500 0.000000
-12.482200 0.000000
-12.457900 0.000000
-12.433500 0.000000
-12.409200 0.000000
-12.384900 0.000000
-12.360600 0.000000
-12.336300 0.000000
-12.312000 0.000000
-12.287700 0.000000
-12.263400 0.000000
-12.239100 0.000000
-12.214800 0.000000
-12.190500 0.000000
-12.166200 0.000000
-12.141800 0.000000
-12.117500 0.000000
-12.093200 0.000000
-12.068900 0.000000
-12.044600 0.000000
-12.020300 0.000000
-11.996000 0.000000
-11.971700 0.000000
-11.947400 0.000000
-11.923100 0.000000
-11.898800 0.000000
-11.874500 0.000000
-11.850100 0.000000
-11.825800 0.000000
-11.801500 0.000000
-11.777200 0.000000
-11.752900 0.000000
-11.728600 0.000300
-11.704300 0.006000
-11.680000 0.015600
-11.655700 0.027600
-11.631400 0.042800
-11.607100 0.060300
-11.582800 0.077800
-11.558400 0.095300
-11.534100 0.113600
-11.509800 0.135200
-11.485500 0.157900
-11.461200 0.181900
-11.436900 0.206900
-11.412600 0.233200
-11.388300 0.260400
-11.364000 0.288500
-11.339700 0.317600
-11.315400 0.347600
-11.291100 0.378500
-11.266700 0.410300
-11.242400 0.445100
-11.218100 0.479900
-11.193800 0.514800
-11.169500 0.549600
-11.145200 0.584400
-11.120900 0.619200
-11.096600 0.654000
-11.072300 0.688900
-11.048000 0.682100
-11.023700 0.650300
-10.999400 0.640800
-10.975000 0.638000
-10.950700 0.630000
-10.926400 0.634900
-10.902100 0.661500
-10.877800 0.672000
-10.853500 0.673400
-10.829200 0.678000
-10.804900 0.685000
-10.780600 0.693600
-10.756300 0.702600
-10.732000 0.711500
-10.707700 0.720300
-10.683300 0.729000
-10.659000 0.737900
-10.634700 0.746900
-10.610400 0.754800
-10.586100 0.762300
-10.561800 0.767400
-10.537500 0.770700
-10.513200 0.790800
-10.488900 0.810800
-10.464600 0.830900
-10.440300 0.840900
-10.416000 0.846000
-10.391600 0.851400
-10.367300 0.857100
-10.343000 0.863100
-10.318700 0.872100
-10.294400 0.882800
-10.270100 0.893600
-10.245800 0.904500
-10.221500 0.915500
-10.197200 0.926300
-10.172900 0.937100
-10.148600 0.947900
-10.124300 0.958500
-10.099900 0.969100
-10.075600 0.979700
-10.051300 0.990400
-10.027000 1.001200
-10.002700 1.011500
-9.978400 1.021000
-9.954100 1.029700
-9.929800 1.037500
-9.905500 1.044500
-9.881200 1.050700
-9.856900 1.056900
-9.832600 1.073600
-9.808200 1.090700
-9.783900 1.108100
-9.759600 1.125900
-9.735300 1.135200
-9.711000 1.143700
-9.686700 1.152800
-9.662400 1.162300
-9.638100 1.171300
-9.613800 1.179800
-9.589500 1.187700
-9.565200 1.195600
-9.540900 1.203300
-9.516500 1.210600
-9.492200 1.217000
-9.467900 1.223000
-9.443600 1.228400
-9.419300 1.233200
-9.395000 1.237500
-9.370700 1.241300
-9.346400 1.244500
-9.322100 1.249600
-9.297800 1.256700
-9.273500 1.263600
-9.249200 1.270100
-9.224800 1.276200
-9.200500 1.282200
-9.176200 1.288300
-9.151900 1.294300
-9.127600 1.300100
-9.103300 1.305400
-9.079000 1.310300
-9.054700 1.314300
-9.030400 1.318100
-9.006100 1.321800
-8.981800 1.325400
-8.957400 1.328700
-8.933100 1.331700
-8.908800 1.337800
-8.884500 1.348900
-8.860200 1.360300
-8.835900 1.372100
-8.811600 1.384200
-8.787300 1.394500
-8.763000 1.400000
-8.738700 1.405700
-8.714400 1.411700
-8.690100 1.418000
-8.665700 1.424500
-8.641400 1.431300
-8.617100 1.438300
-8.592800 1.445300
-8.568500 1.452700
-8.544200 1.460500
-8.519900 1.469700
-8.495600 1.479500
-8.471300 1.489100
-8.447000 1.498500
-8.422700 1.507800
-8.398400 1.516900
-8.374000 1.525900
-8.349700 1.534700
-8.325400 1.542800
-8.301100 1.550600
-8.276800 1.558200
-8.252500 1.565500
-8.228200 1.572600
-8.203900 1.579400
-8.179600 1.585900
-8.155300 1.592200
-8.131000 1.598200
-8.106700 1.604000
-8.082300 1.612300
-8.058000 1.623200
-8.033700 1.633900
-8.009400 1.644700
-7.985100 1.655100
-7.960800 1.665200
-7.936500 1.674900
-7.912200 1.684300
-7.887900 1.693300
-7.863600 1.701900
-7.839300 1.710000
-7.815000 1.717600
-7.790600 1.724700
-7.766300 1.731400
-7.742000 1.738200
-7.717700 1.751300
-7.693400 1.764400
-7.669100 1.777800
-7.644800 1.791500
-7.620500 1.805400
-7.596200 1.819700
-7.571900 1.829400
-7.547600 1.838200
-7.523300 1.847300
-7.498900 1.856600
-7.474600 1.866200
-7.450300 1.876100
-7.426000 1.886200
-7.401700 1.896500
-7.377400 1.907200
-7.353100 1.917500
-7.328800 1.928100
-7.304500 1.938900
-7.280200 1.949900
-7.255900 1.961000
-7.231600 1.972100
-7.207200 1.983300
-7.182900 1.994600
-7.158600 2.008100
-7.134300 2.079600
-7.110000 2.269700
-7.085700 2.422900
-7.061400 2.514500
-7.037100 2.530700
-7.012800 2.522400
-6.988500 2.515300
-6.964200 2.520700
-6.939900 2.540600
-6.915500 2.603100
-6.891200 2.655800
-6.866900 2.702500
-6.842600 2.745200
-6.818300 2.784100
-6.794000 2.823900
-6.769700 2.869100
-6.745400 2.884200
-6.721100 2.879100
-6.696800 2.864700
-6.672500 2.836900
-6.648200 2.799800
-6.623800 2.762200
-6.599500 2.724400
-6.575200 2.690400
-6.550900 2.661100
-6.526600 2.636600
-6.502300 2.617000
-6.478000 2.621800
-6.453700 2.631200
-6.429400 2.634800
-6.405100 2.632800
-6.380800 2.633400
-6.356500 2.633200
-6.332100 2.631000
-6.307800 2.626900
-6.283500 2.621500
-6.259200 2.617700
-6.234900 2.613800
-6.210600 2.625700
-6.186300 2.615000
-6.162000 2.596600
-6.137700 2.586200
-6.113400 2.566300
-6.089100 2.537000
-6.064800 2.497800
-6.040400 2.455700
-6.016100 2.412500
-5.991800 2.368000
-5.967500 2.322400
-5.943200 2.280900
-5.918900 2.243100
-5.894600 2.208900
-5.870300 2.183600
-5.846000 2.184200
-5.821700 2.219900
-5.797400 2.339000
-5.773100 2.434600
-5.748700 2.506200
-5.724400 2.554000
-5.700100 2.578100
-5.675800 2.581800
-5.651500 2.566700
-5.627200 2.532900
-5.602900 2.508200
-5.578600 2.479300
-5.554300 2.433000
-5.530000 2.444200
-5.505700 2.464800
-5.481400 2.477800
-5.457000 2.483200
-5.432700 3.130400
-5.408400 2.177300
-5.384100 2.112300
-5.359800 2.059900
-5.335500 2.020300
-5.311200 1.993400
-5.286900 1.979300
-5.262600 1.975700
-5.238300 1.975100
-5.214000 1.982700
-5.189700 1.994200
-5.165300 2.009700
-5.141000 2.029100
-5.116700 2.054400
-5.092400 2.073900
-5.068100 2.085800
-5.043800 2.092900
-5.019500 2.095100
-4.995200 2.092700
-4.970900 2.085500
-4.946600 2.075700
-4.922300 2.067100
-4.898000 2.059400
-4.873600 2.052900
-4.849300 2.047600
-4.825000 2.043500
-4.800700 2.040600
-4.776400 2.037000
-4.752100 2.032100
-4.727800 2.025900
-4.703500 2.018400
-4.679200 2.009700
-4.654900 1.999700
-4.630600 1.989100
-4.606300 1.978100
-4.581900 1.966300
-4.557600 1.952100
-4.533300 1.941600
-4.509000 1.929600
-4.484700 1.916300
-4.460400 1.912500
-4.436100 1.911000
-4.411800 1.911000
-4.387500 1.911300
-4.363200 1.911800
-4.338900 1.863100
-4.314600 1.793400
-4.290200 1.721000
-4.265900 1.642000
-4.241600 1.558800
-4.217300 1.474300
-4.193000 1.392000
-4.168700 1.305800
-4.144400 1.374900
-4.120100 1.804300
-4.095800 1.952600
-4.071500 2.075800
-4.047200 2.282500
-4.022900 2.222900
-3.998500 2.201100
-3.974200 2.167700
-3.949900 2.141700
-3.925600 2.119800
-3.901300 2.101200
-3.877000 2.111000
-3.852700 2.130500
-3.828400 2.123400
-3.804100 2.110900
-3.779800 2.091800
-3.755500 2.064700
-3.731200 2.027600
-3.706800 1.979400
-3.682500 1.920000
-3.658200 1.854200
-3.633900 1.784500
-3.609600 1.710800
-3.585300 1.634400
-3.561000 1.557400
-3.536700 1.477100
-3.512400 1.408100
-3.488100 1.307200
-3.463800 1.314000
-3.439400 1.324500
-3.415100 1.339600
-3.390800 1.357200
-3.366500 1.377100
-3.342200 1.399500
-3.317900 1.424200
-3.293600 1.451300
-3.269300 1.479900
-3.245000 1.399400
-3.220700 1.357600
-3.196400 1.316000
-3.172100 1.278900
-3.147700 1.246500
-3.123400 1.218500
-3.099100 1.195200
-3.074800 1.176400
-3.050500 1.162200
-3.026200 1.150100
-3.001900 1.126600
-2.977600 1.096700
-2.953300 1.065000
-2.929000 1.036000
-2.904700 1.006100
-2.880400 0.973300
-2.856000 0.948300
-2.831700 0.910200
-2.807400 0.950300
-2.783100 1.000900
-2.758800 1.052900
-2.734500 1.105900
-2.710200 1.160300
-2.685900 1.216800
-2.661600 1.273600
-2.637300 1.331000
-2.613000 1.388800
-2.588700 1.447000
-2.564300 1.505700
-2.540000 1.568900
-2.515700 1.635800
-2.491400 1.924900
-2.467100 2.292700
-2.442800 2.697200
-2.418500 3.100400
-2.394200 3.496400
-2.369900 3.885600
-2.345600 4.261400
-2.321300 4.406400
-2.297000 4.404400
-2.272600 4.357400
-2.248300 4.276900
-2.224000 4.212500
-2.199700 4.176200
-2.175400 4.171100
-2.151100 4.253000
-2.126800 3.877700
-2.102500 3.191100
-2.078200 2.539300
-2.053900 2.482700
-2.029600 2.546600
-2.005300 2.613300
-1.980900 2.696400
-1.956600 2.891700
-1.932300 3.180200
-1.908000 3.550600
-1.883700 4.551200
-1.859400 5.251600
-1.835100 5.004500
-1.810800 4.430600
-1.786500 3.853800
-1.762200 3.264800
-1.737900 3.307200
-1.713600 3.306700
-1.689200 3.493900
-1.664900 3.594100
-1.640600 3.609300
-1.616300 3.542600
-1.592000 3.433700
-1.567700 3.344100
-1.543400 3.223600
-1.519100 3.088000
-1.494800 2.963600
-1.470500 2.830000
-1.446200 2.677900
-1.421900 2.540600
-1.397500 2.463000
-1.373200 2.390800
-1.348900 2.324100
-1.324600 2.270600
-1.300300 2.245200
-1.276000 2.275900
-1.251700 2.294100
-1.227400 2.269400
-1.203100 2.355300
-1.178800 2.442700
-1.154500 2.529200
-1.130200 2.612700
-1.105800 2.693100
-1.081500 2.770500
-1.057200 2.822000
-1.032900 2.822500
-1.008600 2.800100
-0.984300 2.765800
-0.960000 2.721300
-0.935700 2.670500
-0.911400 2.626000
-0.887100 2.586300
-0.862800 2.542900
-0.838500 2.492700
-0.814100 2.465000
-0.789800 2.445000
-0.765500 2.425500
-0.741200 2.386500
-0.716900 2.353600
-0.692600 2.328900
-0.668300 2.306200
-0.644000 2.285600
-0.619700 2.267400
-0.595400 2.254100
-0.571100 2.245500
-0.546800 2.240000
-0.522400 2.244200
-0.498100 2.258200
-0.473800 2.280300
-0.449500 2.306400
-0.425200 2.336800
-0.400900 2.367000
-0.376600 2.396600
-0.352300 2.425900
-0.328000 2.454700
-0.303700 2.483000
-0.279400 2.511000
-0.255100 2.538500
-0.230700 2.565900
-0.206400 2.593200
-0.182100 2.618400
-0.157800 2.632900
-0.133500 2.634700
-0.109200 2.626200
-0.084900 2.613300
-0.060600 2.602300
-0.036300 2.611000
-0.012000 2.619000
0.012300 2.620700
0.036600 2.616400
0.061000 2.605900
0.085300 2.589400
0.109600 2.566700
0.133900 2.559500
0.158200 2.548200
0.182500 2.522100
0.206800 2.504000
0.231100 2.490600
0.255400 2.477900
0.279700 2.465900
0.304000 2.454600
0.328300 2.455400
0.352700 2.470200
0.377000 2.485800
0.401300 2.502100
0.425600 2.521400
0.449900 2.548200
0.474200 2.574100
0.498500 2.598800
0.522800 2.622200
0.547100 2.644500
0.571400 2.665500
0.595700 2.685200
0.620000 2.703600
0.644400 2.726700
0.668700 2.751900
0.693000 2.774300
0.717300 2.788900
0.741600 2.799500
0.765900 2.806800
0.790200 2.812000
0.814500 2.817100
0.838800 2.813000
0.863100 2.788300
0.887400 2.751400
0.911700 2.711400
0.936100 2.675200
0.960400 2.656300
0.984700 2.644100
1.009000 2.638600
1.033300 2.639600
1.057600 2.645700
1.081900 2.657400
1.106200 2.685800
1.130500 2.719400
1.154800 2.757300
1.179100 2.810500
1.203400 2.862900
1.227800 2.914600
1.252100 2.965400
1.276400 3.015500
1.300700 3.064700
1.325000 3.113100
1.349300 3.160500
1.373600 3.205300
1.397900 3.248900
1.422200 3.282700
1.446500 3.308100
1.470800 3.334500
1.495100 3.364400
1.519500 3.402700
1.543800 3.452800
1.568100 3.504300
1.592400 3.557000
1.616700 3.611300
1.641000 3.668500
1.665300 3.725800
1.689600 3.915300
1.713900 4.026600
1.738200 4.107800
1.762500 4.208100
1.786800 4.276500
1.811200 4.333800
1.835500 4.392200
1.859800 4.409400
1.884100 4.362800
1.908400 4.346000
1.932700 4.321600
1.957000 4.289200
1.981300 4.248900
2.005600 4.189100
2.029900 4.146100
2.054200 4.124200
2.078600 4.110100
2.102900 4.108000
2.127200 4.120500
2.151500 4.141300
2.175800 4.161800
2.200100 4.182600
2.224400 4.204300
2.248700 4.224300
2.273000 4.241300
2.297300 4.356600
2.321600 4.460000
2.345900 4.472300
2.370300 4.410000
2.394600 4.417900
2.418900 4.426500
2.443200 4.433000
2.467500 4.444700
2.491800 4.454700
2.516100 4.452200
2.540400 4.428100
2.564700 4.360300
2.589000 4.320300
2.613300 4.312800
2.637600 4.308200
2.662000 4.306700
2.686300 4.308400
2.710600 4.312800
2.734900 4.319600
2.759200 4.331300
2.783500 4.348000
2.807800 4.365600
2.832100 4.382500
2.856400 4.394600
2.880700 4.412000
2.905000 4.422600
2.929300 4.421700
2.953700 4.430200
2.978000 4.427700
3.002300 4.408700
3.026600 4.392700
3.050900 4.378100
3.075200 4.360600
3.099500 4.341700
3.123800 4.321500
3.148100 4.293100
3.172400 4.247700
3.196700 4.196300
3.221000 4.163000
3.245400 4.167700
3.269700 4.159900
3.294000 4.163300
3.318300 4.170500
3.342600 4.178700
3.366900 4.187000
3.391200 4.194500
3.415500 4.200600
3.439800 4.200200
3.464100 4.194700
3.488400 4.186000
3.512700 4.172300
3.537100 4.156900
3.561400 4.139000
3.585700 4.123300
3.610000 6.912400
3.634300 5.730600
3.658600 5.785300
3.682900 5.822500
3.707200 5.857000
3.731500 5.921000
3.755800 5.845600
3.780100 5.615000
3.804400 5.365500
3.828800 5.155000
3.853100 5.090000
3.877400 5.086600
3.901700 5.168900
3.926000 5.340100
3.950300 5.156000
3.974600 4.958200
3.998900 4.969700
4.023200 4.988100
4.047500 5.017200
4.071800 5.039900
4.096100 5.046700
4.120500 5.039300
4.144800 5.012600
4.169100 4.892100
4.193400 4.848200
4.217700 4.793600
4.242000 4.732800
4.266300 4.802100
4.290600 4.897200
4.314900 4.990400
4.339200 5.093400
4.363500 5.198600
4.387800 5.302500
4.412200 5.407400
4.436500 5.511200
4.460800 5.571900
4.485100 5.567400
4.509400 5.488300
4.533700 5.418900
4.558000 5.407200
4.582300 5.406500
4.606600 5.368800
4.630900 5.304400
4.655200 5.275000
4.679500 5.278500
4.703900 5.283800
4.728200 5.294700
4.752500 5.317100
4.776800 5.383400
4.801100 5.458600
4.825400 5.535300
4.849700 5.607700
4.874000 5.629000
4.898300 5.477000
4.922600 5.462700
4.946900 5.461200
4.971200 5.459800
4.995600 5.458400
5.019900 5.453800
5.044200 5.439400
5.068500 5.430900
5.092800 5.425300
5.117100 5.423900
5.141400 5.452300
5.165700 5.477900
5.190000 5.515400
5.214300 5.561300
5.238600 5.610600
5.262900 5.614700
5.287300 5.549300
5.311600 5.484500
5.335900 5.404000
5.360200 5.322400
5.384500 5.289700
5.408800 5.288400
5.433100 5.284100
5.457400 5.277000
5.481700 5.267800
5.506000 5.257000
5.530300 5.248800
5.554600 5.243400
5.579000 5.240600
5.603300 5.239800
5.627600 5.244800
5.651900 5.261000
5.676200 5.275100
5.700500 5.307300
5.724800 5.311800
5.749100 5.312500
5.773400 5.312400
5.797700 5.312800
5.822000 5.310500
5.846300 5.302900
5.870700 5.293200
5.895000 5.282800
5.919300 5.272600
5.943600 5.260600
5.967900 5.243600
5.992200 5.226200
6.016500 5.208700
6.040800 5.191100
6.065100 5.421800
6.089400 5.531000
6.113700 5.627900
6.138000 5.740200
6.162400 5.652000
6.186700 5.564600
6.211000 5.479800
6.235300 5.501700
6.259600 5.518500
6.283900 5.460800
6.308200 5.373900
6.332500 5.294400
6.356800 5.219700
6.381100 5.144600
6.405400 5.072000
6.429700 5.004300
6.454100 4.939300
6.478400 4.872500
6.502700 4.804500
6.527000 4.735500
6.551300 4.665400
6.575600 4.595000
6.599900 4.525800
6.624200 4.458500
6.648500 4.394400
6.672800 4.333100
6.697100 4.269600
6.721400 4.196000
6.745800 4.120100
6.770100 4.042400
6.794400 3.965300
6.818700 3.886200
6.843000 3.804300
6.867300 3.719400
6.891600 3.636600
6.915900 3.554300
6.940200 3.473600
6.964500 3.395100
6.988800 3.319500
7.013100 3.245700
7.037500 3.174200
7.061800 3.106800
7.086100 3.043900
7.110400 2.980800
7.134700 2.912700
7.159000 2.837400
7.183300 2.764100
7.207600 2.703600
7.231900 2.642700
7.256200 2.583000
7.280500 2.525100
7.304800 2.470000
7.329200 2.417300
7.353500 2.367600
7.377800 2.319900
7.402100 2.275200
7.426400 2.236400
7.450700 2.200400
7.475000 2.165200
7.499300 2.130600
7.523600 2.096700
7.547900 2.062900
7.572200 2.029500
7.596500 1.997200
7.620900 1.965800
7.645200 1.934800
7.669500 1.904100
7.693800 1.873800
7.718100 1.843900
7.742400 1.814400
7.766700 1.786000
7.791000 1.762900
7.815300 1.740100
7.839600 1.716400
7.863900 1.691300
7.888300 1.665600
7.912600 1.639600
7.936900 1.613100
7.961200 1.586600
7.985500 1.560500
8.009800 1.534800
8.034100 1.509700
8.058400 1.485600
8.082700 1.462200
8.107000 1.439700
8.131300 1.418100
8.155600 1.397000
8.180000 1.373700
8.204300 1.350400
8.228600 1.327500
8.252900 1.305800
8.277200 1.286000
8.301500 1.268300
8.325800 1.256800
8.350100 1.248700
8.374400 1.238600
8.398700 1.225600
8.423000 1.208200
8.447300 1.185700
8.471700 1.159400
8.496000 1.132900
8.520300 1.106700
8.544600 1.080600
8.568900 1.057000
8.593200 1.036700
8.617500 1.016100
8.641800 0.994700
8.666100 0.973000
8.690400 0.953400
8.714700 0.936700
8.739000 0.931900
8.763400 0.910700
8.787700 0.883800
8.812000 0.859700
8.836300 0.829100
8.860600 0.797800
8.884900 0.766500
8.909200 0.735300
8.933500 0.704000
8.957800 0.672700
8.982100 0.641800
9.006400 0.611300
9.030700 0.581500
9.055100 0.552800
9.079400 0.524600
9.103700 0.496700
9.128000 0.469200
9.152300 0.442200
9.176600 0.415500
9.200900 0.389200
9.225200 0.363400
9.249500 0.337700
9.273800 0.312200
9.298100 0.286900
9.322400 0.261800
9.346800 0.236900
9.371100 0.212100
9.395400 0.188900
9.419700 0.169100
9.444000 0.149500
9.468300 0.130100
9.492600 0.110900
9.516900 0.091800
9.541200 0.072900
9.565500 0.056600
9.589800 0.042500
9.614100 0.030400
9.638500 0.019800
9.662800 0.010700
9.687100 0.003900
9.711400 0.000000
9.735700 0.000000
9.760000 0.000000
9.784300 0.000000
9.808600 0.000000
9.832900 0.000000
9.857200 0.000000
9.881500 0.000000
9.905800 0.000000
9.930200 0.000000
9.954500 0.000000
9.978800 0.000000
10.003100 0.000000
10.027400 0.000000
10.051700 0.000000
10.076000 0.000000
10.100300 0.000000
10.124600 0.000000
10.148900 0.000000
10.173200 0.000000
10.197500 0.000000
10.221900 0.000000
10.246200 0.000000
10.270500 0.000000
10.294800 0.000000
10.319100 0.000000
10.343400 0.000000
10.367700 0.000000
10.392000 0.000000
10.416300 0.000000
10.440600 0.000000
10.464900 0.000000
10.489200 0.000000
10.513600 0.000000
10.537900 0.000000
10.562200 0.000000
10.586500 0.000000
10.610800 0.000000
10.635100 0.000000
10.659400 0.000000
10.683700 0.000000
10.708000 0.000000
10.732300 0.000000
10.756600 0.000000
10.780900 0.000000
10.805300 0.000000
10.829600 0.000000
10.853900 0.000000
10.878200 0.000000
10.902500 0.000000
10.926800 0.000000
10.951100 0.000000
10.975400 0.000000
10.999700 0.000000
11.024000 0.000000
11.048300 0.000000
11.072600 0.000000
11.097000 0.000000
11.121300 0.000000
11.145600 0.000000
11.169900 0.000000
11.194200 0.000000
11.218500 0.000000
11.242800 0.000000
11.267100 0.000000
11.291400 0.000000
11.315700 0.000000
11.340000 0.000000
11.364300 0.000000
11.388700 0.000000
11.413000 0.000000
11.437300 0.000000
11.461600 0.000000
11.485900 0.000000
11.510200 0.000000
11.534500 0.000000
11.558800 0.000000
11.583100 0.000000
11.607400 0.000000
11.631700 0.000000
11.656000 0.000000
11.680400 0.000000
11.704700 0.000000
11.729000 0.000000
11.753300 0.000000
11.777600 0.000000
11.801900 0.000000
11.826200 0.000000
11.850500 0.000000
11.874800 0.000000
11.899100 0.000000
11.923400 0.000000
11.947700 0.000000
11.972100 0.000000
11.996400 0.000000
12.020700 0.000000
12.045000 0.000000
12.069300 0.000000
12.093600 0.000000
12.117900 0.000000
12.142200 0.000000
12.166500 0.000000
12.190800 0.000000
12.215100 0.000000
12.239400 0.000000
12.263800 0.000000
12.288100 0.000000
12.312400 0.000000
12.336700 0.000000
12.361000 0.000000
12.385300 0.000000
12.409600 0.000000
12.433900 0.000000
12.458200 0.000000
12.482500 0.000000
12.506800 0.000000
12.531100 0.000000
12.555500 0.000000
12.579800 0.000000
12.604100 0.000000
12.628400 0.000000
12.652700 0.000000
12.677000 0.000000
12.701300 0.000000
12.725600 0.000000
12.749900 0.000000
12.774200 0.000000
12.798500 0.000000
12.822800 0.000000
12.847200 0.000000
12.871500 0.000000
12.895800 0.000000
12.920100 0.000000
12.944400 0.000000
12.968700 0.000000
12.993000 0.000000
13.017300 0.000000
13.041600 0.000000
13.065900 0.000000
13.090200 0.000000
13.114500 0.000000
13.138900 0.000000
13.163200 0.000000
13.187500 0.000000
13.211800 0.000000
13.236100 0.000000
13.260400 0.000000
13.284700 0.000000
13.309000 0.000000
13.333300 0.000000
13.357600 0.000000
13.381900 0.000000
13.406300 0.000000
13.430600 0.000000
13.454900 0.000000
13.479200 0.000000
13.503500 0.000000
13.527800 0.000000
13.552100 0.000000
13.576400 0.000000
13.600700 0.000000
13.625000 0.000000
13.649300 0.000000
13.673600 0.000000
13.698000 0.000000
13.722300 0.000000
13.746600 0.000000
13.770900 0.000000
13.795200 0.000000
13.819500 0.000000
13.843800 0.000000
13.868100 0.000000
13.892400 0.000000
13.916700 0.000000
13.941000 0.000000
13.965300 0.000000
13.989700 0.000000
14.014000 0.000000
14.038300 0.000000
14.062600 0.000000
14.086900 0.000000
14.111200 0.000000
14.135500 0.013700
14.159800 0.048200
14.184100 0.097700
14.208400 0.158300
14.232700 0.229500
14.257000 0.311900
14.281400 0.418300
14.305700 0.525600
14.330000 0.619500
14.354300 0.687700
14.378600 0.740400
14.402900 0.772400
14.427200 0.820600
14.451500 0.897800
14.475800 0.980400
14.500100 1.043600
14.524400 1.108200
14.548700 1.172300
14.573100 1.236300
14.597400 1.301900
14.621700 1.369100
14.646000 1.441000
14.670300 1.540100
14.694600 1.624600
14.718900 1.663300
14.743200 1.702000
14.767500 1.740700
14.791800 1.779500
14.816100 1.818200
14.840400 2.223400
14.864800 2.983800
14.889100 3.155700
14.913400 3.104400
14.937700 3.057000
14.962000 3.013300
14.986300 2.969400
15.010600 2.924200
15.034900 2.879600
15.059200 2.854000
15.083500 3.056600
15.107800 3.247100
15.132100 3.521700
15.156500 3.947300
15.180800 4.324800
15.205100 4.065500
15.229400 4.872000
15.253700 6.118600
15.278000 5.725100
15.302300 4.880800
15.326600 4.693500
15.350900 4.521400
15.375200 4.349400
15.399500 4.170400
15.423800 3.934800
15.448200 3.747400
15.472500 3.611700
15.496800 3.499800
15.521100 3.417300
15.545400 3.354200
15.569700 3.307000
15.594000 3.260000
15.618300 3.211000
15.642600 3.160300
15.666900 3.109300
15.691200 3.047300
15.715500 3.970900
15.739900 5.041500
15.764200 4.449700
15.788500 4.551200
15.812800 4.587400
15.837100 4.554100
15.861400 4.462900
15.885700 4.451500
15.910000 4.388000
15.934300 4.279700
15.958600 4.235000
15.982900 4.237000
16.007200 4.111200
16.031600 3.843500
16.055900 3.441900
16.080200 3.079500
16.104500 3.017500
16.128800 3.171300
16.153100 3.325200
16.177400 3.479000
16.201700 3.632000
16.226000 3.782200
16.250300 3.931300
16.274600 4.080600
16.298900 4.231600
16.323300 4.412800
16.347600 4.575500
16.371900 4.695000
16.396200 4.794400
16.420500 4.897600
16.444800 4.920100
16.469100 4.805900
16.493400 4.548000
16.517700 4.452000
16.542000 4.409400
16.566300 4.383000
16.590600 4.354600
16.615000 4.298700
16.639300 4.222900
16.663600 4.157300
16.687900 4.099800
16.712200 4.071000
16.736500 4.150300
16.760800 4.262100
16.785100 4.404100
16.809400 4.472400
16.833700 4.606000
16.858000 4.778000
16.882300 4.987300
16.906700 5.212600
16.931000 5.047600
16.955300 5.144000
16.979600 5.211000
17.003900 5.249100
17.028200 5.290700
17.052500 5.243700
17.076800 5.063100
17.101100 4.944800
17.125400 4.866900
17.149700 4.794100
17.174000 4.719300
17.198400 4.687400
17.222700 4.654900
17.247000 4.622000
17.271300 4.620100
17.295600 4.638800
17.319900 4.674800
17.344200 4.803800
17.368500 5.050400
17.392800 5.260500
17.417100 5.398700
17.441400 5.541500
17.465700 5.762000
17.490100 6.234200
17.514400 6.806100
17.538700 7.218300
17.563000 7.623100
17.587300 8.432800
17.611600 7.918500
17.635900 8.203000
17.660200 9.305000
17.684500 8.522000
17.708800 7.135900
17.733100 6.386800
17.757400 6.739800
17.781800 7.536800
17.806100 8.236600
17.830400 7.233700
17.854700 6.298200
17.879000 7.435000
17.903300 6.599500
17.927600 6.603800
17.951900 6.763500
17.976200 6.913400
18.000500 7.268200
18.024800 7.116100
18.049100 6.833200
18.073500 6.910200
18.097800 7.013500
18.122100 7.437600
18.146400 7.302900
18.170700 7.169700
18.195000 7.037400
18.219300 6.913800
18.243600 6.801200
18.267900 6.700400
18.292200 6.298000
18.316500 6.207900
18.340800 6.137200
18.365200 6.110200
18.389500 6.057300
18.413800 6.078500
18.438100 6.183500
18.462400 6.272500
18.486700 6.385700
18.511000 6.542500
18.535300 6.481100
18.559600 6.408500
18.583900 6.311300
18.608200 6.207100
18.632500 6.099700
18.656900 6.141000
18.681200 6.030000
18.705500 5.996500
18.729800 5.968700
18.754100 5.943600
18.778400 5.960400
18.802700 5.962700
18.827000 5.966400
18.851300 5.986500
18.875600 6.007600
18.899900 6.019500
18.924300 6.033800
18.948600 6.104300
18.972900 6.044300
18.997200 5.737500
19.021500 5.538200
19.045800 5.378000
19.070100 5.328600
19.094400 5.363700
19.118700 5.394700
19.143000 5.429900
19.167300 5.462300
19.191600 5.580300
19.216000 5.799700
19.240300 5.890700
19.264600 5.848300
19.288900 5.628800
19.313200 5.194100
19.337500 4.927100
19.361800 4.706900
19.386100 4.667500
19.410400 4.706000
19.434700 4.789800
19.459000 4.890300
19.483300 5.040600
19.507700 5.434400
19.532000 5.728200
19.556300 5.926200
19.580600 6.035200
19.604900 6.028600
19.629200 5.932800
19.653500 5.726000
19.677800 5.691700
19.702100 4.869200
19.726400 4.948000
19.750700 5.026400
19.775000 5.103000
19.799400 5.181300
19.823700 5.264600
19.848000 5.360600
19.872300 6.624600
19.896600 5.703400
19.920900 5.846500
19.945200 6.769700
19.969500 7.435100
19.993800 5.723300
20.018100 5.705700
20.042400 5.745900
20.066700 5.789600
20.091100 5.795300
20.115400 5.696900
20.139700 5.604500
20.164000 5.513400
20.188300 5.375400
20.212600 5.230800
20.236900 5.082700
20.261200 4.906100
20.285500 4.845700
20.309800 4.891100
20.334100 4.998700
20.358400 5.080200
20.382800 5.146700
20.407100 5.208600
20.431400 5.267900
20.455700 5.323400
20.480000 5.442300
20.504300 5.530100
20.528600 5.868800
20.552900 6.033500
20.577200 6.084800
20.601500 6.130500
20.625800 6.617900
20.650100 7.136800
20.674500 6.451300
20.698800 5.008500
20.723100 5.008400
20.747400 5.043900
20.771700 5.163500
20.796000 5.224600
20.820300 5.242700
20.844600 5.217200
20.868900 5.152000
20.893200 5.048900
20.917500 4.842100
20.941800 4.645000
20.966200 4.575900
20.990500 4.510100
21.014800 4.447400
21.039100 4.387900
21.063400 4.333100
21.087700 4.274800
21.112000 4.218700
21.136300 4.176300
21.160600 4.157500
21.184900 4.570100
21.209200 4.036300
21.233500 4.006100
21.257900 3.975800
21.282200 3.950300
21.306500 3.974600
21.330800 3.996100
21.355100 3.957800
21.379400 3.916300
21.403700 4.193300
21.428000 4.628400
21.452300 4.756300
21.476600 4.649100
21.500900 4.521100
21.525200 4.371700
21.549600 4.181600
21.573900 3.949100
21.598200 3.781400
21.622500 3.699100
21.646800 3.650600
21.671100 3.604700
21.695400 3.562800
21.719700 3.523800
21.744000 3.487700
21.768300 3.427700
21.792600 3.362300
21.816900 3.328300
21.841300 3.293800
21.865600 3.242400
21.889900 3.174900
21.914200 3.385000
21.938500 5.172800
21.962800 6.529700
21.987100 5.310500
22.011400 4.823000
22.035700 4.568100
22.060000 4.476300
22.084300 4.461700
22.108600 4.389400
22.133000 4.259900
22.157300 4.073900
22.181600 3.863900
22.205900 3.691100
22.230200 3.556100
22.254500 3.442100
22.278800 3.338800
22.303100 3.246200
22.327400 3.203600
22.351700 3.355800
22.376000 3.765200
22.400300 4.515200
22.424700 5.866800
22.449000 5.288100
22.473300 4.957000
22.497600 4.256300
22.521900 4.112900
22.546200 4.126300
22.570500 4.295300
22.594800 4.404600
22.619100 4.561700
22.643400 4.709400
22.667700 4.814400
22.692000 4.876800
22.716400 4.896500
22.740700 4.868500
22.765000 4.765500
22.789300 4.591700
22.813600 4.342300
22.837900 4.132500
22.862200 3.957800
22.886500 3.813500
22.910800 3.699900
22.935100 3.625700
22.959400 3.583100
22.983700 3.550600
23.008100 3.649500
23.032400 4.049300
23.056700 4.626100
23.081000 5.972700
23.105300 6.909100
23.129600 6.797700
23.153900 6.590500
23.178200 6.056100
23.202500 5.557700
23.226800 5.196100
23.251100 5.052600
23.275400 4.942300
23.299800 4.828500
23.324100 4.853200
23.348400 4.883400
23.372700 5.759400
23.397000 5.274500
23.421300 5.542400
23.445600 5.861000
23.469900 6.227000
23.494200 7.977500
23.518500 8.535300
23.542800 6.485400
23.567100 5.181200
23.591500 5.150400
23.615800 5.318900
23.640100 5.614800
23.664400 6.080400
23.688700 6.492400
23.713000 6.476800
23.737300 6.282300
23.761600 5.381000
23.785900 5.451600
23.810200 5.993100
23.834500 6.516800
23.858800 7.846300
23.883200 8.506700
23.907500 7.942400
23.931800 8.717900
23.956100 7.621800
23.980400 6.453000
24.004700 6.187100
24.029000 6.033100
24.053300 5.985600
24.077600 6.054100
24.101900 6.184400
24.126200 6.372900
24.150500 5.930600
24.174900 5.011800
24.199200 3.943000
24.223500 3.883400
24.247800 4.177800
24.272100 4.641400
24.296400 5.104800
24.320700 5.567700
24.345000 5.932400
24.369300 5.390600
24.393600 4.785500
24.417900 4.372200
24.442300 4.069600
24.466600 3.803500
24.490900 3.634800
24.515200 3.568900
24.539500 3.530300
24.563800 3.496400
24.588100 3.466800
24.612400 3.579300
24.636700 3.763600
24.661000 3.965300
24.685300 4.203800
24.709600 4.419100
24.734000 4.606500
24.758300 4.690400
24.782600 4.495900
24.806900 4.322100
24.831200 4.234000
24.855500 4.109800
24.879800 3.988700
24.904100 3.897200
24.928400 3.808900
24.952700 3.710800
24.977000 3.592500
25.001300 3.450100
25.025700 3.274800
25.050000 3.033300
25.074300 3.200800
25.098600 3.410300
25.122900 3.630200
25.147200 3.861500
25.171500 4.101400
25.195800 4.349800
25.220100 4.623800
25.244400 4.895200
25.268700 5.161900
25.293000 5.423200
25.317400 5.679000
25.341700 5.173700
25.366000 4.711700
25.390300 4.273400
25.414600 4.040300
25.438900 3.928900
25.463200 3.917800
25.487500 3.931800
25.511800 3.942500
25.536100 3.949600
25.560400 3.955200
25.584700 3.956700
25.609100 3.948900
25.633400 3.929800
25.657700 3.896400
25.682000 3.795300
25.706300 3.624800
25.730600 3.412600
25.754900 3.142600
25.779200 2.880600
25.803500 2.582700
25.827800 2.345200
25.852100 2.149800
25.876400 2.017900
25.900800 1.884600
25.925100 1.753100
25.949400 1.641500
25.973700 1.549600
25.998000 1.468400
26.022300 1.396400
26.046600 1.334900
26.070900 1.273400
26.095200 1.212300
26.119500 1.155300
26.143800 1.101200
26.168100 1.062900
26.192500 1.028100
26.216800 0.994000
26.241100 0.960400
26.265400 0.927400
26.289700 0.896200
26.314000 0.868800
26.338300 0.845300
26.362600 0.824400
26.386900 0.806500
26.411200 0.789600
26.435500 0.773600
26.459800 0.758600
26.484200 0.744600
26.508500 0.731600
26.532800 0.719600
26.557100 0.709500
26.581400 0.704400
26.605700 0.702500
26.630000 0.703800
26.654300 0.708200
26.678600 0.715700
26.702900 0.726800
26.727200 0.742200
26.751500 0.760200
26.775900 0.780800
26.800200 0.802800
26.824500 0.826300
26.848800 0.851400
26.873100 0.877900
26.897400 0.906000
26.921700 0.935600
26.946000 0.966700
26.970300 0.999400
26.994600 1.033500
27.018900 1.069100
27.043200 1.107300
27.067600 1.154800
27.091900 1.216400
27.116200 1.297100
27.140500 1.391600
27.164800 1.498000
27.189100 1.614100
27.213400 1.738300
27.237700 1.870800
27.262000 2.011500
27.286300 2.160400
27.310600 2.291500
27.334900 3.178700
27.359300 3.659400
27.383600 4.408200
27.407900 2.842200
27.432200 2.583800
27.456500 2.360800
27.480800 2.158200
27.505100 1.976000
27.529400 1.738500
27.553700 1.576200
27.578000 1.536600
27.602300 1.560000
27.626600 1.722200
27.651000 2.072000
27.675300 3.019500
27.699600 3.916300
27.723900 4.593500
27.748200 4.672800
27.772500 4.259400
27.796800 3.453800
27.821100 3.104100
27.845400 2.890900
27.869700 2.748500
27.894000 2.613600
27.918300 2.485400
27.942700 2.373300
27.967000 2.282100
27.991300 2.203100
28.015600 2.136200
28.039900 2.079200
28.064200 2.024800
28.088500 1.971800
28.112800 1.920200
28.137100 1.869500
28.161400 1.819400
28.185700 1.770000
28.210000 1.727800
28.234400 1.690400
28.258700 1.656600
28.283000 1.625900
28.307300 1.606700
28.331600 1.598400
28.355900 1.594500
28.380200 1.588400
28.404500 1.580100
28.428800 1.563100
28.453100 1.537200
28.477400 1.522200
28.501700 1.513100
28.526100 1.509900
28.550400 1.512800
28.574700 1.524300
28.599000 1.545800
28.623300 1.580000
28.647600 1.615900
28.671900 1.651300
28.696200 1.683900
28.720500 1.717900
28.744800 1.754700
28.769100 1.785400
28.793400 1.809900
28.817800 1.828300
28.842100 1.840600
28.866400 1.872400
28.890700 1.909900
28.915000 1.947500
28.939300 1.985000
28.963600 2.022500
28.987900 2.060100
29.012200 2.097600
29.036500 2.135200
29.060800 2.174900
29.085100 2.221500
29.109500 2.268200
29.133800 2.314800
29.158100 2.400200
29.182400 2.499100
29.206700 2.607000
29.231000 2.723900
29.255300 2.849900
29.279600 2.984800
29.303900 3.128700
29.328200 3.281700
29.352500 3.443600
29.376800 3.616300
29.401200 3.797800
29.425500 3.967800
29.449800 4.245300
29.474100 4.620800
29.498400 5.058200
29.522700 5.499700
29.547000 5.766300
29.571300 5.835400
29.595600 5.931100
29.619900 5.814100
29.644200 5.423400
29.668500 6.149500
29.692900 6.558500
29.717200 6.634100
29.741500 7.211900
29.765800 6.503200
29.790100 5.213400
29.814400 3.927400
29.838700 2.947200
29.863000 2.380300
29.887300 2.215300
29.911600 4.021100
29.935900 3.908000
29.960200 3.792400
29.984600 3.958800
30.008900 5.540000
30.033200 5.134700
30.057500 4.940800
30.081800 5.387800
30.106100 5.571100
30.130400 5.526500
30.154700 5.471400
30.179000 5.429100
30.203300 5.399500
30.227600 5.379100
30.252000 5.365500
30.276300 5.363900
30.300600 5.366700
30.324900 5.527300
30.349200 5.592500
30.373500 5.529500
30.397800 5.589800
30.422100 5.626100
30.446400 5.817600
30.470700 5.934800
30.495000 6.224500
30.519300 6.887800
30.543700 7.349600
30.568000 7.446300
30.592300 7.546400
30.616600 7.647200
30.640900 7.719500
30.665200 6.872500
30.689500 6.236600
30.713800 5.873600
30.738100 5.618800
30.762400 5.373700
30.786700 5.433000
30.811000 5.591600
30.835400 5.718300
30.859700 5.303100
30.884000 4.622500
30.908300 4.526000
30.932600 4.449300
30.956900 4.415200
30.981200 4.388100
31.005500 4.379800
31.029800 4.380500
31.054100 4.389200
31.078400 4.409400
31.102700 4.432300
31.127100 4.369100
31.151400 3.970900
31.175700 3.372600
31.200000 2.943200
31.224300 2.597400
31.248600 2.331600
31.272900 2.172200
31.297200 2.040000
31.321500 1.919700
31.345800 1.809300
31.370100 1.705600
31.394400 1.601900
31.418800 1.498400
31.443100 1.403800
31.467400 1.320800
31.491700 1.245800
31.516000 1.176400
31.540300 1.109200
31.564600 1.044200
31.588900 0.981500
31.613200 0.921100
31.637500 0.863500
31.661800 0.806600
31.686100 0.754500
31.710500 0.709800
31.734800 0.668500
31.759100 0.630600
31.783400 0.596200
31.807700 0.563500
31.832000 0.531900
31.856300 0.501300
31.880600 0.471700
31.904900 0.443100
31.929200 0.415500
31.953500 0.389000
31.977800 0.363400
32.002200 0.339400
32.026500 0.319100
32.050800 0.298800
32.075100 0.278500
32.099400 0.258200
32.123700 0.238000
32.148000 0.217700
32.172300 0.197400
32.196600 0.177100
32.220900 0.156800
32.245200 0.136600
32.269500 0.116300
32.293900 0.096000
32.318200 0.075800
32.342500 0.057100
32.366800 0.042600
32.391100 0.029300
32.415400 0.017500
32.439700 0.006900
32.464000 0.000000
32.488300 0.000000
32.512600 0.000000
32.536900 0.000000
32.561200 0.000000
32.585600 0.000000
32.609900 0.000000
32.634200 0.000000
32.658500 0.000000
32.682800 0.000000
32.707100 0.000000
32.731400 0.000000
32.755700 0.000000
32.780000 0.000000
32.804300 0.000000
32.828600 0.000000
32.852900 0.000000
32.877300 0.000000
32.901600 0.000000
32.925900 0.000000
32.950200 0.000000
32.974500 0.000000
32.998800 0.000000
33.023100 0.000000
33.047400 0.000000
33.071700 0.000000
33.096000 0.000000
33.120300 0.000000
33.144600 0.000000
33.169000 0.000000
33.193300 0.000000
33.217600 0.000000
33.241900 0.000000
33.266200 0.000000
33.290500 0.000000
33.314800 0.000000
33.339100 0.000000
33.363400 0.000000
33.387700 0.000000
33.412000 0.000000
33.436300 0.000000
33.460700 0.000000
33.485000 0.000000
33.509300 0.000000
33.533600 0.000000
33.557900 0.000000
33.582200 0.000000
33.606500 0.000000
33.630800 0.000000
33.655100 0.000000
33.679400 0.000000
33.703700 0.000000
33.728000 0.000000
33.752400 0.000000
33.776700 0.000000
33.801000 0.000000
33.825300 0.000000
33.849600 0.000000
33.873900 0.000000
33.898200 0.000000
33.922500 0.000000
33.946800 0.000000
33.971100 0.000000
33.995400 0.000000
34.019700 0.000000
34.044100 0.000000
34.068400 0.000000
34.092700 0.000000
34.117000 0.000000
34.141300 0.000000
34.165600 0.000000
34.189900 0.000000
34.214200 0.000000
34.238500 0.000000
34.262800 0.000000
34.287100 0.000000
34.311400 0.000000
34.335800 0.000000
34.360100 0.000000
34.384400 0.000000
34.408700 0.000000
34.433000 0.000000
34.457300 0.000000
34.481600 0.000000
34.505900 0.000000
34.530200 0.000000
34.554500 0.000000
34.578800 0.000000
34.603100 0.000000
34.627500 0.000000
34.651800 0.000000
34.676100 0.000000
e
