set title 'mp-1017539 - Density of States'
set xlabel 'Energy (eV)'
set ylabel 'DOS (states/eV)'
set grid
set xrange [-10:10]
set yrange [0:26.615]
set xzeroaxis lt -1
set terminal png size 800,600
set output 'mp-1017539_dos_gnuplot.png'
plot '-' using 1:2 with lines title 'DOS'
-19.679500 0.000000
-19.647000 0.000000
-19.614500 0.000000
-19.582000 0.000000
-19.549600 0.000000
-19.517100 0.000000
-19.484600 0.000000
-19.452100 0.000000
-19.419600 0.000000
-19.387200 0.000000
-19.354700 0.000000
-19.322200 0.000000
-19.289700 0.000000
-19.257300 0.000000
-19.224800 0.000000
-19.192300 0.000000
-19.159800 0.000000
-19.127300 0.000000
-19.094900 0.000000
-19.062400 0.000000
-19.029900 0.000000
-18.997400 0.000000
-18.965000 0.000000
-18.932500 0.000000
-18.900000 0.000000
-18.867500 0.000000
-18.835000 0.000000
-18.802600 0.000000
-18.770100 0.000000
-18.737600 0.000000
-18.705100 0.000000
-18.672700 0.000000
-18.640200 0.000000
-18.607700 0.000000
-18.575200 0.000000
-18.542800 0.000000
-18.510300 0.000000
-18.477800 0.000000
-18.445300 0.000000
-18.412800 0.000000
-18.380400 0.000000
-18.347900 0.000000
-18.315400 0.000000
-18.282900 0.000000
-18.250500 0.000000
-18.218000 0.000000
-18.185500 0.000000
-18.153000 0.000000
-18.120500 0.000000
-18.088100 0.000000
-18.055600 0.000000
-18.023100 0.000000
-17.990600 0.000000
-17.958200 0.000000
-17.925700 0.000000
-17.893200 0.000000
-17.860700 0.000000
-17.828200 0.000000
-17.795800 0.000000
-17.763300 0.000000
-17.730800 0.000000
-17.698300 0.000000
-17.665900 0.000000
-17.633400 0.000000
-17.600900 0.000000
-17.568400 0.000000
-17.535900 0.000000
-17.503500 0.000000
-17.471000 0.000000
-17.438500 0.000000
-17.406000 0.000000
-17.373600 0.000000
-17.341100 0.000000
-17.308600 0.000000
-17.276100 0.000000
-17.243600 0.000000
-17.211200 0.000000
-17.178700 0.000000
-17.146200 0.000000
-17.113700 0.000000
-17.081300 0.000000
-17.048800 0.000000
-17.016300 0.000000
-16.983800 0.000000
-16.951300 0.000000
-16.918900 0.000000
-16.886400 0.000000
-16.853900 0.000000
-16.821400 0.000000
-16.789000 0.000000
-16.756500 0.000000
-16.724000 0.005100
-16.691500 0.358800
-16.659100 0.563600
-16.626600 0.698600
-16.594100 0.854800
-16.561600 1.008900
-16.529100 1.143800
-16.496700 1.369900
-16.464200 1.518000
-16.431700 1.579200
-16.399200 1.711900
-16.366800 2.022800
-16.334300 2.257200
-16.301800 2.534000
-16.269300 2.845500
-16.236800 3.197600
-16.204400 3.678000
-16.171900 4.293500
-16.139400 5.150600
-16.106900 5.687400
-16.074500 6.433000
-16.042000 7.426900
-16.009500 9.089300
-15.977000 11.967500
-15.944500 12.826900
-15.912100 15.307100
-15.879600 14.237800
-15.847100 0.000000
-15.814600 0.000000
-15.782200 0.000000
-15.749700 0.000000
-15.717200 0.000000
-15.684700 0.000000
-15.652200 0.000000
-15.619800 0.000000
-15.587300 0.000000
-15.554800 0.000000
-15.522300 0.000000
-15.489900 0.000000
-15.457400 0.000000
-15.424900 0.000000
-15.392400 0.000000
-15.359900 0.000000
-15.327500 0.000000
-15.295000 0.000000
-15.262500 0.000000
-15.230000 0.000000
-15.197600 0.000000
-15.165100 0.000000
-15.132600 0.000000
-15.100100 0.000000
-15.067700 0.000000
-15.035200 0.000000
-15.002700 0.000000
-14.970200 0.000000
-14.937700 0.000000
-14.905300 0.000000
-14.872800 0.000000
-14.840300 0.000000
-14.807800 0.000000
-14.775400 0.000000
-14.742900 0.000000
-14.710400 0.000000
-14.677900 0.000000
-14.645400 0.000000
-14.613000 0.000000
-14.580500 0.000000
-14.548000 0.000000
-14.515500 0.000000
-14.483100 0.000000
-14.450600 0.000000
-14.418100 0.000000
-14.385600 0.000000
-14.353100 0.000000
-14.320700 0.000000
-14.288200 0.000000
-14.255700 0.000000
-14.223200 0.000000
-14.190800 0.000000
-14.158300 0.000000
-14.125800 0.000000
-14.093300 0.000000
-14.060800 0.000000
-14.028400 0.000000
-13.995900 0.000000
-13.963400 0.000000
-13.930900 0.000000
-13.898500 0.000000
-13.866000 0.000000
-13.833500 0.000000
-13.801000 0.000000
-13.768500 0.000000
-13.736100 0.000000
-13.703600 0.000000
-13.671100 0.000000
-13.638600 0.000000
-13.606200 0.000000
-13.573700 0.000000
-13.541200 0.000000
-13.508700 0.000000
-13.476200 0.000000
-13.443800 0.000000
-13.411300 0.000000
-13.378800 0.000000
-13.346300 0.000000
-13.313900 0.000000
-13.281400 0.000000
-13.248900 0.000000
-13.216400 0.000000
-13.184000 0.000000
-13.151500 0.000000
-13.119000 0.000000
-13.086500 0.000000
-13.054000 0.000000
-13.021600 0.000000
-12.989100 0.000000
-12.956600 0.000000
-12.924100 0.000000
-12.891700 0.000000
-12.859200 0.000000
-12.826700 0.000000
-12.794200 0.000000
-12.761700 0.000000
-12.729300 0.000000
-12.696800 0.000000
-12.664300 0.000000
-12.631800 0.000000
-12.599400 0.000000
-12.566900 0.000000
-12.534400 0.000000
-12.501900 0.000000
-12.469400 0.000000
-12.437000 0.000000
-12.404500 0.000000
-12.372000 0.000000
-12.339500 0.000000
-12.307100 0.000000
-12.274600 0.000000
-12.242100 0.000000
-12.209600 0.000000
-12.177100 0.000000
-12.144700 0.000000
-12.112200 0.000000
-12.079700 0.000000
-12.047200 0.000000
-12.014800 0.000000
-11.982300 0.000000
-11.949800 0.000000
-11.917300 0.000000
-11.884800 0.000000
-11.852400 0.000000
-11.819900 0.000000
-11.787400 0.000000
-11.754900 0.000000
-11.722500 0.000000
-11.690000 0.000000
-11.657500 0.000000
-11.625000 0.000000
-11.592600 0.000000
-11.560100 0.000000
-11.527600 0.000000
-11.495100 0.000000
-11.462600 0.000000
-11.430200 0.000000
-11.397700 0.000000
-11.365200 0.000000
-11.332700 0.000000
-11.300300 0.000000
-11.267800 0.000000
-11.235300 0.000000
-11.202800 0.000000
-11.170300 0.000000
-11.137900 0.000000
-11.105400 0.000000
-11.072900 0.000000
-11.040400 0.000000
-11.008000 0.000000
-10.975500 0.000000
-10.943000 0.000000
-10.910500 0.000000
-10.878000 0.000000
-10.845600 0.000000
-10.813100 0.000000
-10.780600 0.000000
-10.748100 0.000000
-10.715700 0.000000
-10.683200 0.000000
-10.650700 0.000000
-10.618200 0.000000
-10.585700 0.000000
-10.553300 0.000000
-10.520800 0.000000
-10.488300 0.000000
-10.455800 0.000000
-10.423400 0.000000
-10.390900 0.000000
-10.358400 0.000000
-10.325900 0.000000
-10.293400 0.000000
-10.261000 0.000000
-10.228500 0.000000
-10.196000 0.000000
-10.163500 0.000000
-10.131100 0.000000
-10.098600 0.000000
-10.066100 0.000000
-10.033600 0.000000
-10.001100 0.000000
-9.968700 0.000000
-9.936200 0.000000
-9.903700 0.000000
-9.871200 0.000000
-9.838800 0.000000
-9.806300 0.000000
-9.773800 0.000000
-9.741300 0.000000
-9.708900 0.000000
-9.676400 0.000000
-9.643900 0.000000
-9.611400 0.000000
-9.578900 0.000000
-9.546500 0.000000
-9.514000 0.000000
-9.481500 0.000000
-9.449000 0.000000
-9.416600 0.000000
-9.384100 0.000000
-9.351600 0.000000
-9.319100 0.000000
-9.286600 0.000000
-9.254200 0.000000
-9.221700 0.000000
-9.189200 0.000000
-9.156700 0.000000
-9.124300 0.000000
-9.091800 0.000000
-9.059300 0.000000
-9.026800 0.000000
-8.994300 0.000000
-8.961900 0.000000
-8.929400 0.000000
-8.896900 0.000000
-8.864400 0.000000
-8.832000 0.000000
-8.799500 0.000000
-8.767000 0.000000
-8.734500 0.000000
-8.702000 0.000000
-8.669600 0.000000
-8.637100 0.000000
-8.604600 0.000000
-8.572100 0.000000
-8.539700 0.000000
-8.507200 0.000000
-8.474700 0.000000
-8.442200 0.000000
-8.409700 0.000000
-8.377300 0.000000
-8.344800 0.000000
-8.312300 0.000000
-8.279800 0.000000
-8.247400 0.000000
-8.214900 0.000000
-8.182400 0.000000
-8.149900 0.000000
-8.117500 0.000000
-8.085000 0.000000
-8.052500 0.000000
-8.020000 0.000000
-7.987500 0.000000
-7.955100 0.000000
-7.922600 0.000000
-7.890100 0.000000
-7.857600 0.000000
-7.825200 0.000000
-7.792700 0.000000
-7.760200 0.000000
-7.727700 0.000000
-7.695200 0.000000
-7.662800 0.000000
-7.630300 0.000000
-7.597800 0.000000
-7.565300 0.000000
-7.532900 0.000000
-7.500400 0.000000
-7.467900 0.000000
-7.435400 0.000000
-7.402900 0.000000
-7.370500 0.000000
-7.338000 0.000000
-7.305500 0.000000
-7.273000 0.000000
-7.240600 0.000000
-7.208100 0.000000
-7.175600 0.000000
-7.143100 0.000000
-7.110600 0.000000
-7.078200 0.000000
-7.045700 0.000000
-7.013200 0.000000
-6.980700 0.000000
-6.948300 0.000000
-6.915800 0.000000
-6.883300 0.000000
-6.850800 0.000000
-6.818300 0.000000
-6.785900 0.000000
-6.753400 0.000000
-6.720900 0.000000
-6.688400 0.000000
-6.656000 0.000000
-6.623500 0.000000
-6.591000 0.000000
-6.558500 0.000000
-6.526000 0.000000
-6.493600 0.000000
-6.461100 0.000000
-6.428600 0.000000
-6.396100 0.000000
-6.363700 0.000000
-6.331200 0.000000
-6.298700 0.000000
-6.266200 0.000000
-6.233800 0.000000
-6.201300 0.000000
-6.168800 0.000000
-6.136300 0.000000
-6.103800 0.000000
-6.071400 0.000000
-6.038900 0.000000
-6.006400 0.000000
-5.973900 0.000000
-5.941500 0.000000
-5.909000 0.000000
-5.876500 0.000000
-5.844000 0.000000
-5.811500 0.000000
-5.779100 0.000000
-5.746600 0.000000
-5.714100 0.000000
-5.681600 0.000000
-5.649200 0.000000
-5.616700 0.000000
-5.584200 0.000000
-5.551700 0.000000
-5.519200 0.000000
-5.486800 0.000000
-5.454300 0.000000
-5.421800 0.000000
-5.389300 0.000000
-5.356900 0.000000
-5.324400 0.000000
-5.291900 0.000000
-5.259400 0.890700
-5.226900 2.293400
-5.194500 3.306700
-5.162000 4.494200
-5.129500 6.105600
-5.097000 12.725600
-5.064600 10.901100
-5.032100 11.345400
-4.999600 16.905400
-4.967100 10.681900
-4.934600 11.094500
-4.902200 12.529400
-4.869700 12.829900
-4.837200 14.037700
-4.804700 13.637100
-4.772300 17.532900
-4.739800 15.330400
-4.707300 15.530800
-4.674800 15.532800
-4.642400 15.642300
-4.609900 13.373700
-4.577400 11.857100
-4.544900 11.926900
-4.512400 11.327600
-4.480000 10.056300
-4.447500 9.386800
-4.415000 10.363000
-4.382500 9.480600
-4.350100 6.312200
-4.317600 6.267500
-4.285100 6.475200
-4.252600 4.335900
-4.220100 5.181100
-4.187700 5.153500
-4.155200 5.474400
-4.122700 5.582000
-4.090200 9.788400
-4.057800 20.626300
-4.025300 22.631100
-3.992800 19.621100
-3.960300 14.940700
-3.927800 19.082300
-3.895400 20.945400
-3.862900 24.195300
-3.830400 22.736700
-3.797900 21.399400
-3.765500 18.484400
-3.733000 9.995700
-3.700500 8.660600
-3.668000 6.018100
-3.635500 5.272100
-3.603100 5.214100
-3.570600 3.093000
-3.538100 2.480300
-3.505600 1.189200
-3.473200 1.558500
-3.440700 1.944200
-3.408200 2.894600
-3.375700 2.047400
-3.343200 1.908600
-3.310800 1.758400
-3.278300 1.665700
-3.245800 1.465300
-3.213300 1.471900
-3.180900 1.451900
-3.148400 1.448600
-3.115900 1.747700
-3.083400 1.613200
-3.050900 1.617400
-3.018500 1.616100
-2.986000 1.622200
-2.953500 1.620400
-2.921000 1.638000
-2.888600 1.656900
-2.856100 1.678700
-2.823600 1.706900
-2.791100 1.738000
-2.758700 1.758400
-2.726200 1.789400
-2.693700 1.846000
-2.661200 1.934300
-2.628700 2.027700
-2.596300 2.043600
-2.563800 2.018900
-2.531300 2.312000
-2.498800 2.449900
-2.466400 2.568400
-2.433900 2.649300
-2.401400 2.736900
-2.368900 2.807500
-2.336400 3.057200
-2.304000 3.446700
-2.271500 3.204600
-2.239000 2.921800
-2.206500 2.639300
-2.174100 2.469400
-2.141600 2.215600
-2.109100 2.066000
-2.076600 1.976100
-2.044100 2.253200
-2.011700 2.653900
-1.979200 2.859600
-1.946700 3.064700
-1.914200 3.077500
-1.881800 3.017500
-1.849300 2.317600
-1.816800 2.219100
-1.784300 2.051600
-1.751800 2.034400
-1.719400 2.078000
-1.686900 2.223600
-1.654400 2.216500
-1.621900 2.635600
-1.589500 2.168700
-1.557000 2.200700
-1.524500 2.225400
-1.492000 2.214700
-1.459500 2.228800
-1.427100 2.284700
-1.394600 2.346700
-1.362100 2.361900
-1.329600 2.366000
-1.297200 2.354100
-1.264700 2.338000
-1.232200 2.353900
-1.199700 2.363800
-1.167300 2.340400
-1.134800 2.329100
-1.102300 2.325000
-1.069800 2.323500
-1.037300 2.312700
-1.004900 2.307200
-0.972400 2.297400
-0.939900 2.261800
-0.907400 2.245900
-0.875000 2.320700
-0.842500 2.465500
-0.810000 2.614700
-0.777500 2.904400
-0.745000 3.511800
-0.712600 3.539300
-0.680100 3.421200
-0.647600 3.048600
-0.615100 2.802800
-0.582700 2.600200
-0.550200 3.257700
-0.517700 3.921800
-0.485200 4.034200
-0.452700 3.909900
-0.420300 4.003400
-0.387800 4.432500
-0.355300 4.632900
-0.322800 4.739900
-0.290400 4.664900
-0.257900 5.171200
-0.225400 5.500700
-0.192900 6.715700
-0.160400 6.394400
-0.128000 6.961500
-0.095500 7.290200
-0.063000 7.663500
-0.030500 8.831400
0.001900 8.825200
0.034400 5.656200
0.066900 4.897000
0.099400 4.398200
0.131900 4.090600
0.164300 3.840000
0.196800 3.628200
0.229300 3.432600
0.261800 3.215500
0.294200 3.072100
0.326700 2.969200
0.359200 2.809500
0.391700 2.584500
0.424200 2.325000
0.456600 2.164600
0.489100 2.056800
0.521600 1.910500
0.554100 1.682800
0.586500 1.624400
0.619000 1.350700
0.651500 1.127700
0.684000 0.975300
0.716400 0.899200
0.748900 0.617200
0.781400 0.418300
0.813900 0.201500
0.846400 0.000000
0.878800 0.000000
0.911300 0.000000
0.943800 0.000000
0.976300 0.000000
1.008700 0.000000
1.041200 0.000000
1.073700 0.000000
1.106200 0.000000
1.138700 0.000000
1.171100 0.000000
1.203600 0.000000
1.236100 0.000000
1.268600 0.000000
1.301000 0.000000
1.333500 0.000300
1.366000 0.000900
1.398500 0.001800
1.431000 0.003000
1.463400 0.004400
1.495900 0.006200
1.528400 0.008200
1.560900 0.010500
1.593300 0.013100
1.625800 0.016500
1.658300 0.020900
1.690800 0.023600
1.723300 0.026000
1.755700 0.028300
1.788200 0.030400
1.820700 0.032300
1.853200 0.034000
1.885600 0.035500
1.918100 0.038000
1.950600 0.040600
1.983100 0.043300
2.015600 0.046000
2.048000 0.048800
2.080500 0.051700
2.113000 0.054600
2.145500 0.057600
2.177900 0.060600
2.210400 0.063700
2.242900 0.066700
2.275400 0.069800
2.307800 0.072700
2.340300 0.075900
2.372800 0.079500
2.405300 0.083300
2.437800 0.086900
2.470200 0.090400
2.502700 0.093900
2.535200 0.097400
2.567700 0.101000
2.600100 0.104500
2.632600 0.108200
2.665100 0.111800
2.697600 0.115500
2.730100 0.119300
2.762500 0.123200
2.795000 0.127400
2.827500 0.131900
2.860000 0.136800
2.892400 0.141700
2.924900 0.146500
2.957400 0.151200
2.989900 0.155800
3.022400 0.160500
3.054800 0.165100
3.087300 0.169800
3.119800 0.174400
3.152300 0.179100
3.184700 0.183900
3.217200 0.188600
3.249700 0.194000
3.282200 0.199800
3.314700 0.205500
3.347100 0.211400
3.379600 0.217300
3.412100 0.223300
3.444600 0.229400
3.477000 0.241200
3.509500 0.255000
3.542000 0.267900
3.574500 0.279900
3.607000 0.273500
3.639400 0.278400
3.671900 0.283200
3.704400 0.288400
3.736900 0.294200
3.769300 0.300100
3.801800 0.306000
3.834300 0.311600
3.866800 0.316500
3.899300 0.321300
3.931700 0.326100
3.964200 0.331100
3.996700 0.336200
4.029200 0.341200
4.061600 0.346300
4.094100 0.358600
4.126600 0.375900
4.159100 0.395700
4.191500 0.417800
4.224000 0.414700
4.256500 0.426100
4.289000 0.437800
4.321500 0.449800
4.353900 0.461700
4.386400 0.473600
4.418900 0.485600
4.451400 0.497400
4.483800 0.509500
4.516300 0.522000
4.548800 0.535500
4.581300 0.552800
4.613800 0.570800
4.646200 0.588000
4.678700 0.605700
4.711200 0.624000
4.743700 0.646300
4.776100 0.667300
4.808600 0.689400
4.841100 0.712500
4.873600 0.737500
4.906100 0.765300
4.938500 0.801200
4.971000 0.849200
5.003500 0.916500
5.036000 1.017100
5.068400 1.182900
5.100900 1.656000
5.133400 1.883200
5.165900 1.974100
5.198400 2.128500
5.230800 2.421000
5.263300 2.642000
5.295800 3.291700
5.328300 3.057300
5.360700 2.823500
5.393200 2.688400
5.425700 2.628500
5.458200 2.679100
5.490700 2.826300
5.523100 2.524400
5.555600 2.129200
5.588100 1.988300
5.620600 1.951400
5.653000 1.964900
5.685500 2.047900
5.718000 2.132900
5.750500 2.658300
5.782900 3.266100
5.815400 3.136800
5.847900 2.585600
5.880400 2.308600
5.912900 2.151900
5.945300 2.010100
5.977800 1.877200
6.010300 1.786400
6.042800 1.703700
6.075200 1.632100
6.107700 1.553300
6.140200 1.471600
6.172700 1.393100
6.205200 1.276100
6.237600 1.333600
6.270100 1.171400
6.302600 1.069600
6.335100 1.020600
6.367500 0.971200
6.400000 0.933300
6.432500 0.868000
6.465000 0.808700
6.497500 0.723700
6.529900 0.675000
6.562400 0.629800
6.594900 0.586900
6.627400 0.539300
6.659800 0.485100
6.692300 0.456100
6.724800 0.400500
6.757300 0.327400
6.789800 0.274200
6.822200 0.241100
6.854700 0.212500
6.887200 0.190900
6.919700 0.166900
6.952100 0.147300
6.984600 0.091000
7.017100 0.000000
7.049600 0.000000
7.082100 0.000000
7.114500 0.020100
7.147000 0.044800
7.179500 0.066100
7.212000 0.073100
7.244400 0.079800
7.276900 0.086600
7.309400 0.093000
7.341900 0.099500
7.374400 0.108300
7.406800 0.119400
7.439300 0.132800
7.471800 0.148600
7.504300 0.166800
7.536700 0.186200
7.569200 0.197600
7.601700 0.210700
7.634200 0.223800
7.666600 0.234600
7.699100 0.243500
7.731600 0.250900
7.764100 0.260800
7.796600 0.274000
7.829000 0.289100
7.861500 0.305100
7.894000 0.322100
7.926500 0.339000
7.958900 0.355500
7.991400 0.372300
8.023900 0.389500
8.056400 0.407300
8.088900 0.425300
8.121300 0.443200
8.153800 0.461300
8.186300 0.482200
8.218800 0.505600
8.251200 0.528300
8.283700 0.552200
8.316200 0.577000
8.348700 0.602900
8.381200 0.629900
8.413600 0.658700
8.446100 0.689700
8.478600 0.746200
8.511100 0.795800
8.543500 0.809900
8.576000 0.823800
8.608500 0.836300
8.641000 0.829000
8.673500 0.836600
8.705900 0.857000
8.738400 0.878300
8.770900 0.904000
8.803400 0.929200
8.835800 0.954700
8.868300 0.980700
8.900800 1.007200
8.933300 1.034100
8.965800 1.064800
8.998200 1.100500
9.030700 1.144700
9.063200 1.312900
9.095700 1.318200
9.128100 1.326800
9.160600 1.385600
9.193100 1.374500
9.225600 1.376700
9.258000 1.478900
9.290500 1.426800
9.323000 1.379400
9.355500 1.375300
9.388000 1.358000
9.420400 1.304900
9.452900 1.253700
9.485400 1.313100
9.517900 1.196000
9.550300 0.864500
9.582800 0.806300
9.615300 0.744500
9.647800 0.795100
9.680300 1.110900
9.712700 1.122200
9.745200 1.316400
9.777700 1.642000
9.810200 1.491200
9.842600 1.577700
9.875100 1.709400
9.907600 1.918800
9.940100 2.416000
9.972600 2.756200
10.005000 3.075400
10.037500 3.631600
10.070000 3.598400
10.102500 3.478400
10.134900 3.338100
10.167400 3.237900
10.199900 3.038900
10.232400 2.758300
10.264900 2.245800
10.297300 2.122200
10.329800 1.807300
10.362300 1.739200
10.394800 1.686000
10.427200 1.569000
10.459700 1.922600
10.492200 0.511200
10.524700 0.364200
10.557200 0.357800
10.589600 0.351400
10.622100 0.344600
10.654600 0.337300
10.687100 0.329600
10.719500 0.321600
10.752000 0.316200
10.784500 0.316800
10.817000 0.320200
10.849500 0.320100
10.881900 0.316400
10.914400 0.311500
10.946900 0.376900
10.979400 0.485900
11.011800 1.445000
11.044300 0.292100
11.076800 0.516600
11.109300 0.599400
11.141700 0.793600
11.174200 0.955700
11.206700 1.104200
11.239200 1.451100
11.271700 1.377400
11.304100 1.460300
11.336600 1.682400
11.369100 2.959900
11.401600 2.963300
11.434000 2.166200
11.466500 2.096400
11.499000 2.177700
11.531500 2.339900
11.564000 2.308100
11.596400 2.313800
11.628900 2.343800
11.661400 2.380300
11.693900 2.445900
11.726300 2.519800
11.758800 2.459300
11.791300 2.432600
11.823800 2.469400
11.856300 2.550900
11.888700 2.593500
11.921200 3.004200
11.953700 3.322100
11.986200 2.896400
12.018600 2.494700
12.051100 2.277700
12.083600 2.151500
12.116100 2.163400
12.148600 1.912900
12.181000 1.946200
12.213500 1.959800
12.246000 2.425100
12.278500 2.706500
12.310900 3.308200
12.343400 2.765700
12.375900 2.633400
12.408400 2.206400
12.440900 1.990600
12.473300 1.921400
12.505800 1.814900
12.538300 1.738500
12.570800 1.680700
12.603200 1.638300
12.635700 1.599400
12.668200 1.566900
12.700700 1.542700
12.733100 1.522300
12.765600 1.509200
12.798100 1.495800
12.830600 1.480000
12.863100 1.452100
12.895500 1.421900
12.928000 1.396000
12.960500 1.479100
12.993000 1.453900
13.025400 1.419800
13.057900 1.393000
13.090400 1.375200
13.122900 1.370800
13.155400 1.368900
13.187800 1.362900
13.220300 1.379000
13.252800 1.395000
13.285300 1.451700
13.317700 1.309300
13.350200 1.326100
13.382700 1.204000
13.415200 1.228100
13.447700 1.330800
13.480100 1.315200
13.512600 1.358300
13.545100 1.446800
13.577600 1.417500
13.610000 1.325300
13.642500 1.244900
13.675000 1.176100
13.707500 1.154000
13.740000 1.189200
13.772400 1.217600
13.804900 1.219700
13.837400 1.612300
13.869900 1.252400
13.902300 1.234900
13.934800 1.256000
13.967300 1.297800
13.999800 1.434300
14.032300 1.684200
14.064700 2.098100
14.097200 2.212300
14.129700 2.167900
14.162200 2.203300
14.194600 2.450600
14.227100 2.346700
14.259600 2.401900
14.292100 2.153900
14.324600 2.125600
14.357000 2.096300
14.389500 2.054700
14.422000 1.934900
14.454500 1.903200
14.486900 1.873000
14.519400 1.950100
14.551900 1.951900
14.584400 1.883100
14.616800 1.634300
14.649300 1.554500
14.681800 1.482600
14.714300 1.431500
14.746800 1.591000
14.779200 1.829500
14.811700 2.475100
14.844200 3.830800
14.876700 3.758200
14.909100 3.686300
14.941600 3.173400
14.974100 2.291500
15.006600 1.877100
15.039100 1.829300
15.071500 1.734700
15.104000 1.638200
15.136500 1.586700
15.169000 1.535800
15.201400 1.456800
15.233900 1.337700
15.266400 1.158900
15.298900 1.065200
15.331400 0.992700
15.363800 0.916800
15.396300 0.855800
15.428800 0.810900
15.461300 0.773200
15.493700 0.762600
15.526200 0.615100
15.558700 0.554000
15.591200 0.532500
15.623700 0.483400
15.656100 0.466200
15.688600 0.482100
15.721100 0.500700
15.753600 0.542300
15.786000 0.591600
15.818500 0.678000
15.851000 0.760400
15.883500 0.873700
15.916000 0.995700
15.948400 1.078400
15.980900 1.075700
16.013400 1.075800
16.045900 1.071300
16.078300 1.055500
16.110800 1.038400
16.143300 1.023900
16.175800 1.018600
16.208200 1.015600
16.240700 1.015500
16.273200 1.024500
16.305700 1.035000
16.338200 1.046500
16.370600 1.057800
16.403100 1.062600
16.435600 1.075400
16.468100 1.093400
16.500500 1.100500
16.533000 1.110500
16.565500 1.124100
16.598000 1.139700
16.630500 1.170700
16.662900 1.189900
16.695400 1.213600
16.727900 1.235600
16.760400 1.243200
16.792800 1.265200
16.825300 1.288400
16.857800 1.297200
16.890300 1.298000
16.922800 1.292900
16.955200 1.270800
16.987700 1.247000
17.020200 1.222100
17.052700 1.195800
17.085100 1.159000
17.117600 1.130200
17.150100 1.121900
17.182600 1.120000
17.215100 1.196400
17.247500 1.124100
17.280000 1.054400
17.312500 0.995100
17.345000 1.001800
17.377400 0.925000
17.409900 0.926000
17.442400 0.998800
17.474900 0.909700
17.507400 0.907200
17.539800 0.904900
17.572300 0.902400
17.604800 0.898800
17.637300 0.893200
17.669700 0.887100
17.702200 0.881000
17.734700 0.885700
17.767200 0.865600
17.799700 0.875900
17.832100 0.891800
17.864600 0.910500
17.897100 0.932600
17.929600 0.959600
17.962000 0.992100
17.994500 1.029400
18.027000 1.125400
18.059500 1.138500
18.091900 1.153100
18.124400 1.730600
18.156900 1.115900
18.189400 1.113000
18.221900 1.166200
18.254300 1.224300
18.286800 1.235800
18.319300 1.333400
18.351800 1.436000
18.384200 1.636400
18.416700 1.542500
18.449200 1.602700
18.481700 1.664500
18.514200 1.687300
18.546600 1.674500
18.579100 1.672800
18.611600 1.697500
18.644100 1.723700
18.676500 1.751700
18.709000 1.754500
18.741500 1.729200
18.774000 1.706500
18.806500 1.669100
18.838900 1.590900
18.871400 1.455400
18.903900 1.286300
18.936400 1.132900
18.968800 1.001800
19.001300 0.944200
19.033800 0.949500
19.066300 0.947500
19.098800 0.838300
19.131200 0.612000
19.163700 0.567200
19.196200 0.568300
19.228700 0.531900
19.261100 0.526400
19.293600 0.531300
19.326100 0.538200
19.358600 0.546000
19.391100 0.552500
19.423500 0.541000
19.456000 0.511100
19.488500 0.477400
19.521000 0.392900
19.553400 0.350800
19.585900 0.321300
19.618400 0.304600
19.650900 0.297600
19.683300 0.301200
19.715800 0.313200
19.748300 0.320400
19.780800 0.323400
19.813300 0.337700
19.845700 0.366700
19.878200 0.403900
19.910700 0.480600
19.943200 0.537600
19.975600 0.594600
20.008100 0.647100
20.040600 0.696300
20.073100 0.744000
20.105600 0.791000
20.138000 0.932900
20.170500 1.050200
20.203000 1.218000
20.235500 1.406600
20.267900 1.461300
20.300400 1.532600
20.332900 1.632700
20.365400 1.698200
20.397900 1.806900
20.430300 1.845700
20.462800 1.820500
20.495300 1.779000
20.527800 1.680700
20.560200 1.616300
20.592700 1.566400
20.625200 1.523100
20.657700 1.557700
20.690200 1.452900
20.722600 1.394000
20.755100 1.367000
20.787600 1.329300
20.820100 1.313300
20.852500 1.236200
20.885000 1.187300
20.917500 1.169200
20.950000 1.169000
20.982500 1.172500
21.014900 1.191100
21.047400 1.230400
21.079900 1.303900
21.112400 1.382800
21.144800 1.459300
21.177300 1.503900
21.209800 1.547600
21.242300 1.475600
21.274800 1.393200
21.307200 1.408000
21.339700 1.400200
21.372200 1.376900
21.404700 1.354900
21.437100 1.362100
21.469600 1.321500
21.502100 1.318300
21.534600 1.317500
21.567000 1.384500
21.599500 1.405400
21.632000 1.427700
21.664500 1.445400
21.697000 1.469400
21.729400 1.508600
21.761900 1.546900
21.794400 1.589300
21.826900 1.602600
21.859300 1.575400
21.891800 1.587300
21.924300 1.512200
21.956800 1.637700
21.989300 1.805900
22.021700 1.833600
22.054200 1.813700
22.086700 1.805700
22.119200 1.754800
22.151600 1.748400
22.184100 1.736600
22.216600 1.732200
22.249100 1.731100
22.281600 1.734000
22.314000 1.743200
22.346500 1.748600
22.379000 1.763000
22.411500 1.783000
22.443900 1.823900
22.476400 1.885900
22.508900 1.948500
22.541400 1.966200
22.573900 1.990000
22.606300 1.952400
22.638800 1.901200
22.671300 1.889000
22.703800 1.882200
22.736200 1.872600
22.768700 1.821000
22.801200 1.821000
22.833700 1.891500
22.866200 2.096600
22.898600 2.553300
22.931100 2.455500
22.963600 2.374800
22.996100 2.331800
23.028500 2.267000
23.061000 2.208100
23.093500 2.225500
23.126000 2.253900
23.158400 2.286800
23.190900 2.301700
23.223400 2.074300
23.255900 1.856600
23.288400 1.718900
23.320800 1.822600
23.353300 1.665900
23.385800 1.576700
23.418300 1.506000
23.450700 1.464900
23.483200 1.515200
23.515700 1.591900
23.548200 1.614800
23.580700 1.656400
23.613100 1.681500
23.645600 1.660900
23.678100 1.666400
23.710600 1.703700
23.743000 1.760000
23.775500 1.835000
23.808000 1.949200
23.840500 2.115300
23.873000 2.270500
23.905400 2.113600
23.937900 2.089900
23.970400 2.210800
24.002900 2.278500
24.035300 2.306100
24.067800 2.321800
24.100300 2.263800
24.132800 2.118500
24.165300 2.071500
24.197700 2.048900
24.230200 2.078700
24.262700 2.161400
24.295200 2.205900
24.327600 2.273900
24.360100 2.285500
24.392600 2.237900
24.425100 2.239200
24.457600 2.214100
24.490000 2.044500
24.522500 1.988800
24.555000 1.930000
24.587500 1.861700
24.619900 1.654700
24.652400 1.627000
24.684900 1.602000
24.717400 1.548600
24.749900 1.495000
24.782300 1.441100
24.814800 1.394200
24.847300 1.367700
24.879800 1.345500
24.912200 1.337800
24.944700 1.333700
24.977200 1.415500
25.009700 1.354200
25.042100 1.393100
25.074600 1.434400
25.107100 1.460500
25.139600 1.423900
25.172100 1.432000
25.204500 1.454600
25.237000 1.459100
25.269500 1.462700
25.302000 1.481400
25.334400 1.565600
25.366900 1.759600
25.399400 1.627100
25.431900 1.721100
25.464400 2.002700
25.496800 2.208400
25.529300 2.252500
25.561800 2.383700
25.594300 2.407400
25.626700 2.466200
25.659200 2.570100
25.691700 2.612700
25.724200 2.645000
25.756700 2.730300
25.789100 2.759200
25.821600 2.819100
25.854100 2.846700
25.886600 2.849400
25.919000 2.835200
25.951500 2.973900
25.984000 3.038000
26.016500 2.997300
26.049000 2.866300
26.081400 2.818400
26.113900 2.800800
26.146400 2.809100
26.178900 2.806600
26.211300 2.982000
26.243800 2.742100
26.276300 2.500300
26.308800 2.423700
26.341300 2.381300
26.373700 2.369000
26.406200 2.617700
26.438700 2.719300
26.471200 2.725300
26.503600 2.859400
26.536100 3.365200
26.568600 2.991400
26.601100 2.924700
26.633500 2.878700
26.666000 3.079000
26.698500 2.933100
26.731000 2.772400
26.763500 2.594200
26.795900 2.475600
26.828400 2.452500
26.860900 2.384900
26.893400 2.318400
26.925800 2.160100
26.958300 2.132100
26.990800 2.172900
27.023300 2.252200
27.055800 2.228100
27.088200 2.205900
27.120700 2.222400
27.153200 2.760600
27.185700 2.745100
27.218100 2.648000
27.250600 2.567200
27.283100 2.526800
27.315600 2.561900
27.348100 2.593200
27.380500 2.645500
27.413000 2.712700
27.445500 2.669300
27.478000 2.661000
27.510400 2.742700
27.542900 2.744100
27.575400 2.720200
27.607900 2.756200
27.640400 2.770700
27.672800 2.789100
27.705300 2.836600
27.737800 2.881100
27.770300 2.941200
27.802700 3.001500
27.835200 2.909700
27.867700 2.826400
27.900200 2.706000
27.932700 2.687100
27.965100 2.622100
27.997600 2.621200
28.030100 2.624300
28.062600 2.632500
28.095000 2.644700
28.127500 2.743600
28.160000 2.975000
28.192500 2.935000
28.225000 2.900700
28.257400 3.025000
28.289900 3.068600
28.322400 2.897300
28.354900 2.628600
28.387300 2.790900
28.419800 2.493600
28.452300 2.366100
28.484800 2.343000
28.517200 2.291000
28.549700 2.228900
28.582200 2.299000
28.614700 2.396300
28.647200 2.558400
28.679600 2.629900
28.712100 2.670500
28.744600 2.659600
28.777100 2.566400
28.809500 2.361900
28.842000 2.360100
28.874500 2.379400
28.907000 2.417500
28.939500 2.520700
28.971900 2.686100
29.004400 2.718400
29.036900 2.789200
29.069400 2.666900
29.101800 2.815400
29.134300 2.904300
29.166800 2.961400
29.199300 2.972700
29.231800 3.635400
29.264200 2.944000
29.296700 2.853400
29.329200 2.635600
29.361700 2.467400
29.394100 2.301100
29.426600 2.147600
29.459100 2.067700
29.491600 1.839200
29.524100 1.661100
29.556500 1.491700
29.589000 1.414500
29.621500 1.353400
29.654000 1.307300
29.686400 1.262500
29.718900 1.225100
29.751400 1.217400
29.783900 1.226900
29.816400 1.131800
29.848800 1.125300
29.881300 1.332200
29.913800 1.900400
29.946300 2.659300
29.978700 2.547100
30.011200 1.899400
30.043700 1.728300
30.076200 1.634800
30.108600 1.603300
30.141100 1.577700
30.173600 1.546800
30.206100 1.483800
30.238600 1.512100
30.271000 1.367000
30.303500 1.372000
30.336000 1.433800
30.368500 1.552400
30.400900 2.227100
30.433400 1.711200
30.465900 1.499000
30.498400 1.331000
30.530900 1.231800
30.563300 1.181000
30.595800 1.188700
30.628300 1.242500
30.660800 1.093200
30.693200 1.075300
30.725700 1.067000
30.758200 1.062500
30.790700 1.053400
30.823200 1.042100
30.855600 1.037400
30.888100 1.035400
30.920600 1.040600
30.953100 1.082900
30.985500 1.233500
31.018000 1.194500
31.050500 1.219000
31.083000 1.201700
31.115500 1.269400
31.147900 1.359000
31.180400 1.428100
31.212900 1.493700
31.245400 1.552900
31.277800 1.620600
31.310300 1.604500
31.342800 1.620000
31.375300 1.794400
31.407800 1.649700
31.440200 1.657400
31.472700 1.660200
31.505200 1.674400
31.537700 1.697000
31.570100 1.700700
31.602600 1.685200
31.635100 1.671300
31.667600 1.665200
31.700100 1.680000
31.732500 1.727400
31.765000 1.783000
31.797500 1.920200
31.830000 2.193700
31.862400 2.212900
31.894900 2.150400
31.927400 2.091500
31.959900 2.046200
31.992300 1.976100
32.024800 2.008400
32.057300 2.056900
32.089800 2.037900
32.122300 2.066300
32.154700 2.153600
32.187200 2.208300
32.219700 2.081900
32.252200 1.961300
32.284600 1.921500
32.317100 1.922300
32.349600 1.925500
32.382100 1.894500
32.414600 1.878800
32.447000 1.922000
32.479500 1.883800
32.512000 1.921400
32.544500 1.970600
32.576900 2.168900
32.609400 1.880800
32.641900 1.884200
32.674400 1.934200
32.706900 2.178500
32.739300 2.112400
32.771800 2.163600
32.804300 2.235100
32.836800 2.399100
32.869200 2.145000
32.901700 2.132700
32.934200 2.143500
32.966700 2.029000
32.999200 2.042400
33.031600 2.085200
33.064100 1.960200
33.096600 1.844300
33.129100 1.785200
33.161500 1.731100
33.194000 1.712900
33.226500 1.704800
33.259000 1.657800
33.291500 1.584900
33.323900 1.567700
33.356400 1.551700
33.388900 1.539300
33.421400 1.481000
33.453800 1.507400
33.486300 1.484500
33.518800 1.499500
33.551300 1.644800
33.583700 1.599200
33.616200 1.618600
33.648700 1.660200
33.681200 1.704900
33.713700 1.753500
33.746100 1.808600
33.778600 1.861900
33.811100 1.902600
33.843600 1.937600
33.876000 1.973800
33.908500 2.004700
33.941000 2.040600
33.973500 2.132400
34.006000 2.052900
34.038400 1.996800
34.070900 2.112100
34.103400 1.967000
34.135900 1.888600
34.168300 1.884700
34.200800 2.096500
34.233300 1.654100
34.265800 1.614900
34.298300 1.605000
34.330700 1.604000
34.363200 1.612300
34.395700 1.626900
34.428200 1.643500
34.460600 1.659700
34.493100 1.690400
34.525600 1.718500
34.558100 1.737900
34.590600 1.725300
34.623000 1.691200
34.655500 1.642400
34.688000 1.615200
34.720500 1.677900
34.752900 1.703500
34.785400 1.742400
34.817900 1.639700
34.850400 1.667200
34.882900 1.637800
34.915300 1.649200
34.947800 1.679300
34.980300 1.714600
35.012800 1.759900
35.045200 1.811000
35.077700 1.857600
35.110200 1.911200
35.142700 1.969900
35.175200 2.032800
35.207600 2.176300
35.240100 2.405600
35.272600 2.421700
35.305100 2.361500
35.337500 2.308100
35.370000 2.252200
35.402500 2.188800
35.435000 2.125400
35.467400 2.095100
35.499900 2.096600
35.532400 2.215700
35.564900 2.299300
35.597400 2.399500
35.629800 2.360300
35.662300 2.290400
35.694800 2.306300
35.727300 2.329000
35.759700 2.344800
35.792200 2.366600
35.824700 2.351700
35.857200 2.342800
35.889700 2.256500
35.922100 2.213300
35.954600 2.068400
35.987100 2.026500
36.019600 1.981900
36.052000 1.928300
36.084500 1.886800
36.117000 1.899400
36.149500 1.954100
36.182000 1.993200
36.214400 2.177300
36.246900 2.468200
36.279400 2.447000
36.311900 2.246300
36.344300 2.204100
36.376800 2.267700
36.409300 2.410500
36.441800 2.612900
36.474300 2.624100
36.506700 2.590000
36.539200 2.440300
36.571700 2.378000
36.604200 2.326400
36.636600 2.206700
36.669100 2.104700
36.701600 2.070600
36.734100 1.904000
36.766600 1.874300
36.799000 1.879000
36.831500 1.924500
36.864000 2.014400
36.896500 2.424000
36.928900 2.600800
36.961400 2.732600
36.993900 2.768600
37.026400 2.798200
37.058800 2.719100
37.091300 2.512500
37.123800 2.303400
37.156300 2.148500
37.188800 2.037400
37.221200 1.972500
37.253700 1.993300
37.286200 2.149700
37.318700 2.347900
37.351100 2.399100
37.383600 2.253000
37.416100 2.236800
37.448600 2.163100
37.481100 2.087800
37.513500 2.058300
37.546000 2.061200
37.578500 2.006200
37.611000 1.949100
37.643400 1.853800
37.675900 1.768700
37.708400 1.634300
37.740900 1.540700
37.773400 1.507900
37.805800 1.402700
37.838300 1.391300
37.870800 1.417800
37.903300 1.467000
37.935700 1.570500
37.968200 1.651000
38.000700 1.759700
38.033200 1.903200
38.065700 2.050100
38.098100 2.191800
38.130600 2.333900
38.163100 2.491700
38.195600 2.671400
38.228000 2.790200
38.260500 2.847900
38.293000 2.925200
38.325500 3.025300
38.358000 2.809300
38.390400 2.866200
38.422900 2.826200
38.455400 2.764200
38.487900 2.741000
38.520300 2.753800
38.552800 2.909600
38.585300 2.986100
38.617800 2.936300
38.650300 2.811300
38.682700 2.552000
38.715200 2.492800
38.747700 2.509100
38.780200 2.519100
38.812600 2.505100
38.845100 2.489400
38.877600 2.525900
38.910100 2.539500
38.942500 2.393600
38.975000 2.401600
39.007500 2.362400
39.040000 2.385900
39.072500 2.245400
39.104900 2.126400
39.137400 2.001200
39.169900 1.899600
39.202400 1.757600
39.234800 1.636300
39.267300 1.582400
39.299800 1.535500
39.332300 1.504300
39.364800 1.428200
39.397200 1.399500
39.429700 1.355500
39.462200 1.306900
39.494700 1.259900
39.527100 1.205100
39.559600 1.160100
39.592100 1.101200
39.624600 1.014100
39.657100 0.925500
39.689500 0.854400
39.722000 0.744800
39.754500 0.661400
39.787000 0.608700
39.819400 0.564900
39.851900 0.526800
39.884400 0.491100
39.916900 0.466500
39.949400 0.440000
39.981800 0.415900
40.014300 0.394200
40.046800 0.374300
40.079300 0.355300
40.111700 0.337300
40.144200 0.329700
40.176700 0.343500
40.209200 0.321300
40.241700 0.299700
40.274100 0.269200
40.306600 0.231000
40.339100 0.208600
40.371600 0.199700
40.404000 0.190000
40.436500 0.182100
40.469000 0.175200
40.501500 0.168800
40.534000 0.162800
40.566400 0.157400
40.598900 0.152300
40.631400 0.147400
40.663900 0.142600
40.696300 0.137900
40.728800 0.136300
40.761300 0.133300
40.793800 0.130400
40.826200 0.127000
40.858700 0.122700
40.891200 0.118400
40.923700 0.114300
40.956200 0.110200
40.988600 0.106300
41.021100 0.102400
41.053600 0.098600
41.086100 0.094800
41.118500 0.091200
41.151000 0.087600
41.183500 0.084100
41.216000 0.080600
41.248500 0.077300
41.280900 0.081200
41.313400 0.080000
41.345900 0.076000
41.378400 0.070000
41.410800 0.065900
41.443300 0.061400
41.475800 0.056400
41.508300 0.051000
41.540800 0.039500
41.573200 0.047000
41.605700 0.045000
41.638200 0.043000
41.670700 0.041100
41.703100 0.039200
41.735600 0.037300
41.768100 0.037400
41.800600 0.035100
41.833100 0.032900
41.865500 0.030700
41.898000 0.028600
41.930500 0.026500
41.963000 0.024500
41.995400 0.022500
42.027900 0.020600
42.060400 0.027800
42.092900 0.024000
42.125400 0.020200
42.157800 0.016600
42.190300 0.013100
42.222800 0.009700
42.255300 0.006400
42.287700 0.003200
42.320200 0.000200
42.352700 0.000000
42.385200 0.000000
42.417600 0.000000
42.450100 0.000000
42.482600 0.000000
42.515100 0.000000
42.547600 0.000000
42.580000 0.000000
42.612500 0.000000
42.645000 0.000000
42.677500 0.000000
42.709900 0.000000
42.742400 0.000000
42.774900 0.000000
42.807400 0.000000
42.839900 0.000000
42.872300 0.000000
42.904800 0.000000
42.937300 0.000000
42.969800 0.000000
43.002200 0.000000
43.034700 0.000000
43.067200 0.000000
43.099700 0.000000
43.132200 0.000000
43.164600 0.000000
43.197100 0.000000
43.229600 0.000000
43.262100 0.000000
43.294500 0.000000
43.327000 0.000000
43.359500 0.000000
43.392000 0.000000
43.424500 0.000000
43.456900 0.000000
43.489400 0.000000
43.521900 0.000000
43.554400 0.000000
43.586800 0.000000
43.619300 0.000000
43.651800 0.000000
43.684300 0.000000
43.716800 0.000000
43.749200 0.000000
43.781700 0.000000
43.814200 0.000000
43.846700 0.000000
43.879100 0.000000
43.911600 0.000000
43.944100 0.000000
43.976600 0.000000
44.009100 0.000000
44.041500 0.000000
44.074000 0.000000
44.106500 0.000000
44.139000 0.000000
44.171400 0.000000
44.203900 0.000000
44.236400 0.000000
44.268900 0.000000
44.301300 0.000000
44.333800 0.000000
44.366300 0.000000
44.398800 0.000000
44.431300 0.000000
44.463700 0.000000
44.496200 0.000000
44.528700 0.000000
44.561200 0.000000
44.593600 0.000000
44.626100 0.000000
44.658600 0.000000
44.691100 0.000000
44.723600 0.000000
44.756000 0.000000
44.788500 0.000000
44.821000 0.000000
44.853500 0.000000
44.885900 0.000000
44.918400 0.000000
44.950900 0.000000
44.983400 0.000000
45.015900 0.000000
45.048300 0.000000
45.080800 0.000000
45.113300 0.000000
45.145800 0.000000
45.178200 0.000000
45.210700 0.000000
45.243200 0.000000
45.275700 0.000000
e
