set title 'mp-1078686 - Density of States'
set xlabel 'Energy (eV)'
set ylabel 'DOS (states/eV)'
set grid
set xrange [-10:10]
set yrange [0:4.450]
set xzeroaxis lt -1
set terminal png size 800,600
set output 'mp-1078686_dos_gnuplot.png'
plot '-' using 1:2 with lines title 'DOS'
-37.038900 0.000000
-36.999100 0.000000
-36.959300 0.000000
-36.919500 0.000000
-36.879700 0.000000
-36.839900 0.000000
-36.800100 0.000000
-36.760300 0.000000
-36.720400 0.000000
-36.680600 0.000000
-36.640800 0.000000
-36.601000 0.000000
-36.561200 0.000000
-36.521400 0.000000
-36.481600 0.000000
-36.441800 0.000000
-36.402000 0.000000
-36.362200 0.000000
-36.322400 0.000000
-36.282600 0.000000
-36.242700 0.000000
-36.202900 0.000000
-36.163100 0.000000
-36.123300 0.000000
-36.083500 0.000000
-36.043700 0.000000
-36.003900 0.000000
-35.964100 0.000000
-35.924300 0.000000
-35.884500 0.000000
-35.844700 0.000000
-35.804900 0.000000
-35.765000 0.000000
-35.725200 0.000000
-35.685400 0.000000
-35.645600 0.000000
-35.605800 0.000000
-35.566000 0.000000
-35.526200 0.000000
-35.486400 0.000000
-35.446600 0.000000
-35.406800 0.000000
-35.367000 0.000000
-35.327200 0.000000
-35.287300 0.000000
-35.247500 0.000000
-35.207700 0.000000
-35.167900 0.000000
-35.128100 0.000000
-35.088300 0.000000
-35.048500 0.000000
-35.008700 0.000000
-34.968900 0.000000
-34.929100 0.000000
-34.889300 0.000000
-34.849500 0.000000
-34.809600 0.000000
-34.769800 0.000000
-34.730000 0.000000
-34.690200 0.000000
-34.650400 0.000000
-34.610600 0.000000
-34.570800 0.000000
-34.531000 0.000000
-34.491200 0.000000
-34.451400 0.000000
-34.411600 0.000000
-34.371700 0.000000
-34.331900 0.000000
-34.292100 0.000000
-34.252300 0.000000
-34.212500 0.000000
-34.172700 0.000000
-34.132900 0.000000
-34.093100 0.000000
-34.053300 0.000000
-34.013500 0.000000
-33.973700 0.000000
-33.933900 0.000000
-33.894000 0.000000
-33.854200 0.000000
-33.814400 0.000000
-33.774600 0.000000
-33.734800 0.000000
-33.695000 0.000000
-33.655200 0.000000
-33.615400 0.000000
-33.575600 0.000000
-33.535800 0.000000
-33.496000 0.000000
-33.456200 0.000000
-33.416300 2.180400
-33.376500 6.292900
-33.336700 14.070800
-33.296900 31.958300
-33.257100 29.621300
-33.217300 8.531000
-33.177500 7.917500
-33.137700 24.837700
-33.097900 22.960800
-33.058100 31.115800
-33.018300 17.478000
-32.978500 15.576700
-32.938600 20.723600
-32.898800 20.636400
-32.859000 22.006400
-32.819200 42.641200
-32.779400 0.000000
-32.739600 0.000000
-32.699800 0.000000
-32.660000 0.000000
-32.620200 0.000000
-32.580400 0.000000
-32.540600 0.000000
-32.500700 0.000000
-32.460900 0.000000
-32.421100 0.000000
-32.381300 0.000000
-32.341500 0.000000
-32.301700 0.000000
-32.261900 0.000000
-32.222100 0.000000
-32.182300 0.000000
-32.142500 0.000000
-32.102700 0.000000
-32.062900 0.000000
-32.023000 0.000000
-31.983200 0.000000
-31.943400 0.000000
-31.903600 0.000000
-31.863800 0.000000
-31.824000 0.000000
-31.784200 0.000000
-31.744400 0.000000
-31.704600 0.000000
-31.664800 0.000000
-31.625000 0.000000
-31.585200 0.000000
-31.545300 0.000000
-31.505500 0.000000
-31.465700 0.000000
-31.425900 0.000000
-31.386100 0.000000
-31.346300 0.000000
-31.306500 0.000000
-31.266700 0.000000
-31.226900 0.000000
-31.187100 0.000000
-31.147300 0.000000
-31.107500 0.000000
-31.067600 0.000000
-31.027800 0.000000
-30.988000 0.000000
-30.948200 0.000000
-30.908400 0.000000
-30.868600 0.000000
-30.828800 0.000000
-30.789000 0.000000
-30.749200 0.000000
-30.709400 0.000000
-30.669600 0.000000
-30.629700 0.000000
-30.589900 0.000000
-30.550100 0.000000
-30.510300 0.000000
-30.470500 0.000000
-30.430700 0.000000
-30.390900 0.000000
-30.351100 0.000000
-30.311300 0.000000
-30.271500 0.000000
-30.231700 0.000000
-30.191900 0.000000
-30.152000 0.000000
-30.112200 0.000000
-30.072400 0.000000
-30.032600 0.000000
-29.992800 0.000000
-29.953000 0.000000
-29.913200 0.000000
-29.873400 0.000000
-29.833600 0.000000
-29.793800 0.000000
-29.754000 0.000000
-29.714200 0.000000
-29.674300 0.000000
-29.634500 0.000000
-29.594700 0.000000
-29.554900 0.000000
-29.515100 0.000000
-29.475300 0.000000
-29.435500 0.000000
-29.395700 0.000000
-29.355900 0.000000
-29.316100 0.000000
-29.276300 0.000000
-29.236500 0.000000
-29.196600 0.000000
-29.156800 0.000000
-29.117000 0.000000
-29.077200 0.000000
-29.037400 0.000000
-28.997600 0.000000
-28.957800 0.000000
-28.918000 0.000000
-28.878200 0.000000
-28.838400 0.000000
-28.798600 0.000000
-28.758700 0.000000
-28.718900 0.000000
-28.679100 0.000000
-28.639300 0.000000
-28.599500 0.000000
-28.559700 0.000000
-28.519900 0.000000
-28.480100 0.000000
-28.440300 0.000000
-28.400500 0.000000
-28.360700 0.000000
-28.320900 0.000000
-28.281000 0.000000
-28.241200 0.000000
-28.201400 0.000000
-28.161600 0.000000
-28.121800 0.000000
-28.082000 0.000000
-28.042200 0.000000
-28.002400 0.000000
-27.962600 0.000000
-27.922800 0.000000
-27.883000 0.000000
-27.843200 0.000000
-27.803300 0.000000
-27.763500 0.000000
-27.723700 0.000000
-27.683900 0.000000
-27.644100 0.000000
-27.604300 0.000000
-27.564500 0.000000
-27.524700 0.000000
-27.484900 0.000000
-27.445100 0.000000
-27.405300 0.000000
-27.365500 0.000000
-27.325600 0.000000
-27.285800 0.000000
-27.246000 0.000000
-27.206200 0.000000
-27.166400 0.000000
-27.126600 0.000000
-27.086800 0.000000
-27.047000 0.000000
-27.007200 0.000000
-26.967400 0.000000
-26.927600 0.000000
-26.887700 0.000000
-26.847900 0.000000
-26.808100 0.000000
-26.768300 0.000000
-26.728500 0.000000
-26.688700 0.000000
-26.648900 0.000000
-26.609100 0.000000
-26.569300 0.000000
-26.529500 0.000000
-26.489700 0.000000
-26.449900 0.000000
-26.410000 0.000000
-26.370200 0.000000
-26.330400 0.000000
-26.290600 0.000000
-26.250800 0.000000
-26.211000 0.000000
-26.171200 0.000000
-26.131400 0.000000
-26.091600 0.000000
-26.051800 0.000000
-26.012000 0.000000
-25.972200 0.000000
-25.932300 0.000000
-25.892500 0.000000
-25.852700 0.000000
-25.812900 0.000000
-25.773100 0.000000
-25.733300 0.000000
-25.693500 0.000000
-25.653700 0.000000
-25.613900 0.000000
-25.574100 0.000000
-25.534300 0.000000
-25.494500 0.000000
-25.454600 0.000000
-25.414800 0.000000
-25.375000 0.000000
-25.335200 0.000000
-25.295400 0.000000
-25.255600 0.000000
-25.215800 0.000000
-25.176000 0.000000
-25.136200 0.000000
-25.096400 0.000000
-25.056600 0.000000
-25.016700 0.000000
-24.976900 0.000000
-24.937100 0.000000
-24.897300 0.000000
-24.857500 0.000000
-24.817700 0.000000
-24.777900 0.000000
-24.738100 0.000000
-24.698300 0.000000
-24.658500 0.000000
-24.618700 0.000000
-24.578900 0.000000
-24.539000 0.000000
-24.499200 0.000000
-24.459400 0.000000
-24.419600 0.000000
-24.379800 0.000000
-24.340000 0.000000
-24.300200 0.000000
-24.260400 0.000000
-24.220600 0.000000
-24.180800 0.000000
-24.141000 0.000000
-24.101200 0.000000
-24.061300 0.000000
-24.021500 0.000000
-23.981700 0.000000
-23.941900 0.000000
-23.902100 0.000000
-23.862300 0.000000
-23.822500 0.000000
-23.782700 0.000000
-23.742900 0.000000
-23.703100 0.000000
-23.663300 0.000000
-23.623500 0.000000
-23.583600 0.000000
-23.543800 0.000000
-23.504000 0.000000
-23.464200 0.000000
-23.424400 0.000000
-23.384600 0.000000
-23.344800 0.000000
-23.305000 0.000000
-23.265200 0.000000
-23.225400 0.000000
-23.185600 0.000000
-23.145800 0.000000
-23.105900 0.000000
-23.066100 0.000000
-23.026300 0.000000
-22.986500 0.000000
-22.946700 0.000000
-22.906900 0.000000
-22.867100 0.000000
-22.827300 0.000000
-22.787500 0.000000
-22.747700 0.000000
-22.707900 0.000000
-22.668000 0.000000
-22.628200 0.000000
-22.588400 0.000000
-22.548600 0.000000
-22.508800 0.000000
-22.469000 0.000000
-22.429200 0.000000
-22.389400 0.000000
-22.349600 0.000000
-22.309800 0.000000
-22.270000 0.000000
-22.230200 0.000000
-22.190300 0.000000
-22.150500 0.000000
-22.110700 0.000000
-22.070900 0.000000
-22.031100 0.000000
-21.991300 0.000000
-21.951500 0.000000
-21.911700 0.000000
-21.871900 0.000000
-21.832100 0.000000
-21.792300 0.000000
-21.752500 0.000000
-21.712600 0.000000
-21.672800 0.000000
-21.633000 0.000000
-21.593200 0.000000
-21.553400 0.000000
-21.513600 0.000000
-21.473800 0.000000
-21.434000 0.000000
-21.394200 0.000000
-21.354400 0.000000
-21.314600 0.000000
-21.274800 0.000000
-21.234900 0.000000
-21.195100 0.000000
-21.155300 0.000000
-21.115500 0.000000
-21.075700 0.000000
-21.035900 0.000000
-20.996100 0.000000
-20.956300 0.000000
-20.916500 0.000000
-20.876700 0.000000
-20.836900 0.000000
-20.797000 0.000000
-20.757200 0.000000
-20.717400 0.000000
-20.677600 0.000000
-20.637800 0.000000
-20.598000 0.000000
-20.558200 0.000000
-20.518400 0.000000
-20.478600 0.000000
-20.438800 0.000000
-20.399000 0.000000
-20.359200 0.000000
-20.319300 0.000000
-20.279500 0.000000
-20.239700 0.000000
-20.199900 0.000000
-20.160100 0.000000
-20.120300 0.000000
-20.080500 0.000000
-20.040700 0.000000
-20.000900 0.000000
-19.961100 0.000000
-19.921300 0.000000
-19.881500 0.000000
-19.841600 0.000000
-19.801800 0.000000
-19.762000 0.000000
-19.722200 0.000000
-19.682400 0.000000
-19.642600 0.000000
-19.602800 0.000000
-19.563000 0.000000
-19.523200 0.000000
-19.483400 0.000000
-19.443600 0.000000
-19.403800 0.000000
-19.363900 0.000000
-19.324100 0.000000
-19.284300 0.000000
-19.244500 0.000000
-19.204700 0.000000
-19.164900 0.000000
-19.125100 0.000000
-19.085300 0.000000
-19.045500 0.000000
-19.005700 0.000000
-18.965900 0.000000
-18.926000 0.000000
-18.886200 0.000000
-18.846400 0.000000
-18.806600 0.000000
-18.766800 0.000000
-18.727000 0.000000
-18.687200 0.000000
-18.647400 0.000000
-18.607600 0.000000
-18.567800 0.000000
-18.528000 0.000000
-18.488200 0.000000
-18.448300 0.000000
-18.408500 0.000000
-18.368700 0.000000
-18.328900 0.000000
-18.289100 0.000000
-18.249300 0.000000
-18.209500 0.000000
-18.169700 0.000000
-18.129900 0.000000
-18.090100 0.000000
-18.050300 0.000000
-18.010500 0.000000
-17.970600 0.000000
-17.930800 0.000000
-17.891000 0.000000
-17.851200 0.000000
-17.811400 0.000000
-17.771600 0.000000
-17.731800 0.000000
-17.692000 0.000000
-17.652200 0.000000
-17.612400 0.000000
-17.572600 0.000000
-17.532800 0.000000
-17.492900 0.000000
-17.453100 0.000000
-17.413300 0.000000
-17.373500 0.000000
-17.333700 0.000000
-17.293900 0.000000
-17.254100 0.000000
-17.214300 0.000000
-17.174500 0.000000
-17.134700 0.000000
-17.094900 0.000000
-17.055000 0.000000
-17.015200 0.000000
-16.975400 0.000000
-16.935600 0.000000
-16.895800 0.000000
-16.856000 0.000000
-16.816200 0.000000
-16.776400 0.000000
-16.736600 0.000000
-16.696800 0.000000
-16.657000 0.000000
-16.617200 0.000000
-16.577300 0.000000
-16.537500 0.000000
-16.497700 0.000000
-16.457900 0.000000
-16.418100 0.000000
-16.378300 0.000000
-16.338500 0.000000
-16.298700 0.000000
-16.258900 0.000000
-16.219100 0.000000
-16.179300 0.000000
-16.139500 0.000000
-16.099600 0.000000
-16.059800 0.000000
-16.020000 0.000000
-15.980200 0.000000
-15.940400 0.000000
-15.900600 0.000000
-15.860800 0.000000
-15.821000 0.000000
-15.781200 0.000000
-15.741400 0.000000
-15.701600 0.000000
-15.661800 0.000000
-15.621900 0.000000
-15.582100 0.000000
-15.542300 0.000000
-15.502500 0.000000
-15.462700 0.000000
-15.422900 0.000000
-15.383100 0.000000
-15.343300 0.000000
-15.303500 0.000000
-15.263700 0.000000
-15.223900 0.000000
-15.184000 0.000000
-15.144200 0.000000
-15.104400 0.000000
-15.064600 0.000000
-15.024800 0.000000
-14.985000 0.000000
-14.945200 0.000000
-14.905400 0.000000
-14.865600 0.000000
-14.825800 0.000000
-14.786000 0.000000
-14.746200 0.000000
-14.706300 0.000000
-14.666500 0.000000
-14.626700 0.000000
-14.586900 0.000000
-14.547100 0.000000
-14.507300 0.000000
-14.467500 0.000000
-14.427700 0.000000
-14.387900 0.000000
-14.348100 0.000000
-14.308300 0.000000
-14.268500 0.000000
-14.228600 0.000000
-14.188800 0.000000
-14.149000 0.000000
-14.109200 0.000000
-14.069400 0.000000
-14.029600 0.000000
-13.989800 0.000000
-13.950000 0.000000
-13.910200 0.000000
-13.870400 0.000000
-13.830600 0.000000
-13.790800 0.000000
-13.750900 0.000000
-13.711100 0.000000
-13.671300 0.000000
-13.631500 0.000000
-13.591700 0.000000
-13.551900 0.000000
-13.512100 0.000000
-13.472300 0.000000
-13.432500 0.000000
-13.392700 0.000000
-13.352900 0.000000
-13.313100 0.000000
-13.273200 0.000000
-13.233400 0.000000
-13.193600 0.000000
-13.153800 0.000000
-13.114000 0.000000
-13.074200 0.000000
-13.034400 0.000000
-12.994600 0.000000
-12.954800 0.000000
-12.915000 0.000000
-12.875200 0.000000
-12.835300 0.000000
-12.795500 0.000000
-12.755700 0.000000
-12.715900 0.000000
-12.676100 0.000000
-12.636300 0.000000
-12.596500 0.000000
-12.556700 0.000000
-12.516900 0.000000
-12.477100 0.000000
-12.437300 0.000000
-12.397500 0.000000
-12.357600 0.000000
-12.317800 0.000000
-12.278000 0.000000
-12.238200 0.000000
-12.198400 0.000000
-12.158600 0.000000
-12.118800 0.000000
-12.079000 0.000000
-12.039200 0.000000
-11.999400 0.000000
-11.959600 0.000000
-11.919800 0.000000
-11.879900 0.000000
-11.840100 0.000000
-11.800300 0.000000
-11.760500 0.000000
-11.720700 0.000000
-11.680900 0.000000
-11.641100 0.000000
-11.601300 0.000000
-11.561500 0.000000
-11.521700 0.000000
-11.481900 0.000000
-11.442100 0.000000
-11.402200 0.000000
-11.362400 0.000000
-11.322600 0.000000
-11.282800 0.000000
-11.243000 0.000000
-11.203200 0.000000
-11.163400 0.000000
-11.123600 0.000000
-11.083800 0.000000
-11.044000 0.000000
-11.004200 0.000000
-10.964300 0.000000
-10.924500 0.000000
-10.884700 0.000000
-10.844900 0.000000
-10.805100 0.000000
-10.765300 0.000000
-10.725500 0.000000
-10.685700 0.000000
-10.645900 0.000000
-10.606100 0.000000
-10.566300 0.000000
-10.526500 0.000000
-10.486600 0.000000
-10.446800 0.000000
-10.407000 0.000000
-10.367200 0.000000
-10.327400 0.000000
-10.287600 0.000000
-10.247800 0.000000
-10.208000 0.000000
-10.168200 0.000000
-10.128400 0.000000
-10.088600 0.000000
-10.048800 0.000000
-10.008900 0.000000
-9.969100 0.000000
-9.929300 0.000000
-9.889500 0.000000
-9.849700 0.000000
-9.809900 0.000000
-9.770100 0.000000
-9.730300 0.000000
-9.690500 0.000000
-9.650700 0.000000
-9.610900 0.000000
-9.571100 0.000000
-9.531200 0.000000
-9.491400 0.000000
-9.451600 0.000000
-9.411800 0.000000
-9.372000 0.000000
-9.332200 0.000000
-9.292400 0.000000
-9.252600 0.000000
-9.212800 0.000000
-9.173000 0.000000
-9.133200 0.000000
-9.093300 0.000000
-9.053500 0.000000
-9.013700 0.000000
-8.973900 0.000000
-8.934100 0.000000
-8.894300 0.000000
-8.854500 0.000000
-8.814700 0.000000
-8.774900 0.000000
-8.735100 0.000000
-8.695300 0.000000
-8.655500 0.000000
-8.615600 0.000000
-8.575800 0.000000
-8.536000 0.000000
-8.496200 0.000000
-8.456400 0.000000
-8.416600 0.000000
-8.376800 0.000000
-8.337000 0.000000
-8.297200 0.000000
-8.257400 0.000000
-8.217600 0.000000
-8.177800 0.000000
-8.137900 0.000000
-8.098100 0.000000
-8.058300 0.000000
-8.018500 0.000000
-7.978700 0.000000
-7.938900 0.000000
-7.899100 0.000000
-7.859300 0.000000
-7.819500 0.000000
-7.779700 0.000000
-7.739900 0.000000
-7.700100 0.000000
-7.660200 0.000000
-7.620400 0.000000
-7.580600 0.000000
-7.540800 0.000000
-7.501000 0.000000
-7.461200 0.000000
-7.421400 0.000000
-7.381600 0.000000
-7.341800 0.000000
-7.302000 0.000000
-7.262200 0.000000
-7.222300 0.000000
-7.182500 0.000000
-7.142700 0.000500
-7.102900 0.017000
-7.063100 0.056800
-7.023300 0.082900
-6.983500 0.088100
-6.943700 0.098700
-6.903900 0.113600
-6.864100 0.128900
-6.824300 0.143700
-6.784500 0.152800
-6.744600 0.157500
-6.704800 0.165600
-6.665000 0.174400
-6.625200 0.183400
-6.585400 0.192400
-6.545600 0.201000
-6.505800 0.210300
-6.466000 0.220400
-6.426200 0.229200
-6.386400 0.235700
-6.346600 0.242000
-6.306800 0.248900
-6.266900 0.256400
-6.227100 0.263800
-6.187300 0.271000
-6.147500 0.278600
-6.107700 0.286500
-6.067900 0.294800
-6.028100 0.303400
-5.988300 0.312100
-5.948500 0.320200
-5.908700 0.327400
-5.868900 0.335300
-5.829100 0.344000
-5.789200 0.354400
-5.749400 0.370800
-5.709600 0.382200
-5.669800 0.389800
-5.630000 0.397000
-5.590200 0.403600
-5.550400 0.409400
-5.510600 0.414100
-5.470800 0.417600
-5.431000 0.420500
-5.391200 0.423000
-5.351300 0.425000
-5.311500 0.429500
-5.271700 0.439500
-5.231900 0.453700
-5.192100 0.461400
-5.152300 0.477100
-5.112500 0.492800
-5.072700 0.496600
-5.032900 0.504500
-4.993100 0.513800
-4.953300 0.523300
-4.913500 0.532400
-4.873600 0.540700
-4.833800 0.549300
-4.794000 0.558500
-4.754200 0.567900
-4.714400 0.577800
-4.674600 0.588400
-4.634800 0.600000
-4.595000 0.611700
-4.555200 0.622800
-4.515400 0.636700
-4.475600 0.652400
-4.435800 0.666100
-4.395900 0.678200
-4.356100 0.688900
-4.316300 0.700800
-4.276500 0.713800
-4.236700 0.726700
-4.196900 0.758900
-4.157100 0.797800
-4.117300 0.803400
-4.077500 0.806300
-4.037700 0.815900
-3.997900 0.827400
-3.958100 0.839400
-3.918200 0.848000
-3.878400 0.857800
-3.838600 0.869300
-3.798800 0.881400
-3.759000 0.893500
-3.719200 0.905600
-3.679400 0.918200
-3.639600 0.934100
-3.599800 0.955700
-3.560000 0.982500
-3.520200 1.005900
-3.480400 1.033900
-3.440500 1.061700
-3.400700 1.098800
-3.360900 1.110300
-3.321100 1.108600
-3.281300 1.132400
-3.241500 1.161800
-3.201700 1.189300
-3.161900 1.215500
-3.122100 1.248100
-3.082300 1.302300
-3.042500 1.372400
-3.002600 1.540800
-2.962800 1.615700
-2.923000 1.666800
-2.883200 1.717600
-2.843400 1.768800
-2.803600 1.807800
-2.763800 1.813100
-2.724000 1.841000
-2.684200 1.875400
-2.644400 1.901900
-2.604600 2.003900
-2.564800 2.080800
-2.524900 2.011300
-2.485100 2.018100
-2.445300 2.026700
-2.405500 1.939100
-2.365700 1.802900
-2.325900 1.748300
-2.286100 1.679500
-2.246300 1.563700
-2.206500 1.462000
-2.166700 1.379100
-2.126900 1.361000
-2.087100 1.425600
-2.047200 1.498200
-2.007400 0.967200
-1.967600 0.763800
-1.927800 0.577800
-1.888000 0.578000
-1.848200 0.642600
-1.808400 0.657800
-1.768600 0.795300
-1.728800 0.980000
-1.689000 1.129800
-1.649200 1.339900
-1.609400 1.395500
-1.569500 1.443500
-1.529700 1.500800
-1.489900 1.560000
-1.450100 1.506100
-1.410300 1.554500
-1.370500 1.635100
-1.330700 1.741000
-1.290900 1.920200
-1.251100 2.128900
-1.211300 2.146300
-1.171500 2.121500
-1.131600 2.132400
-1.091800 2.240700
-1.052000 2.302500
-1.012200 2.468600
-0.972400 2.863200
-0.932600 2.996500
-0.892800 3.063200
-0.853000 2.886400
-0.813200 2.676000
-0.773400 2.329400
-0.733600 2.258200
-0.693800 2.173200
-0.653900 2.201400
-0.614100 2.430700
-0.574300 2.582200
-0.534500 2.808800
-0.494700 3.291800
-0.454900 4.045600
-0.415100 3.774900
-0.375300 3.521100
-0.335500 3.466600
-0.295700 3.284900
-0.255900 2.999300
-0.216100 2.256100
-0.176200 1.621200
-0.136400 1.194000
-0.096600 0.861100
-0.056800 0.791600
-0.017000 0.831100
0.022800 0.934800
0.062600 1.048600
0.102400 1.182200
0.142200 1.465600
0.182000 1.820400
0.221800 2.013500
0.261600 2.347900
0.301500 2.426600
0.341300 2.518400
0.381100 2.600800
0.420900 2.703300
0.460700 2.931200
0.500500 3.186500
0.540300 3.574900
0.580100 3.309100
0.619900 2.967700
0.659700 2.802900
0.699500 2.630700
0.739400 2.407200
0.779200 2.076200
0.819000 1.942900
0.858800 1.860400
0.898600 1.782800
0.938400 1.706400
0.978200 1.642900
1.018000 1.596600
1.057800 1.579600
1.097600 1.546300
1.137400 1.503400
1.177200 1.471700
1.217100 1.460400
1.256900 1.442100
1.296700 1.393000
1.336500 1.344200
1.376300 1.282500
1.416100 1.237900
1.455900 1.207500
1.495700 1.187200
1.535500 1.073800
1.575300 1.028100
1.615100 0.940500
1.654900 0.880600
1.694800 0.824400
1.734600 0.728900
1.774400 0.695000
1.814200 0.676700
1.854000 0.663700
1.893800 0.653700
1.933600 0.680200
1.973400 0.777400
2.013200 0.905200
2.053000 1.020500
2.092800 1.179200
2.132600 1.287000
2.172500 1.601900
2.212300 1.767500
2.252100 1.994900
2.291900 2.168600
2.331700 2.295100
2.371500 2.390200
2.411300 2.497100
2.451100 2.593300
2.490900 2.719100
2.530700 3.218500
2.570500 3.650000
2.610400 3.860000
2.650200 3.434500
2.690000 3.110300
2.729800 2.884800
2.769600 2.847400
2.809400 2.798800
2.849200 2.490500
2.889000 2.326600
2.928800 2.277400
2.968600 2.237100
3.008400 2.191100
3.048200 2.139700
3.088100 2.035500
3.127900 1.955900
3.167700 1.907000
3.207500 1.902800
3.247300 1.937900
3.287100 1.990900
3.326900 2.075800
3.366700 2.238300
3.406500 2.286000
3.446300 2.329300
3.486100 2.279600
3.525900 2.310800
3.565800 2.213600
3.605600 1.997200
3.645400 1.719700
3.685200 1.495100
3.725000 1.411200
3.764800 1.320700
3.804600 1.184600
3.844400 1.092400
3.884200 1.011700
3.924000 0.928400
3.963800 0.834300
4.003600 0.749600
4.043500 0.683000
4.083300 0.661200
4.123100 0.684200
4.162900 0.746300
4.202700 0.868200
4.242500 1.354100
4.282300 1.809200
4.322100 1.954300
4.361900 1.924300
4.401700 1.926400
4.441500 1.937700
4.481400 1.806600
4.521200 1.757500
4.561000 1.612600
4.600800 1.554100
4.640600 1.519500
4.680400 1.478500
4.720200 1.452200
4.760000 1.409400
4.799800 1.367600
4.839600 1.315100
4.879400 1.208600
4.919200 1.064200
4.959100 1.029000
4.998900 1.007500
5.038700 0.986600
5.078500 0.977600
5.118300 0.977100
5.158100 0.979000
5.197900 0.979900
5.237700 0.981500
5.277500 0.984500
5.317300 0.987400
5.357100 0.997000
5.396900 1.012800
5.436800 1.033900
5.476600 1.092000
5.516400 1.182200
5.556200 1.270400
5.596000 1.340500
5.635800 1.390600
5.675600 1.419800
5.715400 1.425800
5.755200 1.447500
5.795000 1.533900
5.834800 1.691500
5.874600 2.041700
5.914500 1.914300
5.954300 1.927500
5.994100 1.971800
6.033900 1.992100
6.073700 1.992300
6.113500 2.080000
6.153300 2.139600
6.193100 2.138600
6.232900 2.264700
6.272700 2.399400
6.312500 2.404800
6.352300 2.383700
6.392200 2.356300
6.432000 2.446500
6.471800 2.433100
6.511600 2.656100
6.551400 3.014200
6.591200 3.196700
6.631000 3.404300
6.670800 3.649400
6.710600 3.773500
6.750400 3.641000
6.790200 3.504000
6.830100 3.424200
6.869900 3.179200
6.909700 3.073800
6.949500 3.087500
6.989300 3.486900
7.029100 3.589400
7.068900 3.709500
7.108700 3.662700
7.148500 3.605800
7.188300 3.430400
7.228100 3.670300
7.267900 3.340400
7.307800 3.094000
7.347600 2.902400
7.387400 2.602000
7.427200 2.334400
7.467000 2.168400
7.506800 2.130200
7.546600 2.151000
7.586400 2.204900
7.626200 2.325600
7.666000 2.464800
7.705800 2.657900
7.745600 2.601100
7.785500 2.601700
7.825300 2.567200
7.865100 2.600500
7.904900 2.629600
7.944700 2.756500
7.984500 2.942300
8.024300 3.001100
8.064100 2.554200
8.103900 2.257800
8.143700 2.149900
8.183500 2.043600
8.223300 1.921600
8.263200 1.870800
8.303000 1.787500
8.342800 1.732100
8.382600 1.655400
8.422400 1.594700
8.462200 1.542700
8.502000 1.454500
8.541800 1.404600
8.581600 1.371500
8.621400 1.361000
8.661200 1.440500
8.701100 1.535000
8.740900 1.599000
8.780700 1.650700
8.820500 1.704800
8.860300 1.742300
8.900100 1.845900
8.939900 1.921600
8.979700 2.034000
9.019500 2.133800
9.059300 2.255400
9.099100 2.176000
9.138900 2.138900
9.178800 2.066300
9.218600 1.953500
9.258400 1.861300
9.298200 1.811000
9.338000 1.820500
9.377800 1.803700
9.417600 1.736100
9.457400 1.668700
9.497200 1.606100
9.537000 1.591000
9.576800 1.584600
9.616600 1.625300
9.656500 1.605300
9.696300 1.586100
9.736100 1.608800
9.775900 1.662900
9.815700 1.696100
9.855500 1.744500
9.895300 1.777700
9.935100 1.706400
9.974900 1.688900
10.014700 1.646000
10.054500 1.794800
10.094300 1.777000
10.134200 1.790400
10.174000 1.816200
10.213800 1.862600
10.253600 2.037300
10.293400 2.038400
10.333200 2.062200
10.373000 1.911900
10.412800 1.782900
10.452600 1.744300
10.492400 1.701400
10.532200 1.606700
10.572100 1.566800
10.611900 1.510200
10.651700 1.488500
10.691500 1.607800
10.731300 1.752900
10.771100 1.894000
10.810900 1.980800
10.850700 2.126300
10.890500 2.256400
10.930300 2.180900
10.970100 2.063600
11.009900 1.936900
11.049800 1.797300
11.089600 1.747400
11.129400 1.727400
11.169200 1.835300
11.209000 1.978900
11.248800 2.092400
11.288600 2.274700
11.328400 2.377800
11.368200 2.378900
11.408000 2.374300
11.447800 2.376500
11.487600 2.392900
11.527500 2.378500
11.567300 2.428300
11.607100 2.627200
11.646900 2.746200
11.686700 2.575800
11.726500 2.488700
11.766300 2.437800
11.806100 2.378600
11.845900 2.249800
11.885700 2.190400
11.925500 2.058400
11.965300 2.071700
12.005200 2.218900
12.045000 2.516700
12.084800 2.884600
12.124600 2.813800
12.164400 2.649100
12.204200 2.612800
12.244000 2.529300
12.283800 2.435700
12.323600 2.273400
12.363400 2.132900
12.403200 2.027500
12.443100 1.958800
12.482900 1.929600
12.522700 1.891300
12.562500 1.828600
12.602300 1.769100
12.642100 1.705500
12.681900 1.664400
12.721700 1.625800
12.761500 1.569700
12.801300 1.502000
12.841100 1.448000
12.880900 1.382900
12.920800 1.337200
12.960600 1.338100
13.000400 1.289400
13.040200 1.266100
13.080000 1.194600
13.119800 1.134700
13.159600 1.081600
13.199400 1.098300
13.239200 1.129800
13.279000 1.175500
13.318800 1.196700
13.358600 1.184500
13.398500 1.164800
13.438300 1.154700
13.478100 1.159200
13.517900 1.158200
13.557700 1.161500
13.597500 1.165500
13.637300 1.165900
13.677100 1.162300
13.716900 1.134900
13.756700 1.140500
13.796500 1.152700
13.836300 1.166000
13.876200 1.166900
13.916000 1.190800
13.955800 1.214900
13.995600 1.197300
14.035400 1.143800
14.075200 1.135100
14.115000 1.130800
14.154800 1.152100
14.194600 1.192100
14.234400 1.234100
14.274200 1.280500
14.314100 1.327200
14.353900 1.365100
14.393700 1.392000
14.433500 1.424400
14.473300 1.499000
14.513100 1.558000
14.552900 1.618100
14.592700 1.634200
14.632500 1.632400
14.672300 1.576800
14.712100 1.524500
14.751900 1.481400
14.791800 1.443300
14.831600 1.419200
14.871400 1.407900
14.911200 1.399800
14.951000 1.393700
14.990800 1.376600
15.030600 1.342500
15.070400 1.350900
15.110200 1.358800
15.150000 1.249100
15.189800 1.194500
15.229600 1.160000
15.269500 1.163200
15.309300 1.041200
15.349100 1.034900
15.388900 1.061700
15.428700 1.092300
15.468500 1.115100
15.508300 1.163100
15.548100 1.214900
15.587900 1.248000
15.627700 1.302300
15.667500 1.392600
15.707300 1.426900
15.747200 1.450500
15.787000 1.462500
15.826800 1.473200
15.866600 1.484200
15.906400 1.488500
15.946200 1.512800
15.986000 1.553500
16.025800 1.559000
16.065600 1.607000
16.105400 1.747900
16.145200 1.715100
16.185100 1.685200
16.224900 1.613600
16.264700 1.576000
16.304500 1.545300
16.344300 1.524300
16.384100 1.539000
16.423900 1.538600
16.463700 1.535000
16.503500 1.552800
16.543300 1.593400
16.583100 1.670900
16.622900 1.742300
16.662800 1.746700
16.702600 1.760300
16.742400 1.792600
16.782200 1.822100
16.822000 1.788800
16.861800 1.865000
16.901600 1.700500
16.941400 1.658400
16.981200 1.602000
17.021000 1.545700
17.060800 1.521400
17.100600 1.497100
17.140500 1.530400
17.180300 1.547800
17.220100 1.554900
17.259900 1.528900
17.299700 1.583000
17.339500 1.654300
17.379300 1.692800
17.419100 1.691600
17.458900 1.668500
17.498700 1.652900
17.538500 1.561800
17.578300 1.502900
17.618200 1.464300
17.658000 1.420100
17.697800 1.376300
17.737600 1.319600
17.777400 1.283200
17.817200 1.251800
17.857000 1.252700
17.896800 1.273000
17.936600 1.299600
17.976400 1.348200
18.016200 1.447800
18.056000 1.567900
18.095900 1.686400
18.135700 1.782500
18.175500 1.843500
18.215300 1.909000
18.255100 1.983300
18.294900 1.975100
18.334700 1.996100
18.374500 2.034300
18.414300 2.084000
18.454100 2.116500
18.493900 2.127800
18.533800 2.116000
18.573600 2.076000
18.613400 2.106900
18.653200 2.148500
18.693000 2.168400
18.732800 2.125900
18.772600 2.039100
18.812400 2.003300
18.852200 1.989900
18.892000 1.954500
18.931800 1.920000
18.971600 1.889600
19.011500 1.930900
19.051300 1.933400
19.091100 1.928500
19.130900 1.924200
19.170700 1.844900
19.210500 1.756300
19.250300 1.691500
19.290100 1.618800
19.329900 1.561300
19.369700 1.564900
19.409500 1.609700
19.449300 1.667300
19.489200 1.699400
19.529000 1.670500
19.568800 1.586600
19.608600 1.518300
19.648400 1.486700
19.688200 1.518000
19.728000 1.527200
19.767800 1.556700
19.807600 1.601000
19.847400 1.599100
19.887200 1.612900
19.927000 1.657000
19.966900 1.741400
20.006700 1.954500
20.046500 2.056200
20.086300 1.991100
20.126100 1.928600
20.165900 1.880400
20.205700 1.896500
20.245500 1.989600
20.285300 2.027900
20.325100 2.021000
20.364900 2.019700
20.404800 2.034100
20.444600 2.003800
20.484400 1.968200
20.524200 1.908400
20.564000 1.859200
20.603800 1.839000
20.643600 1.852100
20.683400 1.831300
20.723200 1.855300
20.763000 1.827600
20.802800 1.810100
20.842600 1.829600
20.882500 1.887900
20.922300 1.938800
20.962100 1.977700
21.001900 1.997400
21.041700 2.017100
21.081500 1.939100
21.121300 1.940400
21.161100 1.949100
21.200900 1.957300
21.240700 1.973800
21.280500 1.955500
21.320300 1.921800
21.360200 1.871700
21.400000 1.854500
21.439800 1.824100
21.479600 1.790800
21.519400 1.738900
21.559200 1.721800
21.599000 1.647400
21.638800 1.428300
21.678600 1.367100
21.718400 1.330200
21.758200 1.323800
21.798000 1.330700
21.837900 1.342600
21.877700 1.369500
21.917500 1.363400
21.957300 1.346200
21.997100 1.375100
22.036900 1.380700
22.076700 1.362700
22.116500 1.310200
22.156300 1.242900
22.196100 1.228500
22.235900 1.212900
22.275800 1.184900
22.315600 1.183900
22.355400 1.111700
22.395200 1.145100
22.435000 1.235100
22.474800 1.383200
22.514600 1.589600
22.554400 1.704100
22.594200 1.774200
22.634000 1.829500
22.673800 1.891600
22.713600 1.942600
22.753500 1.988700
22.793300 2.050400
22.833100 2.035900
22.872900 2.022900
22.912700 2.018800
22.952500 2.039900
22.992300 2.065900
23.032100 2.016200
23.071900 1.927000
23.111700 1.858700
23.151500 1.823800
23.191300 1.791200
23.231200 1.760600
23.271000 1.741700
23.310800 1.759800
23.350600 1.772500
23.390400 1.760500
23.430200 1.754800
23.470000 1.729100
23.509800 1.726700
23.549600 1.696400
23.589400 1.685200
23.629200 1.646300
23.669000 1.631600
23.708900 1.589900
23.748700 1.561300
23.788500 1.576200
23.828300 1.642500
23.868100 1.753800
23.907900 1.880000
23.947700 1.959100
23.987500 1.914200
24.027300 1.874700
24.067100 1.867500
24.106900 1.871200
24.146800 1.845200
24.186600 1.810200
24.226400 1.794600
24.266200 1.763200
24.306000 1.723900
24.345800 1.698200
24.385600 1.679700
24.425400 1.617700
24.465200 1.538500
24.505000 1.483600
24.544800 1.424700
24.584600 1.386700
24.624500 1.369800
24.664300 1.385500
24.704100 1.440800
24.743900 1.497000
24.783700 1.524800
24.823500 1.538600
24.863300 1.518300
24.903100 1.452600
24.942900 1.495200
24.982700 1.556500
25.022500 1.592800
25.062300 1.645000
25.102200 1.693700
25.142000 1.745700
25.181800 1.768800
25.221600 1.884100
25.261400 1.963400
25.301200 2.041500
25.341000 2.113200
25.380800 2.181500
25.420600 2.251100
25.460400 2.389600
25.500200 2.413600
25.540000 2.379300
25.579900 2.366100
25.619700 2.249000
25.659500 2.172100
25.699300 2.081200
25.739100 2.011200
25.778900 1.939500
25.818700 1.921800
25.858500 1.950700
25.898300 1.990500
25.938100 1.968800
25.977900 1.952600
26.017800 1.945900
26.057600 1.936800
26.097400 1.932700
26.137200 1.904600
26.177000 1.912700
26.216800 1.976200
26.256600 1.984900
26.296400 1.975200
26.336200 1.973100
26.376000 1.937800
26.415800 1.911000
26.455600 1.898200
26.495500 1.968500
26.535300 1.960700
26.575100 1.969000
26.614900 1.956100
26.654700 1.920600
26.694500 1.902800
26.734300 1.922400
26.774100 1.868000
26.813900 1.810900
26.853700 1.726600
26.893500 1.730500
26.933300 1.781200
26.973200 1.812400
27.013000 1.798000
27.052800 1.786300
27.092600 1.814900
27.132400 1.874000
27.172200 1.940500
27.212000 1.995300
27.251800 2.056600
27.291600 2.073200
27.331400 2.028200
27.371200 2.002600
27.411000 1.976600
27.450900 1.992100
27.490700 2.039800
27.530500 2.063300
27.570300 2.010300
27.610100 1.956100
27.649900 1.938400
27.689700 1.922900
27.729500 1.938600
27.769300 1.934300
27.809100 1.919300
27.848900 1.889500
27.888700 1.899000
27.928600 1.974000
27.968400 1.990300
28.008200 1.985000
28.048000 2.051200
28.087800 2.051900
28.127600 2.036400
28.167400 2.050000
28.207200 2.102900
28.247000 2.133800
28.286800 2.163300
28.326600 2.193800
28.366500 2.165200
28.406300 2.141300
28.446100 2.081700
28.485900 2.028300
28.525700 1.978400
28.565500 1.956300
28.605300 1.941300
28.645100 2.038500
28.684900 1.961800
28.724700 1.979800
28.764500 2.018600
28.804300 2.073800
28.844200 2.056500
28.884000 2.075000
28.923800 2.176000
28.963600 2.283100
29.003400 2.342100
29.043200 2.399900
29.083000 2.486100
29.122800 2.601700
29.162600 2.685100
29.202400 2.764600
29.242200 2.779600
29.282000 2.769600
29.321900 2.690500
29.361700 2.548600
29.401500 2.356500
29.441300 2.231300
29.481100 2.133200
29.520900 2.034600
29.560700 1.985700
29.600500 1.928500
29.640300 1.866300
29.680100 1.805800
29.719900 1.768100
29.759700 1.763100
29.799600 1.760100
29.839400 1.734200
29.879200 1.770900
29.919000 1.865200
29.958800 1.925300
29.998600 1.977600
30.038400 2.042200
30.078200 2.100000
30.118000 2.166000
30.157800 2.182800
30.197600 2.214000
30.237500 2.244200
30.277300 2.249800
30.317100 2.262800
30.356900 2.312100
30.396700 2.370300
30.436500 2.438300
30.476300 2.493600
30.516100 2.450700
30.555900 2.340000
30.595700 2.230500
30.635500 2.138000
30.675300 2.080900
30.715200 2.036200
30.755000 2.022600
30.794800 1.970200
30.834600 1.893500
30.874400 1.853400
30.914200 1.850100
30.954000 1.878000
30.993800 1.879700
31.033600 1.894900
31.073400 1.942700
31.113200 2.005700
31.153000 2.065000
31.192900 2.143000
31.232700 2.201900
31.272500 2.192800
31.312300 2.178600
31.352100 2.183600
31.391900 2.214300
31.431700 2.238500
31.471500 2.238300
31.511300 2.183700
31.551100 2.163300
31.590900 2.171800
31.630700 2.228900
31.670600 2.316400
31.710400 2.377700
31.750200 2.423000
31.790000 2.450900
31.829800 2.480900
31.869600 2.477200
31.909400 2.471100
31.949200 2.453000
31.989000 2.393100
32.028800 2.338100
32.068600 2.288300
32.108500 2.262100
32.148300 2.220200
32.188100 2.234200
32.227900 2.292600
32.267700 2.399500
32.307500 2.467100
32.347300 2.516600
32.387100 2.512700
32.426900 2.451100
32.466700 2.316900
32.506500 2.190300
32.546300 2.103700
32.586200 2.076000
32.626000 2.017300
32.665800 1.988100
32.705600 1.995200
32.745400 2.020000
32.785200 2.043200
32.825000 1.987300
32.864800 1.915800
32.904600 1.869100
32.944400 1.809600
32.984200 1.763300
33.024000 1.734800
33.063900 1.761000
33.103700 1.819800
33.143500 1.874900
33.183300 1.939000
33.223100 2.001300
33.262900 2.070000
33.302700 2.143200
33.342500 2.185900
33.382300 2.265200
33.422100 2.342300
33.461900 2.421000
33.501700 2.434000
33.541600 2.414700
33.581400 2.401400
33.621200 2.395500
33.661000 2.384500
33.700800 2.354500
33.740600 2.364600
33.780400 2.414700
33.820200 2.493300
33.860000 2.481200
33.899800 2.340100
33.939600 2.248200
33.979500 2.224300
34.019300 2.199200
34.059100 2.250200
34.098900 2.248300
34.138700 2.249900
34.178500 2.278500
34.218300 2.319600
34.258100 2.310600
34.297900 2.267200
34.337700 2.253200
34.377500 2.222100
34.417300 2.244200
34.457200 2.196600
34.497000 2.196800
34.536800 2.198600
34.576600 2.209100
34.616400 2.205100
34.656200 2.173100
34.696000 2.178200
34.735800 2.171500
34.775600 2.222700
34.815400 2.286900
34.855200 2.331800
34.895000 2.364100
34.934900 2.454000
34.974700 2.485800
35.014500 2.469000
35.054300 2.471700
35.094100 2.493400
35.133900 2.557500
35.173700 2.637400
35.213500 2.752300
35.253300 2.801400
35.293100 2.784700
35.332900 2.856900
35.372700 2.816600
35.412600 2.622400
35.452400 2.478700
35.492200 2.433200
35.532000 2.373900
35.571800 2.347100
35.611600 2.328400
35.651400 2.345700
35.691200 2.396100
35.731000 2.471500
35.770800 2.574000
35.810600 2.778900
35.850500 2.895700
35.890300 3.028400
35.930100 3.260100
35.969900 3.577300
36.009700 4.018600
36.049500 4.552200
36.089300 4.745700
36.129100 4.619800
36.168900 4.808600
36.208700 5.022200
36.248500 5.443400
36.288300 6.351500
36.328200 7.050200
36.368000 6.613200
36.407800 7.023300
36.447600 7.548600
36.487400 6.854700
36.527200 5.889600
36.567000 5.467100
36.606800 4.775100
36.646600 4.138800
36.686400 3.824400
36.726200 3.690700
36.766000 3.734200
36.805900 3.849300
36.845700 3.878800
36.885500 3.687500
36.925300 3.584400
36.965100 3.269000
37.004900 3.066000
37.044700 2.903600
37.084500 2.711900
37.124300 2.626200
37.164100 2.648200
37.203900 2.760600
37.243700 2.925500
37.283600 2.931500
37.323400 3.009300
37.363200 3.113600
37.403000 3.208700
37.442800 3.183400
37.482600 2.942400
37.522400 2.711900
37.562200 2.522600
37.602000 2.383500
37.641800 2.227600
37.681600 2.060400
37.721400 1.973900
37.761300 1.767100
37.801100 1.563600
37.840900 1.350600
37.880700 1.183000
37.920500 1.048400
37.960300 0.843400
38.000100 0.676500
38.039900 0.563100
38.079700 0.492300
38.119500 0.411600
38.159300 0.330200
38.199200 0.267800
38.239000 0.206300
38.278800 0.155100
38.318600 0.117000
38.358400 0.088000
38.398200 0.067400
38.438000 0.049400
38.477800 0.036400
38.517600 0.027000
38.557400 0.020100
38.597200 0.014600
38.637000 0.010600
38.676900 0.008000
38.716700 0.005900
38.756500 0.004100
38.796300 0.002700
38.836100 0.001500
38.875900 0.000700
38.915700 0.000200
38.955500 0.000000
38.995300 0.000000
39.035100 0.000000
39.074900 0.000000
39.114700 0.000000
39.154600 0.000000
39.194400 0.000000
39.234200 0.000000
39.274000 0.000000
39.313800 0.000000
39.353600 0.000000
39.393400 0.000000
39.433200 0.000000
39.473000 0.000000
39.512800 0.000000
39.552600 0.000000
39.592400 0.000000
39.632300 0.000000
39.672100 0.000000
39.711900 0.000000
39.751700 0.000000
39.791500 0.000000
39.831300 0.000000
39.871100 0.000000
39.910900 0.000000
39.950700 0.000000
39.990500 0.000000
40.030300 0.000000
40.070200 0.000000
40.110000 0.000000
40.149800 0.000000
40.189600 0.000000
40.229400 0.000000
40.269200 0.000000
40.309000 0.000000
40.348800 0.000000
40.388600 0.000000
40.428400 0.000000
40.468200 0.000000
40.508000 0.000000
40.547900 0.000000
40.587700 0.000000
40.627500 0.000000
40.667300 0.000000
40.707100 0.000000
40.746900 0.000000
40.786700 0.000000
40.826500 0.000000
40.866300 0.000000
40.906100 0.000000
40.945900 0.000000
40.985700 0.000000
41.025600 0.000000
41.065400 0.000000
41.105200 0.000000
41.145000 0.000000
41.184800 0.000000
41.224600 0.000000
41.264400 0.000000
41.304200 0.000000
41.344000 0.000000
41.383800 0.000000
41.423600 0.000000
41.463400 0.000000
41.503300 0.000000
41.543100 0.000000
41.582900 0.000000
41.622700 0.000000
41.662500 0.000000
41.702300 0.000000
41.742100 0.000000
41.781900 0.000000
41.821700 0.000000
41.861500 0.000000
41.901300 0.000000
41.941200 0.000000
41.981000 0.000000
42.020800 0.000000
42.060600 0.000000
42.100400 0.000000
42.140200 0.000000
42.180000 0.000000
42.219800 0.000000
42.259600 0.000000
42.299400 0.000000
42.339200 0.000000
42.379000 0.000000
42.418900 0.000000
42.458700 0.000000
42.498500 0.000000
42.538300 0.000000
42.578100 0.000000
e
