set title 'mp-133 - Density of States'
set xlabel 'Energy (eV)'
set ylabel 'DOS (states/eV)'
set grid
set xrange [-10:10]
set yrange [0:0.867]
set xzeroaxis lt -1
set terminal png size 800,600
set output 'mp-133_dos_gnuplot.png'
plot '-' using 1:2 with lines title 'DOS'
-6.986800 0.000000
-6.967000 0.000000
-6.947300 0.000000
-6.927600 0.000000
-6.907900 0.000000
-6.888200 0.000000
-6.868500 0.000000
-6.848800 0.000000
-6.829100 0.000000
-6.809300 0.000000
-6.789600 0.000000
-6.769900 0.000000
-6.750200 0.000000
-6.730500 0.000000
-6.710800 0.000000
-6.691100 0.000000
-6.671400 0.000000
-6.651600 0.000000
-6.631900 0.000000
-6.612200 0.000000
-6.592500 0.000000
-6.572800 0.000000
-6.553100 0.000000
-6.533400 0.000000
-6.513600 0.000000
-6.493900 0.000000
-6.474200 0.000000
-6.454500 0.000000
-6.434800 0.000000
-6.415100 0.000000
-6.395400 0.000000
-6.375700 0.000000
-6.355900 0.000000
-6.336200 0.000000
-6.316500 0.000000
-6.296800 0.000000
-6.277100 0.000000
-6.257400 0.000000
-6.237700 0.000000
-6.217900 0.000000
-6.198200 0.000000
-6.178500 0.000000
-6.158800 0.000000
-6.139100 0.000000
-6.119400 0.000000
-6.099700 0.000000
-6.080000 0.000000
-6.060200 0.000000
-6.040500 0.000000
-6.020800 0.000000
-6.001100 0.000000
-5.981400 0.000000
-5.961700 0.000000
-5.942000 0.000000
-5.922300 0.000000
-5.902500 0.000000
-5.882800 0.000000
-5.863100 0.000000
-5.843400 0.000000
-5.823700 0.000000
-5.804000 0.000000
-5.784300 0.000000
-5.764500 0.000000
-5.744800 0.000000
-5.725100 0.000000
-5.705400 0.000000
-5.685700 0.000000
-5.666000 0.000000
-5.646300 0.000000
-5.626600 0.000000
-5.606800 0.000000
-5.587100 0.000000
-5.567400 0.000000
-5.547700 0.000000
-5.528000 0.000000
-5.508300 0.000000
-5.488600 0.000000
-5.468900 0.000000
-5.449100 0.000000
-5.429400 0.000000
-5.409700 0.000000
-5.390000 0.000000
-5.370300 0.000000
-5.350600 0.000000
-5.330900 0.000000
-5.311100 0.000000
-5.291400 0.000000
-5.271700 0.000000
-5.252000 0.000000
-5.232300 0.000000
-5.212600 0.000000
-5.192900 0.021700
-5.173200 0.034200
-5.153400 0.048700
-5.133700 0.065300
-5.114000 0.068700
-5.094300 0.075300
-5.074600 0.081000
-5.054900 0.085700
-5.035200 0.091800
-5.015400 0.099100
-4.995700 0.106900
-4.976000 0.111400
-4.956300 0.115900
-4.936600 0.119500
-4.916900 0.122400
-4.897200 0.125500
-4.877500 0.129700
-4.857700 0.134200
-4.838000 0.138900
-4.818300 0.143800
-4.798600 0.148700
-4.778900 0.153600
-4.759200 0.156300
-4.739500 0.159500
-4.719800 0.162300
-4.700000 0.164900
-4.680300 0.167700
-4.660600 0.170900
-4.640900 0.174300
-4.621200 0.177700
-4.601500 0.181100
-4.581800 0.184500
-4.562000 0.187900
-4.542300 0.191300
-4.522600 0.195000
-4.502900 0.198900
-4.483200 0.201700
-4.463500 0.204600
-4.443800 0.207200
-4.424100 0.209600
-4.404300 0.212100
-4.384600 0.214800
-4.364900 0.217500
-4.345200 0.220300
-4.325500 0.223100
-4.305800 0.226000
-4.286100 0.228800
-4.266300 0.231700
-4.246600 0.234700
-4.226900 0.237800
-4.207200 0.241000
-4.187500 0.244200
-4.167800 0.247500
-4.148100 0.250200
-4.128400 0.252800
-4.108600 0.255300
-4.088900 0.257700
-4.069200 0.260100
-4.049500 0.262700
-4.029800 0.265300
-4.010100 0.268000
-3.990400 0.270800
-3.970700 0.273500
-3.950900 0.276200
-3.931200 0.279000
-3.911500 0.281800
-3.891800 0.284700
-3.872100 0.287600
-3.852400 0.290500
-3.832700 0.293500
-3.812900 0.296400
-3.793200 0.299400
-3.773500 0.302200
-3.753800 0.305100
-3.734100 0.307900
-3.714400 0.310700
-3.694700 0.313500
-3.675000 0.316400
-3.655200 0.319400
-3.635500 0.322400
-3.615800 0.325400
-3.596100 0.328400
-3.576400 0.331400
-3.556700 0.334400
-3.537000 0.337400
-3.517300 0.340500
-3.497500 0.343600
-3.477800 0.346700
-3.458100 0.349900
-3.438400 0.353000
-3.418700 0.356100
-3.399000 0.359300
-3.379300 0.363000
-3.359500 0.366800
-3.339800 0.370700
-3.320100 0.374800
-3.300400 0.378900
-3.280700 0.383000
-3.261000 0.387000
-3.241300 0.391000
-3.221600 0.395100
-3.201800 0.399300
-3.182100 0.403400
-3.162400 0.407600
-3.142700 0.411800
-3.123000 0.415900
-3.103300 0.420100
-3.083600 0.424300
-3.063800 0.428400
-3.044100 0.432600
-3.024400 0.440500
-3.004700 0.448200
-2.985000 0.456600
-2.965300 0.465700
-2.945600 0.474500
-2.925900 0.482900
-2.906100 0.491300
-2.886400 0.499700
-2.866700 0.508200
-2.847000 0.516900
-2.827300 0.525800
-2.807600 0.569500
-2.787900 0.580400
-2.768200 0.589300
-2.748400 0.596100
-2.728700 0.577500
-2.709000 0.575200
-2.689300 0.573000
-2.669600 0.570800
-2.649900 0.570600
-2.630200 0.570700
-2.610400 0.570300
-2.590700 0.562600
-2.571000 0.559100
-2.551300 0.555700
-2.531600 0.552400
-2.511900 0.549900
-2.492200 0.548500
-2.472500 0.547000
-2.452700 0.545300
-2.433000 0.543600
-2.413300 0.541700
-2.393600 0.539700
-2.373900 0.534200
-2.354200 0.531200
-2.334500 0.528300
-2.314800 0.525400
-2.295000 0.522800
-2.275300 0.520800
-2.255600 0.518800
-2.235900 0.516700
-2.216200 0.514500
-2.196500 0.512400
-2.176800 0.510200
-2.157000 0.507900
-2.137300 0.505900
-2.117600 0.503800
-2.097900 0.501600
-2.078200 0.497200
-2.058500 0.494300
-2.038800 0.491600
-2.019100 0.489000
-1.999300 0.486800
-1.979600 0.484700
-1.959900 0.482600
-1.940200 0.480400
-1.920500 0.478200
-1.900800 0.476000
-1.881100 0.473700
-1.861300 0.471600
-1.841600 0.469500
-1.821900 0.467400
-1.802200 0.465300
-1.782500 0.463100
-1.762800 0.460900
-1.743100 0.458600
-1.723400 0.454900
-1.703600 0.452300
-1.683900 0.449800
-1.664200 0.447300
-1.644500 0.445200
-1.624800 0.443100
-1.605100 0.441000
-1.585400 0.438900
-1.565700 0.436800
-1.545900 0.434600
-1.526200 0.432400
-1.506500 0.430300
-1.486800 0.428100
-1.467100 0.426000
-1.447400 0.423900
-1.427700 0.421800
-1.407900 0.419700
-1.388200 0.417600
-1.368500 0.415400
-1.348800 0.413200
-1.329100 0.410500
-1.309400 0.408200
-1.289700 0.405900
-1.270000 0.403700
-1.250200 0.401600
-1.230500 0.399400
-1.210800 0.397200
-1.191100 0.395100
-1.171400 0.392900
-1.151700 0.390600
-1.132000 0.388500
-1.112200 0.386300
-1.092500 0.384200
-1.072800 0.382200
-1.053100 0.380100
-1.033400 0.378100
-1.013700 0.376000
-0.994000 0.374000
-0.974300 0.371900
-0.954500 0.369900
-0.934800 0.367900
-0.915100 0.366500
-0.895400 0.364600
-0.875700 0.362600
-0.856000 0.360500
-0.836300 0.358300
-0.816600 0.355900
-0.796800 0.353500
-0.777100 0.351200
-0.757400 0.348900
-0.737700 0.346700
-0.718000 0.344500
-0.698300 0.342400
-0.678600 0.340200
-0.658800 0.338000
-0.639100 0.335800
-0.619400 0.333600
-0.599700 0.331500
-0.580000 0.329300
-0.560300 0.327200
-0.540600 0.325000
-0.520900 0.328000
-0.501100 0.326800
-0.481400 0.325200
-0.461700 0.323100
-0.442000 0.319800
-0.422300 0.316400
-0.402600 0.312800
-0.382900 0.309000
-0.363200 0.305000
-0.343400 0.300900
-0.323700 0.296600
-0.304000 0.291900
-0.284300 0.294200
-0.264600 0.284100
-0.244900 0.274300
-0.225200 0.265000
-0.205400 0.247000
-0.185700 0.241200
-0.166000 0.235600
-0.146300 0.230100
-0.126600 0.224800
-0.106900 0.219500
-0.087200 0.214300
-0.067500 0.209200
-0.047700 0.201500
-0.028000 0.197600
-0.008300 0.193800
0.011400 0.190000
0.031100 0.186300
0.050800 0.182600
0.070500 0.179000
0.090300 0.175500
0.110000 0.172000
0.129700 0.168500
0.149400 0.165200
0.169100 0.160300
0.188800 0.157400
0.208500 0.154600
0.228200 0.151900
0.248000 0.149200
0.267700 0.146500
0.287400 0.143800
0.307100 0.141200
0.326800 0.138700
0.346500 0.136100
0.366200 0.133600
0.385900 0.131200
0.405700 0.128700
0.425400 0.126300
0.445100 0.124000
0.464800 0.120800
0.484500 0.118700
0.504200 0.116700
0.523900 0.114700
0.543700 0.112800
0.563400 0.110800
0.583100 0.108600
0.602800 0.106700
0.622500 0.104800
0.642200 0.103000
0.661900 0.101100
0.681600 0.099300
0.701400 0.097500
0.721100 0.095700
0.740800 0.094000
0.760500 0.092200
0.780200 0.090500
0.799900 0.088800
0.819600 0.087200
0.839300 0.085000
0.859100 0.083500
0.878800 0.082100
0.898500 0.080600
0.918200 0.079200
0.937900 0.077700
0.957600 0.076300
0.977300 0.074900
0.997100 0.073500
1.016800 0.072000
1.036500 0.070600
1.056200 0.069300
1.075900 0.068000
1.095600 0.066700
1.115300 0.065400
1.135000 0.064200
1.154800 0.062900
1.174500 0.061700
1.194200 0.060400
1.213900 0.059200
1.233600 0.058000
1.253300 0.056800
1.273000 0.055400
1.292800 0.054300
1.312500 0.053200
1.332200 0.052100
1.351900 0.051100
1.371600 0.050000
1.391300 0.049000
1.411000 0.048000
1.430700 0.046900
1.450500 0.045800
1.470200 0.044900
1.489900 0.043900
1.509600 0.043000
1.529300 0.042100
1.549000 0.041200
1.568700 0.040200
1.588400 0.039300
1.608200 0.038400
1.627900 0.037500
1.647600 0.097300
1.667300 0.114800
1.687000 0.133600
1.706700 0.128400
1.726400 0.134400
1.746200 0.140300
1.765900 0.146300
1.785600 0.154700
1.805300 0.164200
1.825000 0.174000
1.844700 0.175400
1.864400 0.180900
1.884100 0.186300
1.903900 0.191700
1.923600 0.198700
1.943300 0.206200
1.963000 0.213800
1.982700 0.221500
2.002400 0.229300
2.022100 0.235500
2.041800 0.237400
2.061600 0.240800
2.081300 0.243600
2.101000 0.246500
2.120700 0.250400
2.140400 0.254600
2.160100 0.258800
2.179800 0.263000
2.199600 0.267900
2.219300 0.271600
2.239000 0.275600
2.258700 0.280000
2.278400 0.284600
2.298100 0.287200
2.317800 0.290800
2.337500 0.294400
2.357300 0.297900
2.377000 0.301800
2.396700 0.305700
2.416400 0.309700
2.436100 0.313800
2.455800 0.318000
2.475500 0.322400
2.495300 0.326900
2.515000 0.327200
2.534700 0.332500
2.554400 0.337800
2.574100 0.343200
2.593800 0.347700
2.613500 0.352500
2.633200 0.357400
2.653000 0.362200
2.672700 0.367200
2.692400 0.372300
2.712100 0.376800
2.731800 0.381400
2.751500 0.385900
2.771200 0.390200
2.790900 0.394800
2.810700 0.399400
2.830400 0.404100
2.850100 0.408800
2.869800 0.413500
2.889500 0.418300
2.909200 0.423000
2.928900 0.428000
2.948700 0.433000
2.968400 0.438000
2.988100 0.443100
3.007800 0.448300
3.027500 0.453400
3.047200 0.458700
3.066900 0.463900
3.086600 0.469300
3.106400 0.474600
3.126100 0.480000
3.145800 0.485400
3.165500 0.490900
3.185200 0.496500
3.204900 0.502000
3.224600 0.507700
3.244400 0.516500
3.264100 0.523800
3.283800 0.531300
3.303500 0.538700
3.323200 0.546000
3.342900 0.553400
3.362600 0.560900
3.382300 0.568500
3.402100 0.576400
3.421800 0.584300
3.441500 0.592200
3.461200 0.600200
3.480900 0.608300
3.500600 0.648200
3.520300 0.668500
3.540000 0.688100
3.559800 0.706200
3.579500 0.717500
3.599200 0.728100
3.618900 0.738400
3.638600 0.759300
3.658300 0.757700
3.678000 0.787900
3.697800 0.785800
3.717500 0.773800
3.737200 0.761000
3.756900 0.757100
3.776600 0.752300
3.796300 0.746500
3.816000 0.740700
3.835700 0.733700
3.855500 0.732900
3.875200 0.729300
3.894900 0.729200
3.914600 0.728800
3.934300 0.728700
3.954000 0.728900
3.973700 0.729400
3.993400 0.742100
4.013200 0.749400
4.032900 0.762500
4.052600 0.781100
4.072300 0.768600
4.092000 0.763700
4.111700 0.756100
4.131400 0.745900
4.151200 0.737700
4.170900 0.733000
4.190600 0.729800
4.210300 0.726500
4.230000 0.723500
4.249700 0.720200
4.269400 0.716300
4.289100 0.713700
4.308900 0.711900
4.328600 0.711100
4.348300 0.710600
4.368000 0.710200
4.387700 0.709900
4.407400 0.709300
4.427100 0.708600
4.446900 0.707500
4.466600 0.706100
4.486300 0.705900
4.506000 0.705800
4.525700 0.705700
4.545400 0.720400
4.565100 0.729000
4.584800 0.738500
4.604600 0.748000
4.624300 0.755900
4.644000 0.762300
4.663700 0.742300
4.683400 0.734700
4.703100 0.726400
4.722800 0.720600
4.742500 0.718400
4.762300 0.715800
4.782000 0.713000
4.801700 0.709000
4.821400 0.705700
4.841100 0.702500
4.860800 0.700200
4.880500 0.698800
4.900300 0.697800
4.920000 0.696700
4.939700 0.695500
4.959400 0.693900
4.979100 0.692000
4.998800 0.689900
5.018500 0.688100
5.038200 0.687100
5.058000 0.686300
5.077700 0.685900
5.097400 0.685500
5.117100 0.685100
5.136800 0.684600
5.156500 0.686200
5.176200 0.688500
5.195900 0.693200
5.215700 0.697200
5.235400 0.701400
5.255100 0.706600
5.274800 0.728900
5.294500 0.725500
5.314200 0.724800
5.333900 0.720200
5.353700 0.710600
5.373400 0.699600
5.393100 0.691100
5.412800 0.679900
5.432500 0.699700
5.452200 0.691900
5.471900 0.684900
5.491600 0.678000
5.511400 0.672700
5.531100 0.643100
5.550800 0.664900
5.570500 0.671700
5.590200 0.684600
5.609900 0.666700
5.629600 0.652200
5.649400 0.636300
5.669100 0.620800
5.688800 0.605300
5.708500 0.592100
5.728200 0.596700
5.747900 0.602800
5.767600 0.602100
5.787300 0.601700
5.807100 0.601500
5.826800 0.601300
5.846500 0.601400
5.866200 0.600500
5.885900 0.596800
5.905600 0.593500
5.925300 0.591500
5.945000 0.592800
5.964800 0.598000
5.984500 0.603800
6.004200 0.611300
6.023900 0.597900
6.043600 0.585500
6.063300 0.573600
6.083000 0.612000
6.102800 0.613300
6.122500 0.566300
6.142200 0.565200
6.161900 0.587000
6.181600 0.588800
6.201300 0.580900
6.221000 0.566500
6.240700 0.550700
6.260500 0.544800
6.280200 0.540600
6.299900 0.538100
6.319600 0.536500
6.339300 0.535000
6.359000 0.534000
6.378700 0.532200
6.398500 0.531500
6.418200 0.532000
6.437900 0.533500
6.457600 0.538000
6.477300 0.538800
6.497000 0.538200
6.516700 0.537600
6.536400 0.536900
6.556200 0.538000
6.575900 0.540200
6.595600 0.586800
6.615300 0.541800
6.635000 0.511600
6.654700 0.509500
6.674400 0.509900
6.694100 0.511700
6.713900 0.514900
6.733600 0.519400
6.753300 0.524700
6.773000 0.588200
6.792700 0.510200
6.812400 0.506900
6.832100 0.503200
6.851900 0.499200
6.871600 0.497500
6.891300 0.496800
6.911000 0.497200
6.930700 0.498700
6.950400 0.501000
6.970100 0.503600
6.989800 0.506900
7.009600 0.512000
7.029300 0.516600
7.049000 0.524000
7.068700 0.529600
7.088400 0.525900
7.108100 0.519900
7.127800 0.520300
7.147500 0.520700
7.167300 0.555800
7.187000 0.529900
7.206700 0.523000
7.226400 0.519500
7.246100 0.513300
7.265800 0.508300
7.285500 0.507200
7.305300 0.507200
7.325000 0.507900
7.344700 0.551300
7.364400 0.502400
7.384100 0.511800
7.403800 0.510300
7.423500 0.502300
7.443200 0.499300
7.463000 0.493600
7.482700 0.491100
7.502400 0.618800
7.522100 0.480400
7.541800 0.479500
7.561500 0.478800
7.581200 0.481600
7.601000 0.486300
7.620700 0.492900
7.640400 0.501500
7.660100 0.512000
7.679800 0.507500
7.699500 0.509100
7.719200 0.510900
7.738900 0.513000
7.758700 0.515900
7.778400 0.518600
7.798100 0.522400
7.817800 0.527400
7.837500 0.529000
7.857200 0.528100
7.876900 0.495200
7.896600 0.493300
7.916400 0.492900
7.936100 0.492300
7.955800 0.491800
7.975500 0.491300
7.995200 0.490900
8.014900 0.490600
8.034600 0.490300
8.054400 0.490300
8.074100 0.493000
8.093800 0.495900
8.113500 0.495700
8.133200 0.495500
8.152900 0.495200
8.172600 0.494300
8.192300 0.493800
8.212100 0.497900
8.231800 0.503600
8.251500 0.523600
8.271200 0.479000
8.290900 0.501900
8.310600 0.503000
8.330300 0.504800
8.350000 0.529200
8.369800 0.496000
8.389500 0.492500
8.409200 0.486400
8.428900 0.481100
8.448600 0.479700
8.468300 0.478800
8.488000 0.478400
8.507800 0.478700
8.527500 0.480100
8.547200 0.482700
8.566900 0.490500
8.586600 0.502700
8.606300 0.518800
8.626000 0.534100
8.645700 0.528900
8.665500 0.529200
8.685200 0.528800
8.704900 0.492800
8.724600 0.488200
8.744300 0.487900
8.764000 0.487700
8.783700 0.487400
8.803500 0.487300
8.823200 0.487400
8.842900 0.487600
8.862600 0.488300
8.882300 0.490100
8.902000 0.489900
8.921700 0.489700
8.941400 0.490100
8.961200 0.490500
8.980900 0.492500
9.000600 0.495400
9.020300 0.499100
9.040000 0.504900
9.059700 0.506600
9.079400 0.496700
9.099100 0.492500
9.118900 0.494000
9.138600 0.493900
9.158300 0.493800
9.178000 0.493700
9.197700 0.493600
9.217400 0.496400
9.237100 0.498400
9.256900 0.499600
9.276600 0.500000
9.296300 0.484600
9.316000 0.484700
9.335700 0.484700
9.355400 0.484500
9.375100 0.484900
9.394800 0.506500
9.414600 0.532600
9.434300 0.532700
9.454000 0.536900
9.473700 0.533600
9.493400 0.542400
9.513100 0.554700
9.532800 0.570300
9.552500 0.587800
9.572300 0.607800
9.592000 0.632000
9.611700 0.620500
9.631400 0.590800
9.651100 0.596900
9.670800 0.603200
9.690500 0.610200
9.710300 0.610700
9.730000 0.616200
9.749700 0.626000
9.769400 0.634600
9.789100 0.647000
9.808800 0.655000
9.828500 0.659800
9.848200 0.662400
9.868000 0.670800
9.887700 0.678800
9.907400 0.686800
9.927100 0.695000
9.946800 0.695800
9.966500 0.700400
9.986200 0.702600
10.006000 0.703500
10.025700 0.703000
10.045400 0.701200
10.065100 0.699200
10.084800 0.675700
10.104500 0.655300
10.124200 0.655400
10.143900 0.664300
10.163700 0.667500
10.183400 0.671500
10.203100 0.676200
10.222800 0.681700
10.242500 0.686400
10.262200 0.689100
10.281900 0.717000
10.301600 0.726800
10.321400 0.777200
10.341100 0.772800
10.360800 0.801600
10.380500 0.800700
10.400200 0.786600
10.419900 0.778300
10.439600 0.782500
10.459400 0.792200
10.479100 0.798600
10.498800 0.807600
10.518500 0.809000
10.538200 0.810600
10.557900 0.804100
10.577600 0.799200
10.597300 0.794900
10.617100 0.790100
10.636800 0.785900
10.656500 0.779300
10.676200 0.776400
10.695900 0.771400
10.715600 0.768300
10.735300 0.767400
10.755100 0.767700
10.774800 0.768700
10.794500 0.770900
10.814200 0.773400
10.833900 0.776100
10.853600 0.778800
10.873300 0.774800
10.893000 0.782100
10.912800 0.801100
10.932500 0.807900
10.952200 0.811700
10.971900 0.813200
10.991600 0.811500
11.011300 0.817500
11.031000 0.817200
11.050700 0.817000
11.070500 0.817500
11.090200 0.818100
11.109900 0.818700
11.129600 0.819400
11.149300 0.820100
11.169000 0.820800
11.188700 0.822500
11.208500 0.822800
11.228200 0.823900
11.247900 0.825000
11.267600 0.826000
11.287300 0.826500
11.307000 0.826600
11.326700 0.824900
11.346400 0.822700
11.366200 0.819000
11.385900 0.810400
11.405600 0.809300
11.425300 0.813800
11.445000 0.817400
11.464700 0.831500
11.484400 0.819900
11.504100 0.824000
11.523900 0.828200
11.543600 0.843700
11.563300 0.849000
11.583000 0.853600
11.602700 0.857100
11.622400 0.860700
11.642100 0.886300
11.661900 0.891200
11.681600 0.894400
11.701300 0.902900
11.721000 0.903200
11.740700 0.878500
11.760400 0.864200
11.780100 0.854500
11.799800 0.845500
11.819600 0.837200
11.839300 0.829500
11.859000 0.823000
11.878700 0.837500
11.898400 0.827800
11.918100 0.813800
11.937800 0.807800
11.957600 0.799900
11.977300 0.792100
11.997000 0.787700
12.016700 0.796700
12.036400 0.795700
12.056100 0.794400
12.075800 0.792800
12.095500 0.790800
12.115300 0.792600
12.135000 0.789300
12.154700 0.793100
12.174400 0.808000
12.194100 0.804600
12.213800 0.809100
12.233500 0.805900
12.253200 0.763900
12.273000 0.763700
12.292700 0.760900
12.312400 0.804500
12.332100 0.795000
12.351800 0.783000
12.371500 0.707500
12.391200 0.701900
12.411000 0.698500
12.430700 0.703600
12.450400 0.707400
12.470100 0.703500
12.489800 0.701000
12.509500 0.693200
12.529200 0.693200
12.548900 0.675500
12.568700 0.699600
12.588400 0.669600
12.608100 0.655200
12.627800 0.643600
12.647500 0.633100
12.667200 0.623400
12.686900 0.620700
12.706600 0.620700
12.726400 0.611700
12.746100 0.592800
12.765800 0.586400
12.785500 0.579700
12.805200 0.572200
12.824900 0.566800
12.844600 0.556400
12.864400 0.548100
12.884100 0.532100
12.903800 0.553600
12.923500 0.553800
12.943200 0.561900
12.962900 0.573200
12.982600 0.598300
13.002300 0.609200
13.022100 0.619200
13.041800 0.628100
13.061500 0.636400
13.081200 0.644600
13.100900 0.651700
13.120600 0.657900
13.140300 0.662700
13.160100 0.673300
13.179800 0.685300
13.199500 0.662300
13.219200 0.650400
13.238900 0.636000
13.258600 0.618900
13.278300 0.603700
13.298000 0.600000
13.317800 0.596200
13.337500 0.592500
13.357200 0.597700
13.376900 0.604700
13.396600 0.613100
13.416300 0.584000
13.436000 0.580800
13.455700 0.577400
13.475500 0.574700
13.495200 0.571700
13.514900 0.567700
13.534600 0.564300
13.554300 0.562000
13.574000 0.559900
13.593700 0.581400
13.613500 0.553900
13.633200 0.551100
13.652900 0.548000
13.672600 0.544400
13.692300 0.540800
13.712000 0.538200
13.731700 0.535700
13.751400 0.533300
13.771200 0.531300
13.790900 0.529600
13.810600 0.528000
13.830300 0.526500
13.850000 0.525000
13.869700 0.523500
13.889400 0.522000
13.909200 0.520700
13.928900 0.521000
13.948600 0.519000
13.968300 0.516600
13.988000 0.514400
14.007700 0.530600
14.027400 0.519200
14.047100 0.520400
14.066900 0.521900
14.086600 0.523500
14.106300 0.512600
14.126000 0.510400
14.145700 0.508700
14.165400 0.515800
14.185100 0.511200
14.204800 0.507000
14.224600 0.538400
14.244300 0.547800
14.264000 0.558500
14.283700 0.529000
14.303400 0.531300
14.323100 0.509800
14.342800 0.514400
14.362600 0.519000
14.382300 0.523600
14.402000 0.522600
14.421700 0.525500
14.441400 0.528700
14.461100 0.532300
14.480800 0.535900
14.500500 0.539700
14.520300 0.543600
14.540000 0.547500
14.559700 0.549500
14.579400 0.553600
14.599100 0.557700
14.618800 0.561900
14.638500 0.566200
14.658200 0.570700
14.678000 0.575200
14.697700 0.579800
14.717400 0.582800
14.737100 0.587400
14.756800 0.590900
14.776500 0.597100
14.796200 0.620900
14.816000 0.642900
14.835700 0.612400
14.855400 0.616400
14.875100 0.620700
14.894800 0.624500
14.914500 0.628400
14.934200 0.632700
14.953900 0.637200
14.973700 0.641500
14.993400 0.645700
15.013100 0.650100
15.032800 0.655500
15.052500 0.661200
15.072200 0.666200
15.091900 0.669800
15.111700 0.675800
15.131400 0.683600
15.151100 0.690200
15.170800 0.687100
15.190500 0.691600
15.210200 0.696100
15.229900 0.700600
15.249600 0.707800
15.269400 0.714200
15.289100 0.721100
15.308800 0.728900
15.328500 0.736900
15.348200 0.744700
15.367900 0.752300
15.387600 0.759900
15.407300 0.768000
15.427100 0.776400
15.446800 0.785300
15.466500 0.794800
15.486200 0.804400
15.505900 0.819300
15.525600 0.825200
15.545300 0.831400
15.565100 0.837900
15.584800 0.848100
15.604500 0.854200
15.624200 0.850700
15.643900 0.842800
15.663600 0.833000
15.683300 0.842100
15.703000 0.830700
15.722800 0.826600
15.742500 0.826900
15.762200 0.832900
15.781900 0.837800
15.801600 0.844500
15.821300 0.851600
15.841000 0.854700
15.860700 0.849000
15.880500 0.841600
15.900200 0.834200
15.919900 0.831500
15.939600 0.829700
15.959300 0.827600
15.979000 0.824600
15.998700 0.822500
16.018500 0.821000
16.038200 0.822500
16.057900 0.822100
16.077600 0.822100
16.097300 0.823100
16.117000 0.825100
16.136700 0.827400
16.156400 0.830200
16.176200 0.837100
16.195900 0.843800
16.215600 0.850400
16.235300 0.857200
16.255000 0.885600
16.274700 0.888000
16.294400 0.890700
16.314200 0.910100
16.333900 0.846800
16.353600 0.840700
16.373300 0.834400
16.393000 0.825300
16.412700 0.816000
16.432400 0.827000
16.452100 0.848900
16.471900 0.867000
16.491600 0.863000
16.511300 0.886100
16.531000 0.922400
16.550700 0.959300
16.570400 0.999500
16.590100 1.037700
16.609800 1.072300
16.629600 1.113900
16.649300 1.168500
16.669000 1.226300
16.688700 1.374900
16.708400 1.459300
16.728100 1.333500
16.747800 1.293100
16.767600 1.265600
16.787300 1.253200
16.807000 1.250600
16.826700 1.245000
16.846400 1.228800
16.866100 1.206700
16.885800 1.197300
16.905500 1.187300
16.925300 1.176700
16.945000 1.164800
16.964700 1.153200
16.984400 1.141200
17.004100 1.133000
17.023800 1.130300
17.043500 1.128100
17.063200 1.127300
17.083000 1.123700
17.102700 1.114400
17.122400 1.102700
17.142100 1.083300
17.161800 1.065500
17.181500 1.052500
17.201200 1.044000
17.221000 1.037600
17.240700 1.030300
17.260400 1.027200
17.280100 1.026300
17.299800 1.032400
17.319500 1.027900
17.339200 1.044800
17.358900 1.047900
17.378700 1.031400
17.398400 1.003700
17.418100 0.975000
17.437800 0.952400
17.457500 0.938700
17.477200 0.931400
17.496900 0.926000
17.516700 0.913700
17.536400 0.901100
17.556100 0.893500
17.575800 0.899200
17.595500 0.889600
17.615200 0.880100
17.634900 0.870600
17.654600 0.861100
17.674400 0.851600
17.694100 0.840600
17.713800 0.831200
17.733500 0.826300
17.753200 0.822300
17.772900 0.816300
17.792600 0.807600
17.812300 0.801900
17.832100 0.855900
17.851800 0.865700
17.871500 0.866800
17.891200 0.870100
17.910900 0.871500
17.930600 0.856400
17.950300 0.845800
17.970100 0.831200
17.989800 0.811100
18.009500 0.799200
18.029200 0.793200
18.048900 0.792400
18.068600 0.792700
18.088300 0.794900
18.108000 0.797600
18.127800 0.801100
18.147500 0.805100
18.167200 0.806700
18.186900 0.812300
18.206600 0.816900
18.226300 0.821400
18.246000 0.820900
18.265800 0.818600
18.285500 0.817500
18.305200 0.818500
18.324900 0.823600
18.344600 0.830300
18.364300 0.838000
18.384000 0.846200
18.403700 0.854600
18.423500 0.859900
18.443200 0.869100
18.462900 0.879900
18.482600 0.896100
18.502300 0.915500
18.522000 0.937700
18.541700 0.961900
18.561400 0.988200
18.581200 1.019800
18.600900 1.166500
18.620600 1.065900
18.640300 1.072700
18.660000 1.092000
18.679700 1.107200
18.699400 1.122600
18.719200 1.143700
18.738900 1.211900
18.758600 1.235900
18.778300 1.257700
18.798000 1.277900
18.817700 1.297600
18.837400 1.322400
18.857100 1.340600
18.876900 1.346000
18.896600 1.348100
18.916300 1.348500
18.936000 1.349600
18.955700 1.348200
18.975400 1.318300
18.995100 1.283300
19.014800 1.255100
19.034600 1.302300
19.054300 1.204800
19.074000 1.158100
19.093700 1.127700
19.113400 1.087800
19.133100 1.059900
19.152800 1.031400
19.172600 1.024600
19.192300 1.011200
19.212000 1.000300
19.231700 0.992700
19.251400 0.985700
19.271100 0.980600
19.290800 0.977100
19.310500 0.986400
19.330300 0.989400
19.350000 0.992700
19.369700 0.997600
19.389400 0.999800
19.409100 0.998900
19.428800 0.984400
19.448500 0.985600
19.468300 0.985400
19.488000 0.978700
19.507700 0.966300
19.527400 0.954400
19.547100 0.947900
19.566800 0.932700
19.586500 0.915600
19.606200 0.900800
19.626000 0.902200
19.645700 0.903700
19.665400 0.933000
19.685100 0.929300
19.704800 0.924400
19.724500 0.920900
19.744200 0.931200
19.763900 0.928100
19.783700 0.927800
19.803400 0.905100
19.823100 0.906900
19.842800 0.910700
19.862500 0.915000
19.882200 0.919600
19.901900 0.924800
19.921700 0.930800
19.941400 0.941000
19.961100 0.963700
19.980800 0.978800
20.000500 0.990300
20.020200 1.001600
20.039900 1.018100
20.059600 1.027600
20.079400 1.037200
20.099100 1.049200
20.118800 1.061900
20.138500 1.093000
20.158200 1.114400
20.177900 1.136400
20.197600 1.160900
20.217300 1.188100
20.237100 1.214500
20.256800 1.236000
20.276500 1.265200
20.296200 1.299400
20.315900 1.363600
20.335600 1.406300
20.355300 1.433600
20.375100 1.453900
20.394800 1.468400
20.414500 1.481800
20.434200 1.494400
20.453900 1.506200
20.473600 1.514700
20.493300 1.530100
20.513000 1.548500
20.532800 1.542700
20.552500 1.456700
20.572200 1.444300
20.591900 1.401700
20.611600 1.372200
20.631300 1.381600
20.651000 1.378500
20.670800 1.374600
20.690500 1.332300
20.710200 1.326800
20.729900 1.325600
20.749600 1.324200
20.769300 1.316100
20.789000 1.309400
20.808700 1.303000
20.828500 1.312600
20.848200 1.333200
20.867900 1.312200
20.887600 1.289400
20.907300 1.274400
20.927000 1.252800
20.946700 1.234600
20.966400 1.218600
20.986200 1.201900
21.005900 1.220300
21.025600 1.218000
21.045300 1.108600
21.065000 1.078700
21.084700 1.039600
21.104400 1.003800
21.124200 0.976100
21.143900 0.959500
21.163600 0.938700
21.183300 0.922000
21.203000 0.909400
21.222700 0.907500
21.242400 0.906800
21.262100 0.907600
21.281900 0.912000
21.301600 0.907900
21.321300 0.914800
21.341000 0.928300
21.360700 0.929800
21.380400 1.052400
21.400100 1.057100
21.419900 1.059500
21.439600 1.037200
21.459300 1.049600
21.479000 1.065300
21.498700 1.080200
21.518400 1.096100
21.538100 1.129300
21.557800 1.141200
21.577600 1.175000
21.597300 1.228300
21.617000 1.276300
21.636700 1.354800
21.656400 1.384300
21.676100 1.396700
21.695800 1.403700
21.715500 1.407900
21.735300 1.422200
21.755000 1.426500
21.774700 1.425200
21.794400 1.401800
21.814100 1.373900
21.833800 1.341500
21.853500 1.308500
21.873300 1.278400
21.893000 1.248300
21.912700 1.227200
21.932400 1.208300
21.952100 1.196500
21.971800 1.187400
21.991500 1.180400
22.011200 1.174900
22.031000 1.169900
22.050700 1.152300
22.070400 1.155800
22.090100 1.162600
22.109800 1.171200
22.129500 1.181700
22.149200 1.185900
22.168900 1.194900
22.188700 1.194800
22.208400 1.194900
22.228100 1.201300
22.247800 1.197300
22.267500 1.301900
22.287200 1.188600
22.306900 1.193000
22.326700 1.202600
22.346400 1.210000
22.366100 1.218300
22.385800 1.228000
22.405500 1.243700
22.425200 1.258500
22.444900 1.264900
22.464600 1.277600
22.484400 1.288900
22.504100 1.299900
22.523800 1.317100
22.543500 1.334000
22.563200 1.348300
22.582900 1.372500
22.602600 1.468800
22.622400 1.393700
22.642100 1.405300
22.661800 1.416200
22.681500 1.426500
22.701200 1.435700
22.720900 1.444000
22.740600 1.444600
22.760300 1.448700
22.780100 1.448200
22.799800 1.446600
22.819500 1.442600
22.839200 1.437400
22.858900 1.430500
22.878600 1.424400
22.898300 1.416600
22.918000 1.407400
22.937800 1.357700
22.957500 1.348400
22.977200 1.333900
22.996900 1.288600
23.016600 1.250400
23.036300 1.241800
23.056000 1.204400
23.075800 1.193000
23.095500 1.190300
23.115200 1.182700
23.134900 1.180300
23.154600 1.175600
23.174300 1.170400
23.194000 1.173500
23.213700 1.175100
23.233500 1.181900
23.253200 1.187400
23.272900 1.193000
23.292600 1.201800
23.312300 1.210100
23.332000 1.218900
23.351700 1.234700
23.371400 1.250600
23.391200 1.266400
23.410900 1.268800
23.430600 1.278900
23.450300 1.289500
23.470000 1.305700
23.489700 1.354200
23.509400 1.382000
23.529200 1.457000
23.548900 1.578600
23.568600 1.582600
23.588300 1.590500
23.608000 1.608000
23.627700 1.619500
23.647400 1.627900
23.667100 1.634900
23.686900 1.642000
23.706600 1.679100
23.726300 1.647400
23.746000 1.612700
23.765700 1.578100
23.785400 1.553500
23.805100 1.534500
23.824900 1.516900
23.844600 1.481000
23.864300 1.466800
23.884000 1.447300
23.903700 1.418400
23.923400 1.408200
23.943100 1.399800
23.962800 1.392600
23.982600 1.386900
24.002300 1.366800
24.022000 1.357600
24.041700 1.377900
24.061400 1.346900
24.081100 1.336600
24.100800 1.337300
24.120500 1.339400
24.140300 1.347700
24.160000 1.360900
24.179700 1.357100
24.199400 1.349400
24.219100 1.337700
24.238800 1.325800
24.258500 1.322300
24.278300 1.343000
24.298000 1.353900
24.317700 1.349200
24.337400 1.338200
24.357100 1.325100
24.376800 1.309700
24.396500 1.297600
24.416200 1.298200
24.436000 1.297100
24.455700 1.295300
24.475400 1.293800
24.495100 1.310600
24.514800 1.310200
24.534500 1.300100
24.554200 1.290000
24.573900 1.279900
24.593700 1.393000
24.613400 1.239800
24.633100 1.218300
24.652800 1.218100
24.672500 1.206300
24.692200 1.195100
24.711900 1.197800
24.731700 1.176800
24.751400 1.176800
24.771100 1.176000
24.790800 1.177600
24.810500 1.188400
24.830200 1.244300
24.849900 1.767700
24.869600 1.251700
24.889400 1.270700
24.909100 1.293200
24.928800 1.318500
24.948500 1.344900
24.968200 1.370600
24.987900 1.377700
25.007600 1.397800
25.027400 1.417300
25.047100 1.435800
25.066800 1.454000
25.086500 1.491100
25.106200 1.543400
25.125900 1.611000
25.145600 1.593400
25.165300 1.608200
25.185100 1.613200
25.204800 1.621600
25.224500 1.629100
25.244200 1.666500
25.263900 1.673100
25.283600 1.692200
25.303300 1.701500
25.323000 1.704900
25.342800 1.726800
25.362500 1.731200
25.382200 1.677800
25.401900 1.650500
25.421600 1.657900
25.441300 1.658300
25.461000 1.657900
25.480800 1.657100
25.500500 1.657200
25.520200 1.661100
25.539900 1.681800
25.559600 1.685600
25.579300 1.692900
25.599000 1.683200
25.618700 1.628000
25.638500 1.572000
25.658200 1.527800
25.677900 1.498900
25.697600 1.470700
25.717300 1.442600
25.737000 1.413600
25.756700 1.384500
25.776500 1.349100
25.796200 1.317300
25.815900 1.287100
25.835600 1.258100
25.855300 1.224100
25.875000 1.198600
25.894700 1.188000
25.914400 1.182600
25.934200 1.178900
25.953900 1.168500
25.973600 1.152500
25.993300 1.108200
26.013000 1.095600
26.032700 1.083200
26.052400 1.070700
26.072100 1.058800
26.091900 1.025800
26.111600 0.989400
26.131300 0.981100
26.151000 0.973300
26.170700 0.970400
26.190400 1.024000
26.210100 0.973400
26.229900 0.953000
26.249600 0.955800
26.269300 0.928200
26.289000 0.911000
26.308700 0.888100
26.328400 0.859600
26.348100 0.841200
26.367800 0.827500
26.387600 0.814900
26.407300 0.802700
26.427000 0.791000
26.446700 0.779300
26.466400 0.767800
26.486100 0.786500
26.505800 0.801400
26.525500 0.711500
26.545300 0.702000
26.565000 0.692600
26.584700 0.683200
26.604400 0.673500
26.624100 0.664200
26.643800 0.655800
26.663500 0.651000
26.683300 0.643600
26.703000 0.640200
26.722700 0.633100
26.742400 0.626500
26.762100 0.620200
26.781800 0.617900
26.801500 0.611900
26.821200 0.605200
26.841000 0.625500
26.860700 0.604800
26.880400 0.590400
26.900100 0.585000
26.919800 0.591300
26.939500 0.594800
26.959200 0.586700
26.979000 0.573000
26.998700 0.563000
27.018400 0.554300
27.038100 0.548700
27.057800 0.542800
27.077500 0.536500
27.097200 0.529900
27.116900 0.520200
27.136700 0.527800
27.156400 0.512600
27.176100 0.497100
27.195800 0.479900
27.215500 0.463100
27.235200 0.426700
27.254900 0.431500
27.274600 0.417200
27.294400 0.405400
27.314100 0.393900
27.333800 0.381800
27.353500 0.376100
27.373200 0.361700
27.392900 0.349400
27.412600 0.341300
27.432400 0.324500
27.452100 0.336500
27.471800 0.242800
27.491500 0.241000
27.511200 0.239200
27.530900 0.237500
27.550600 0.236000
27.570300 0.234400
27.590100 0.229500
27.609800 0.227200
27.629500 0.224800
27.649200 0.222300
27.668900 0.219800
27.688600 0.217200
27.708300 0.214500
27.728000 0.211800
27.747800 0.209100
27.767500 0.206300
27.787200 0.204600
27.806900 0.203200
27.826600 0.201700
27.846300 0.200300
27.866000 0.198900
27.885800 0.197600
27.905500 0.196300
27.925200 0.199000
27.944900 0.201500
27.964600 0.203000
27.984300 0.201800
28.004000 0.199300
28.023700 0.196600
28.043500 0.193600
28.063200 0.190300
28.082900 0.186700
28.102600 0.185300
28.122300 0.184700
28.142000 0.184000
28.161700 0.183400
28.181500 0.182700
28.201200 0.183900
28.220900 0.182300
28.240600 0.180900
28.260300 0.179500
28.280000 0.178200
28.299700 0.177000
28.319400 0.175800
28.339200 0.174500
28.358900 0.173300
28.378600 0.172100
28.398300 0.170900
28.418000 0.169700
28.437700 0.168500
28.457400 0.167400
28.477100 0.166000
28.496900 0.164500
28.516600 0.158500
28.536300 0.155400
28.556000 0.152300
28.575700 0.149300
28.595400 0.148300
28.615100 0.147700
28.634900 0.147200
28.654600 0.146800
28.674300 0.146500
28.694000 0.146200
28.713700 0.146100
28.733400 0.146300
28.753100 0.147800
28.772800 0.150800
28.792600 0.153400
28.812300 0.154700
28.832000 0.156000
28.851700 0.158100
28.871400 0.160100
28.891100 0.142900
28.910800 0.135800
28.930600 0.132100
28.950300 0.130200
28.970000 0.128300
28.989700 0.126500
29.009400 0.124700
29.029100 0.122900
29.048800 0.121100
29.068500 0.119300
29.088300 0.117600
29.108000 0.115900
29.127700 0.114300
29.147400 0.112700
29.167100 0.111100
29.186800 0.109500
29.206500 0.108000
29.226200 0.106500
29.246000 0.105000
29.265700 0.103500
29.285400 0.102100
29.305100 0.100800
29.324800 0.099500
29.344500 0.098400
29.364200 0.097400
29.384000 0.096500
29.403700 0.096000
29.423400 0.095600
29.443100 0.095200
29.462800 0.094700
29.482500 0.094300
29.502200 0.094100
29.521900 0.094900
29.541700 0.096400
29.561400 0.097700
29.581100 0.099300
29.600800 0.102000
29.620500 0.100800
29.640200 0.103900
29.659900 0.105300
29.679600 0.104800
29.699400 0.087700
29.719100 0.085600
29.738800 0.083600
29.758500 0.081600
29.778200 0.079600
29.797900 0.077600
29.817600 0.075700
29.837400 0.073800
29.857100 0.071900
29.876800 0.070000
29.896500 0.068200
29.916200 0.066400
29.935900 0.064600
29.955600 0.062900
29.975300 0.061200
29.995100 0.059500
30.014800 0.057800
30.034500 0.056100
30.054200 0.054600
30.073900 0.053100
30.093600 0.051900
30.113300 0.050700
30.133100 0.049700
30.152800 0.048900
30.172500 0.048300
30.192200 0.048300
30.211900 0.048500
30.231600 0.049000
30.251300 0.049800
30.271000 0.050900
30.290800 0.054400
30.310500 0.056300
30.330200 0.056600
30.349900 0.053900
30.369600 0.043900
30.389300 0.040800
30.409000 0.037800
30.428700 0.034900
30.448500 0.032100
30.468200 0.029400
30.487900 0.026800
30.507600 0.024300
30.527300 0.022000
30.547000 0.019700
30.566700 0.017500
30.586500 0.015500
30.606200 0.013500
30.625900 0.011700
30.645600 0.005400
30.665300 0.000000
30.685000 0.000000
30.704700 0.000000
30.724400 0.000000
30.744200 0.000000
30.763900 0.000000
30.783600 0.000000
30.803300 0.000000
30.823000 0.000000
30.842700 0.000000
30.862400 0.000000
30.882100 0.000000
30.901900 0.000000
30.921600 0.000000
30.941300 0.000000
30.961000 0.000000
30.980700 0.000000
31.000400 0.000000
31.020100 0.000000
31.039900 0.000000
31.059600 0.000000
31.079300 0.000000
31.099000 0.000000
31.118700 0.000000
31.138400 0.000000
31.158100 0.000000
31.177800 0.000000
31.197600 0.000000
31.217300 0.000000
31.237000 0.000000
31.256700 0.000000
31.276400 0.000000
31.296100 0.000000
31.315800 0.000000
31.335600 0.000000
31.355300 0.000000
31.375000 0.000000
31.394700 0.000000
31.414400 0.000000
31.434100 0.000000
31.453800 0.000000
31.473500 0.000000
31.493300 0.000000
31.513000 0.000000
31.532700 0.000000
31.552400 0.000000
31.572100 0.000000
31.591800 0.000000
31.611500 0.000000
31.631200 0.000000
31.651000 0.000000
31.670700 0.000000
31.690400 0.000000
31.710100 0.000000
31.729800 0.000000
31.749500 0.000000
31.769200 0.000000
31.789000 0.000000
31.808700 0.000000
31.828400 0.000000
31.848100 0.000000
31.867800 0.000000
31.887500 0.000000
31.907200 0.000000
31.926900 0.000000
31.946700 0.000000
31.966400 0.000000
31.986100 0.000000
32.005800 0.000000
32.025500 0.000000
32.045200 0.000000
32.064900 0.000000
32.084700 0.000000
32.104400 0.000000
32.124100 0.000000
32.143800 0.000000
32.163500 0.000000
32.183200 0.000000
32.202900 0.000000
32.222600 0.000000
32.242400 0.000000
32.262100 0.000000
32.281800 0.000000
32.301500 0.000000
32.321200 0.000000
32.340900 0.000000
32.360600 0.000000
32.380300 0.000000
32.400100 0.000000
32.419800 0.000000
32.439500 0.000000
e
