set title 'mp-28395 - Density of States'
set xlabel 'Energy (eV)'
set ylabel 'DOS (states/eV)'
set grid
set xrange [-10:10]
set yrange [0:19.517]
set xzeroaxis lt -1
set terminal png size 800,600
set output 'mp-28395_dos_gnuplot.png'
plot '-' using 1:2 with lines title 'DOS'
-11.646200 0.000000
-11.623900 0.000000
-11.601600 0.000000
-11.579300 0.000000
-11.557000 0.000000
-11.534700 0.000000
-11.512500 0.000000
-11.490200 0.000000
-11.467900 0.000000
-11.445600 0.000000
-11.423300 0.000000
-11.401000 0.000000
-11.378700 0.000000
-11.356500 0.000000
-11.334200 0.000000
-11.311900 0.000000
-11.289600 0.000000
-11.267300 0.000000
-11.245000 0.000000
-11.222800 0.000000
-11.200500 0.000000
-11.178200 0.000000
-11.155900 0.000000
-11.133600 0.000000
-11.111300 0.000000
-11.089000 0.000000
-11.066800 0.000000
-11.044500 0.000000
-11.022200 0.000000
-10.999900 0.000000
-10.977600 0.000000
-10.955300 0.000000
-10.933100 0.000000
-10.910800 0.000000
-10.888500 0.000000
-10.866200 0.000000
-10.843900 0.000000
-10.821600 0.000000
-10.799400 0.000000
-10.777100 0.000000
-10.754800 0.000000
-10.732500 0.000000
-10.710200 0.000000
-10.687900 0.000000
-10.665600 0.000000
-10.643400 0.000000
-10.621100 0.000000
-10.598800 0.000000
-10.576500 0.000000
-10.554200 0.000000
-10.531900 0.000000
-10.509700 0.000000
-10.487400 0.000000
-10.465100 0.000000
-10.442800 0.000000
-10.420500 0.000000
-10.398200 0.000000
-10.375900 0.000000
-10.353700 0.000000
-10.331400 0.000000
-10.309100 0.000000
-10.286800 0.000000
-10.264500 0.000000
-10.242200 0.000000
-10.220000 0.000000
-10.197700 0.000000
-10.175400 0.000000
-10.153100 0.000000
-10.130800 0.000000
-10.108500 0.000000
-10.086200 0.000000
-10.064000 0.000000
-10.041700 0.000000
-10.019400 0.000000
-9.997100 0.000000
-9.974800 0.000000
-9.952500 0.000000
-9.930300 0.000000
-9.908000 0.000000
-9.885700 0.000000
-9.863400 0.000000
-9.841100 0.000000
-9.818800 0.000000
-9.796600 0.000000
-9.774300 0.000000
-9.752000 0.000000
-9.729700 0.000000
-9.707400 0.000000
-9.685100 0.000000
-9.662800 0.000000
-9.640600 0.000000
-9.618300 0.000100
-9.596000 0.018300
-9.573700 0.067200
-9.551400 0.146800
-9.529100 0.257200
-9.506900 0.398300
-9.484600 0.570200
-9.462300 0.772800
-9.440000 0.833900
-9.417700 0.837300
-9.395400 0.870600
-9.373100 0.942500
-9.350900 1.016500
-9.328600 1.092500
-9.306300 1.170700
-9.284000 1.250900
-9.261700 1.333200
-9.239400 1.417600
-9.217200 1.507600
-9.194900 1.610200
-9.172600 1.725400
-9.150300 1.861000
-9.128000 2.037400
-9.105700 2.256000
-9.083400 2.519500
-9.061200 2.955700
-9.038900 3.442600
-9.016600 3.849500
-8.994300 4.192200
-8.972000 4.485400
-8.949700 4.758700
-8.927500 4.908000
-8.905200 5.160800
-8.882900 6.394000
-8.860600 6.953600
-8.838300 7.985800
-8.816000 8.373500
-8.793700 0.037300
-8.771500 0.000000
-8.749200 0.000000
-8.726900 0.000000
-8.704600 0.000000
-8.682300 0.000000
-8.660000 0.000000
-8.637800 0.000000
-8.615500 0.000000
-8.593200 0.000000
-8.570900 0.000000
-8.548600 0.000000
-8.526300 0.000000
-8.504100 0.000000
-8.481800 0.000000
-8.459500 0.000000
-8.437200 0.000000
-8.414900 0.000000
-8.392600 0.000000
-8.370300 0.000000
-8.348100 0.000000
-8.325800 0.000000
-8.303500 0.000000
-8.281200 0.000000
-8.258900 0.000000
-8.236600 0.000000
-8.214400 0.000000
-8.192100 0.000000
-8.169800 0.000000
-8.147500 0.000000
-8.125200 0.000000
-8.102900 0.000000
-8.080600 0.000000
-8.058400 0.000000
-8.036100 0.000000
-8.013800 0.000000
-7.991500 0.000000
-7.969200 0.000000
-7.946900 0.000000
-7.924700 0.000000
-7.902400 0.000000
-7.880100 0.000000
-7.857800 0.000000
-7.835500 0.000000
-7.813200 0.000000
-7.790900 0.000000
-7.768700 2.154800
-7.746400 1.529400
-7.724100 1.500400
-7.701800 1.729600
-7.679500 1.932400
-7.657200 2.108700
-7.635000 2.258500
-7.612700 2.381900
-7.590400 2.478900
-7.568100 2.549400
-7.545800 2.605700
-7.523500 2.771500
-7.501300 2.957700
-7.479000 3.164300
-7.456700 3.391400
-7.434400 3.196200
-7.412100 2.917500
-7.389800 2.824600
-7.367500 2.826700
-7.345300 2.858900
-7.323000 3.030900
-7.300700 3.118800
-7.278400 3.122700
-7.256100 3.042500
-7.233800 2.882200
-7.211600 2.671100
-7.189300 2.561100
-7.167000 2.534800
-7.144700 2.467900
-7.122400 2.225400
-7.100100 1.793200
-7.077800 1.270300
-7.055600 1.008700
-7.033300 0.927100
-7.011000 0.858900
-6.988700 0.782200
-6.966400 0.700400
-6.944100 0.627900
-6.921900 0.564600
-6.899600 0.506200
-6.877300 0.450800
-6.855000 0.398300
-6.832700 0.348800
-6.810400 0.302300
-6.788100 0.258700
-6.765900 0.218100
-6.743600 0.180500
-6.721300 0.145800
-6.699000 0.114200
-6.676700 0.086300
-6.654400 0.062400
-6.632200 0.042300
-6.609900 0.026100
-6.587600 0.013800
-6.565300 0.005400
-6.543000 0.000900
-6.520700 0.000000
-6.498400 0.000000
-6.476200 0.000000
-6.453900 0.034000
-6.431600 0.157100
-6.409300 0.370100
-6.387000 0.673100
-6.364700 1.045500
-6.342500 1.369000
-6.320200 1.624800
-6.297900 1.812800
-6.275600 1.933200
-6.253300 2.053900
-6.231000 2.418200
-6.208800 2.252700
-6.186500 1.527300
-6.164200 1.554900
-6.141900 1.581100
-6.119600 1.606100
-6.097300 1.629700
-6.075000 1.652000
-6.052800 1.672900
-6.030500 1.692600
-6.008200 1.711000
-5.985900 1.728000
-5.963600 1.728600
-5.941300 1.728000
-5.919100 1.729800
-5.896800 1.733900
-5.874500 1.693500
-5.852200 1.654400
-5.829900 1.618000
-5.807600 1.584200
-5.785300 1.553100
-5.763100 1.524500
-5.740800 1.496800
-5.718500 1.469600
-5.696200 1.442800
-5.673900 1.416600
-5.651600 1.398800
-5.629400 1.403300
-5.607100 1.403700
-5.584800 1.399100
-5.562500 1.389400
-5.540200 1.374600
-5.517900 1.494500
-5.495600 2.523000
-5.473400 3.489400
-5.451100 3.628200
-5.428800 3.729000
-5.406500 3.808200
-5.384200 3.865800
-5.361900 3.901800
-5.339700 3.917500
-5.317400 3.914600
-5.295100 3.892400
-5.272800 3.908400
-5.250500 3.977300
-5.228200 4.252000
-5.206000 4.684600
-5.183700 4.913200
-5.161400 4.945900
-5.139100 4.824400
-5.116800 4.898500
-5.094500 5.075900
-5.072200 5.300000
-5.050000 5.251800
-5.027700 5.396300
-5.005400 5.636200
-4.983100 5.837400
-4.960800 5.970300
-4.938500 6.097200
-4.916300 6.614300
-4.894000 5.472400
-4.871700 4.958600
-4.849400 4.987900
-4.827100 4.975100
-4.804800 4.921900
-4.782500 4.638500
-4.760300 4.167300
-4.738000 3.762900
-4.715700 3.584000
-4.693400 3.568600
-4.671100 3.518500
-4.648800 3.430200
-4.626600 3.422700
-4.604300 3.395400
-4.582000 3.333500
-4.559700 3.237300
-4.537400 3.001400
-4.515100 2.751300
-4.492800 2.545700
-4.470600 2.345200
-4.448300 2.140000
-4.426000 1.414500
-4.403700 1.117000
-4.381400 0.871600
-4.359100 0.678200
-4.336900 0.537000
-4.314600 0.447900
-4.292300 0.410900
-4.270000 0.426000
-4.247700 0.474300
-4.225400 0.527300
-4.203100 0.584600
-4.180900 0.657800
-4.158600 0.747200
-4.136300 0.867500
-4.114000 1.022700
-4.091700 1.212800
-4.069400 1.485100
-4.047200 1.796600
-4.024900 2.075100
-4.002600 2.320700
-3.980300 2.533300
-3.958000 2.713000
-3.935700 2.859700
-3.913500 2.914900
-3.891200 2.888700
-3.868900 2.804800
-3.846600 2.693800
-3.824300 2.608500
-3.802000 2.567700
-3.779700 2.571500
-3.757500 2.619900
-3.735200 2.518500
-3.712900 2.139000
-3.690600 1.931200
-3.668300 1.899400
-3.646000 1.872000
-3.623800 1.842800
-3.601500 1.811800
-3.579200 1.779000
-3.556900 1.744400
-3.534600 1.705900
-3.512300 1.661700
-3.490000 1.611800
-3.467800 1.556200
-3.445500 1.495000
-3.423200 1.416000
-3.400900 1.318300
-3.378600 1.231500
-3.356300 1.151400
-3.334100 1.075100
-3.311800 1.002700
-3.289500 0.934100
-3.267200 0.869400
-3.244900 0.808500
-3.222600 0.751500
-3.200300 0.698400
-3.178100 0.649100
-3.155800 0.603600
-3.133500 0.562000
-3.111200 0.526600
-3.088900 0.499500
-3.066600 0.467600
-3.044400 0.430400
-3.022100 0.388000
-2.999800 0.340400
-2.977500 0.287600
-2.955200 0.229500
-2.932900 0.166200
-2.910700 0.097600
-2.888400 0.023800
-2.866100 0.000000
-2.843800 0.000000
-2.821500 0.000000
-2.799200 0.000000
-2.776900 0.000000
-2.754700 0.000000
-2.732400 0.000000
-2.710100 0.000000
-2.687800 0.000200
-2.665500 0.035300
-2.643200 0.069400
-2.621000 0.102600
-2.598700 0.135000
-2.576400 0.166300
-2.554100 0.196800
-2.531800 0.226400
-2.509500 0.255000
-2.487200 0.282700
-2.465000 0.317100
-2.442700 0.411300
-2.420400 0.510000
-2.398100 0.617800
-2.375800 0.727900
-2.353500 0.843400
-2.331300 0.972600
-2.309000 1.116000
-2.286700 1.273600
-2.264400 1.523200
-2.242100 2.035900
-2.219800 3.530400
-2.197500 5.906700
-2.175300 8.442800
-2.153000 7.894700
-2.130700 7.310100
-2.108400 6.085500
-2.086100 4.740900
-2.063800 4.063900
-2.041600 3.842600
-2.019300 3.669700
-1.997000 3.531100
-1.974700 3.413500
-1.952400 3.324400
-1.930100 3.285600
-1.907800 3.226100
-1.885600 3.212200
-1.863300 3.247400
-1.841000 3.327100
-1.818700 3.437100
-1.796400 3.501600
-1.774100 3.452900
-1.751900 3.291000
-1.729600 3.185900
-1.707300 2.100000
-1.685000 2.233000
-1.662700 2.378700
-1.640400 2.515500
-1.618200 2.624400
-1.595900 2.709500
-1.573600 2.838900
-1.551300 3.106200
-1.529000 3.515100
-1.506700 3.878400
-1.484400 4.196000
-1.462200 4.511500
-1.439900 4.915600
-1.417600 5.370400
-1.395300 5.654100
-1.373000 5.474500
-1.350700 5.094000
-1.328500 4.621000
-1.306200 4.428900
-1.283900 4.269500
-1.261600 4.142900
-1.239300 4.040200
-1.217000 3.977400
-1.194700 3.887900
-1.172500 3.810500
-1.150200 3.743800
-1.127900 3.680400
-1.105600 3.619100
-1.083300 3.559800
-1.061000 3.502500
-1.038800 3.893700
-1.016500 4.049400
-0.994200 3.827200
-0.971900 3.176100
-0.949600 2.582400
-0.927300 2.306100
-0.905000 2.246300
-0.882800 2.580500
-0.860500 2.741700
-0.838200 2.730300
-0.815900 2.682300
-0.793600 2.753900
-0.771300 2.824900
-0.749100 2.890500
-0.726800 2.950700
-0.704500 3.005600
-0.682200 3.055000
-0.659900 3.192200
-0.637600 5.984600
-0.615400 9.007500
-0.593100 5.425100
-0.570800 5.328500
-0.548500 5.283600
-0.526200 5.179900
-0.503900 5.064400
-0.481600 4.943000
-0.459400 5.028600
-0.437100 4.930000
-0.414800 6.177800
-0.392500 6.912800
-0.370200 5.620800
-0.347900 4.855100
-0.325700 4.324000
-0.303400 3.935300
-0.281100 4.330800
-0.258800 3.424000
-0.236500 1.801400
-0.214200 2.281800
-0.191900 6.183400
-0.169700 8.174800
-0.147400 8.340700
-0.125100 7.657600
-0.102800 5.881200
-0.080500 4.378700
-0.058200 3.393500
-0.036000 2.902200
-0.013700 2.605600
0.008600 2.347800
0.030900 2.194600
0.053200 2.138600
0.075500 2.088000
0.097800 2.042900
0.120000 2.002300
0.142300 1.964500
0.164600 1.929300
0.186900 1.896900
0.209200 1.867100
0.231500 1.840000
0.253700 1.815100
0.276000 1.792100
0.298300 1.771000
0.320600 1.751800
0.342900 1.735400
0.365200 1.722400
0.387500 1.712900
0.409700 1.711500
0.432000 1.773900
0.454300 1.916100
0.476600 2.138200
0.498900 2.448100
0.521200 2.784000
0.543400 3.119100
0.565700 3.872300
0.588000 4.236300
0.610300 4.796400
0.632600 5.212500
0.654900 5.483500
0.677100 5.501200
0.699400 5.196300
0.721700 4.568900
0.744000 3.860300
0.766300 3.036300
0.788600 2.400200
0.810900 2.277700
0.833100 2.620500
0.855400 2.963200
0.877700 3.372600
0.900000 3.757500
0.922300 4.038700
0.944600 4.216300
0.966800 4.290300
0.989100 4.260600
1.011400 4.140300
1.033700 3.915700
1.056000 3.752100
1.078300 3.702900
1.100600 3.724600
1.122800 3.764100
1.145100 3.773200
1.167400 3.752100
1.189700 3.700800
1.212000 3.648900
1.234300 3.691000
1.256500 3.772300
1.278800 3.854000
1.301100 3.946600
1.323400 4.045900
1.345700 4.134000
1.368000 4.371800
1.390300 5.181000
1.412500 5.777000
1.434800 5.869800
1.457100 5.635000
1.479400 5.399600
1.501700 5.165700
1.524000 4.933200
1.546200 4.702200
1.568500 4.487400
1.590800 4.267900
1.613100 3.933000
1.635400 3.491600
1.657700 3.148900
1.680000 2.899200
1.702200 2.723100
1.724500 2.504600
1.746800 2.243700
1.769100 2.044900
1.791400 1.889100
1.813700 1.780900
1.835900 2.133000
1.858200 4.265100
1.880500 3.744300
1.902800 3.106200
1.925100 3.505200
1.947400 4.032100
1.969600 4.476000
1.991900 4.770500
2.014200 5.203500
2.036500 5.261700
2.058800 10.136500
2.081100 3.211600
2.103400 3.198500
2.125600 3.176400
2.147900 3.213400
2.170200 3.291400
2.192500 3.382500
2.214800 3.486800
2.237100 3.602900
2.259300 3.694000
2.281600 3.492900
2.303900 3.225400
2.326200 3.209800
2.348500 3.296100
2.370800 3.482200
2.393100 3.674800
2.415300 3.871300
2.437600 4.057200
2.459900 4.240800
2.482200 4.418300
2.504500 4.589600
2.526800 4.764400
2.549000 10.052600
2.571300 15.189200
2.593600 17.742900
2.615900 14.221200
2.638200 10.734700
2.660500 8.543200
2.682800 6.638100
2.705000 9.563800
2.727300 13.583200
2.749600 15.369500
2.771900 14.765900
2.794200 9.250300
2.816500 6.139300
2.838700 5.524700
2.861000 5.764100
2.883300 5.876900
2.905600 5.754400
2.927900 5.483700
2.950200 5.205700
2.972400 5.127800
2.994700 5.021700
3.017000 5.246500
3.039300 5.676300
3.061600 6.057900
3.083900 6.709200
3.106200 7.524600
3.128400 7.670300
3.150700 6.789000
3.173000 5.903100
3.195300 5.678000
3.217600 6.048900
3.239900 6.881700
3.262100 7.387500
3.284400 6.817200
3.306700 5.946900
3.329000 5.236100
3.351300 4.864100
3.373600 4.737000
3.395900 4.751300
3.418100 5.139100
3.440400 5.861000
3.462700 7.074800
3.485000 9.114500
3.507300 11.739100
3.529600 7.830700
3.551800 7.242600
3.574100 6.827700
3.596400 6.613500
3.618700 6.103200
3.641000 6.123500
3.663300 6.609400
3.685600 7.199700
3.707800 6.424700
3.730100 6.717100
3.752400 7.044500
3.774700 7.403200
3.797000 7.374300
3.819300 7.047000
3.841500 6.478700
3.863800 5.691900
3.886100 5.206300
3.908400 4.903100
3.930700 4.640800
3.953000 4.504300
3.975300 4.389300
3.997500 4.129000
4.019800 3.912800
4.042100 4.019500
4.064400 4.236600
4.086700 4.815000
4.109000 5.763700
4.131200 6.431300
4.153500 7.380600
4.175800 10.673300
4.198100 9.786200
4.220400 10.713600
4.242700 10.693200
4.264900 9.430500
4.287200 7.209000
4.309500 5.129400
4.331800 4.310000
4.354100 3.755500
4.376400 3.141400
4.398700 2.781900
4.420900 6.435200
4.443200 6.029700
4.465500 5.105500
4.487800 4.730800
4.510100 4.515700
4.532400 4.397200
4.554600 4.279000
4.576900 4.160300
4.599200 4.051100
4.621500 3.951500
4.643800 3.850000
4.666100 3.710100
4.688400 3.608300
4.710600 3.544700
4.732900 3.519100
4.755200 3.520700
4.777500 3.529400
4.799800 3.544500
4.822100 3.566000
4.844300 3.534000
4.866600 5.066200
4.888900 2.424600
4.911200 2.182800
4.933500 1.948700
4.955800 1.934300
4.978100 1.909700
5.000300 1.842400
5.022600 1.734800
5.044900 1.597600
5.067200 1.431800
5.089500 1.237500
5.111800 1.014800
5.134000 0.763500
5.156300 0.378900
5.178600 0.000000
5.200900 0.000000
5.223200 0.000000
5.245500 0.000000
5.267700 0.000000
5.290000 0.000000
5.312300 0.000000
5.334600 0.000000
5.356900 0.000000
5.379200 0.000000
5.401500 0.000000
5.423700 0.000000
5.446000 0.000000
5.468300 0.000000
5.490600 0.000000
5.512900 0.000000
5.535200 0.000000
5.557400 0.000000
5.579700 0.000000
5.602000 0.000000
5.624300 0.000000
5.646600 0.000000
5.668900 0.000000
5.691200 0.000000
5.713400 0.000000
5.735700 0.000000
5.758000 0.000000
5.780300 0.000000
5.802600 0.000000
5.824900 0.000000
5.847100 0.000000
5.869400 0.000000
5.891700 0.000000
5.914000 0.000000
5.936300 0.000000
5.958600 0.000000
5.980900 0.000000
6.003100 0.000000
6.025400 0.000000
6.047700 0.000000
6.070000 0.000000
6.092300 0.000000
6.114600 0.000000
6.136800 0.000000
6.159100 0.000000
6.181400 0.000000
6.203700 0.000000
6.226000 0.000000
6.248300 0.000000
6.270600 0.000000
6.292800 0.000000
6.315100 0.000000
6.337400 0.000000
6.359700 0.000000
6.382000 0.000000
6.404300 0.000000
6.426500 0.000000
6.448800 0.000000
6.471100 0.000000
6.493400 0.000000
6.515700 0.000000
6.538000 0.000000
6.560200 0.000000
6.582500 0.000000
6.604800 0.000000
6.627100 0.000000
6.649400 0.000000
6.671700 0.000000
6.694000 0.000000
6.716200 0.000000
6.738500 0.000000
6.760800 0.000000
6.783100 0.000000
6.805400 0.000000
6.827700 0.000000
6.849900 0.000000
6.872200 0.000000
6.894500 0.000000
6.916800 0.000000
6.939100 0.000000
6.961400 0.000000
6.983700 0.000000
7.005900 0.000000
7.028200 0.000000
7.050500 0.000000
7.072800 0.000000
7.095100 0.000000
7.117400 0.000000
7.139600 0.000000
7.161900 0.000000
7.184200 0.000000
7.206500 0.000000
7.228800 0.000000
7.251100 0.000000
7.273400 0.000000
7.295600 0.000000
7.317900 0.000000
7.340200 0.000000
7.362500 0.000000
7.384800 0.000000
7.407100 0.000000
7.429300 0.000000
7.451600 0.000000
7.473900 0.000000
7.496200 0.000000
7.518500 0.000000
7.540800 0.000000
7.563000 0.000000
7.585300 0.000000
7.607600 0.000000
7.629900 0.000000
7.652200 0.000000
7.674500 0.000000
7.696800 0.000000
7.719000 0.000000
7.741300 0.000000
7.763600 0.000000
7.785900 0.000000
7.808200 0.000000
7.830500 0.000000
7.852700 0.000000
7.875000 0.000000
7.897300 0.016300
7.919600 0.083700
7.941900 0.161600
7.964200 0.249900
7.986500 0.348600
8.008700 0.457800
8.031000 0.577500
8.053300 0.721500
8.075600 0.899100
8.097900 1.110400
8.120200 1.355400
8.142400 1.634000
8.164700 1.806000
8.187000 1.867100
8.209300 1.836800
8.231600 1.865400
8.253900 2.000500
8.276200 2.123900
8.298400 2.235700
8.320700 2.335000
8.343000 2.420200
8.365300 2.491200
8.387600 2.548100
8.409900 2.590900
8.432100 2.619500
8.454400 2.634000
8.476700 2.649800
8.499000 2.661600
8.521300 2.680700
8.543600 2.717900
8.565900 2.773200
8.588100 2.846500
8.610400 2.937900
8.632700 3.047400
8.655000 3.382900
8.677300 3.658700
8.699600 3.415800
8.721800 2.729300
8.744100 2.350000
8.766400 1.927000
8.788700 2.091600
8.811000 2.352400
8.833300 2.642900
8.855500 3.089400
8.877800 3.608800
8.900100 4.021600
8.922400 4.234300
8.944700 4.340800
8.967000 4.408700
8.989300 4.457900
9.011500 4.653800
9.033800 4.950600
9.056100 4.960200
9.078400 4.650200
9.100700 4.034400
9.123000 3.482800
9.145200 3.198500
9.167500 2.978200
9.189800 2.760900
9.212100 2.519300
9.234400 2.270600
9.256700 2.004200
9.279000 1.887300
9.301200 1.811600
9.323500 1.743700
9.345800 1.683400
9.368100 1.630900
9.390400 1.586100
9.412700 1.549000
9.434900 2.293400
9.457200 3.041300
9.479500 3.135600
9.501800 3.361300
9.524100 3.636800
9.546400 4.039900
9.568700 4.330600
9.590900 4.475000
9.613200 4.672500
9.635500 5.194400
9.657800 4.929200
9.680100 4.624800
9.702400 4.420400
9.724600 4.987700
9.746900 5.113000
9.769200 4.962200
9.791500 5.101400
9.813800 5.229000
9.836100 5.345000
9.858300 5.267400
9.880600 4.749200
9.902900 4.369900
9.925200 3.953000
9.947500 3.656000
9.969800 3.526600
9.992100 3.663400
10.014300 3.835100
10.036600 4.026000
10.058900 4.134800
10.081200 4.133500
10.103500 4.018500
10.125800 4.322400
10.148000 5.040300
10.170300 5.416700
10.192600 5.310600
10.214900 5.304000
10.237200 5.398700
10.259500 5.527700
10.281800 5.623100
10.304000 5.684800
10.326300 5.712900
10.348600 5.771600
10.370900 5.734700
10.393200 5.501700
10.415500 5.127200
10.437700 4.675300
10.460000 4.014900
10.482300 3.129500
10.504600 2.574300
10.526900 2.393100
10.549200 2.531900
10.571500 2.783400
10.593700 3.163800
10.616000 4.391000
10.638300 5.594800
10.660600 6.630700
10.682900 6.819200
10.705200 6.354300
10.727400 6.026900
10.749700 5.617300
10.772000 5.348300
10.794300 5.157700
10.816600 4.956200
10.838900 4.910900
10.861200 4.888600
10.883400 4.925200
10.905700 4.994900
10.928000 5.033100
10.950300 5.030100
10.972600 5.131700
10.994900 5.628000
11.017100 6.383900
11.039400 5.842100
11.061700 5.239200
11.084000 4.859200
11.106300 4.696100
11.128600 4.596100
11.150800 4.486100
11.173100 4.340800
11.195400 4.077400
11.217700 3.905300
11.240000 3.783500
11.262300 3.711700
11.284600 3.682800
11.306800 3.681800
11.329100 3.695500
11.351400 3.967100
11.373700 4.337900
11.396000 4.636400
11.418300 4.867100
11.440500 5.020800
11.462800 5.127800
11.485100 5.292900
11.507400 5.382600
11.529700 5.440200
11.552000 5.457200
11.574300 5.433600
11.596500 5.371700
11.618800 5.288400
11.641100 5.238100
11.663400 5.288900
11.685700 5.410600
11.708000 5.671400
11.730200 6.049000
11.752500 6.309800
11.774800 6.420700
11.797100 6.392400
11.819400 6.210400
11.841700 5.903700
11.864000 5.731300
11.886200 5.557000
11.908500 5.374600
11.930800 5.168900
11.953100 4.918100
11.975400 4.618600
11.997700 4.271100
12.019900 3.927000
12.042200 3.606300
12.064500 3.422100
12.086800 3.265400
12.109100 3.140000
12.131400 3.078400
12.153600 3.055800
12.175900 3.041700
12.198200 3.054800
12.220500 3.071100
12.242800 3.085300
12.265100 3.097400
12.287400 3.107400
12.309600 3.325900
12.331900 3.613100
12.354200 3.645400
12.376500 3.669100
12.398800 3.879700
12.421100 4.150800
12.443300 4.339500
12.465600 4.446200
12.487900 4.459000
12.510200 4.435800
12.532500 4.845400
12.554800 4.469100
12.577100 4.032400
12.599300 3.534900
12.621600 3.177000
12.643900 3.009900
12.666200 2.853300
12.688500 2.733900
12.710800 2.655800
12.733000 2.600600
12.755300 2.589100
12.777600 2.624600
12.799900 2.700000
12.822200 2.787200
12.844500 2.927700
12.866800 3.562100
12.889000 3.905500
12.911300 4.141900
12.933600 4.345200
12.955900 4.511300
12.978200 4.639800
13.000500 4.730900
13.022700 4.831700
13.045000 4.977500
13.067300 5.055800
13.089600 5.129500
13.111900 5.144900
13.134200 5.095100
13.156500 5.084000
13.178700 5.192200
13.201000 6.138700
13.223300 5.567900
13.245600 5.429100
13.267900 5.937900
13.290200 5.849000
13.312400 5.736500
13.334700 5.539300
13.357000 5.624000
13.379300 5.776500
13.401600 5.923200
13.423900 6.131900
13.446100 5.915200
13.468400 5.553900
13.490700 5.070900
13.513000 4.539100
13.535300 3.964100
13.557600 3.668300
13.579900 3.807900
13.602100 4.533400
13.624400 5.999100
13.646700 6.649700
13.669000 7.417800
13.691300 9.630900
13.713600 7.743500
13.735800 6.535500
13.758100 6.482000
13.780400 4.039000
13.802700 3.042000
13.825000 2.856200
13.847300 2.786900
13.869600 2.838200
13.891800 2.910800
13.914100 3.628600
13.936400 5.172400
13.958700 6.434100
13.981000 7.345100
14.003300 7.929900
14.025500 8.575300
14.047800 7.794800
14.070100 7.003900
14.092400 8.689900
14.114700 7.766300
14.137000 7.173600
14.159300 6.663500
14.181500 6.405400
14.203800 6.549700
14.226100 6.708200
14.248400 6.895600
14.270700 8.051100
14.293000 7.930800
14.315200 7.231600
14.337500 6.512000
14.359800 5.665700
14.382100 4.712300
14.404400 4.211900
14.426700 4.094200
14.448900 3.971700
14.471200 3.878700
14.493500 3.817800
14.515800 3.799000
14.538100 3.801400
14.560400 3.801800
14.582700 3.800100
14.604900 3.827800
14.627200 4.393000
14.649500 5.668400
14.671800 6.133900
14.694100 8.837900
14.716400 8.118800
14.738600 5.466600
14.760900 5.648200
14.783200 6.642500
14.805500 8.069500
14.827800 9.377700
14.850100 9.163000
14.872400 9.793700
14.894600 9.355100
14.916900 8.806800
14.939200 8.243400
14.961500 7.575000
14.983800 6.942200
15.006100 6.357300
15.028300 5.730500
15.050600 4.970600
15.072900 4.139000
15.095200 3.457000
15.117500 3.181300
15.139800 3.051900
15.162100 2.948300
15.184300 2.887100
15.206600 2.869400
15.228900 2.896200
15.251200 2.941100
15.273500 2.960100
15.295800 2.991500
15.318000 3.132700
15.340300 3.239300
15.362600 3.311100
15.384900 3.343900
15.407200 3.323600
15.429500 3.289300
15.451800 3.309600
15.474000 3.359900
15.496300 3.439200
15.518600 3.542600
15.540900 3.655100
15.563200 3.745100
15.585500 3.793400
15.607700 3.800100
15.630000 3.778600
15.652300 3.745000
15.674600 3.710400
15.696900 3.685600
15.719200 3.670600
15.741400 3.665500
15.763700 4.149600
15.786000 4.818200
15.808300 5.396400
15.830600 5.399800
15.852900 5.398700
15.875200 5.584600
15.897400 5.820300
15.919700 6.076500
15.942000 8.765100
15.964300 7.032900
15.986600 6.465800
16.008900 5.705600
16.031100 6.341200
16.053400 7.096000
16.075700 7.463300
16.098000 7.762200
16.120300 8.373900
16.142600 8.982800
16.164900 7.681400
16.187100 6.969900
16.209400 6.557200
16.231700 6.130000
16.254000 5.769200
16.276300 5.454100
16.298600 5.253500
16.320800 4.996900
16.343100 4.596900
16.365400 4.254000
16.387700 3.983500
16.410000 4.226500
16.432300 4.612200
16.454600 4.979300
16.476800 5.327600
16.499100 5.637500
16.521400 5.823900
16.543700 5.918600
16.566000 5.956200
16.588300 6.009200
16.610500 5.903100
16.632800 5.648100
16.655100 5.396000
16.677400 5.146800
16.699700 4.963900
16.722000 4.846700
16.744200 4.121600
16.766500 3.580700
16.788800 3.436200
16.811100 3.297100
16.833400 3.215800
16.855700 3.239300
16.878000 3.406100
16.900200 3.617100
16.922500 3.872300
16.944800 4.145300
16.967100 4.447500
16.989400 4.628600
17.011700 4.502800
17.033900 4.247800
17.056200 3.950700
17.078500 4.119800
17.100800 4.200600
17.123100 4.285200
17.145400 4.721300
17.167700 5.041800
17.189900 5.159400
17.212200 5.099500
17.234500 4.866700
17.256800 4.565200
17.279100 4.374000
17.301400 4.313200
17.323600 4.144700
17.345900 4.455500
17.368200 4.696600
17.390500 4.848400
17.412800 4.910800
17.435100 4.879400
17.457400 4.757400
17.479600 4.609300
17.501900 4.440100
17.524200 4.277200
17.546500 4.092100
17.568800 3.909200
17.591100 3.884400
17.613300 4.452300
17.635600 4.189100
17.657900 3.440400
17.680200 2.973500
17.702500 2.849600
17.724800 3.153100
17.747100 3.394700
17.769300 3.602800
17.791600 3.804500
17.813900 4.039100
17.836200 4.265600
17.858500 4.522300
17.880800 4.779600
17.903000 4.809100
17.925300 4.829100
17.947600 4.839700
17.969900 4.834400
17.992200 4.809200
18.014500 4.847100
18.036700 6.022200
18.059000 10.113000
18.081300 7.649200
18.103600 5.151300
18.125900 5.387500
18.148200 5.419000
18.170500 4.794100
18.192700 5.625400
18.215000 6.511600
18.237300 7.335000
18.259600 7.757500
18.281900 6.933500
18.304200 5.831600
18.326400 4.725700
18.348700 4.248800
18.371000 4.023400
18.393300 3.940700
18.415600 3.958300
18.437900 4.079600
18.460200 4.275100
18.482400 4.509100
18.504700 4.802200
18.527000 5.190400
18.549300 5.617700
18.571600 6.205700
18.593900 7.241500
18.616100 7.751600
18.638400 8.328000
18.660700 8.865900
18.683000 9.443000
18.705300 8.204400
18.727600 7.291600
18.749900 6.842200
18.772100 9.240800
18.794400 8.094600
18.816700 7.164800
18.839000 6.373600
18.861300 6.445600
18.883600 6.565400
18.905800 6.729300
18.928100 6.937100
18.950400 7.113400
18.972700 7.438300
18.995000 6.604300
19.017300 6.685000
19.039500 7.693300
19.061800 9.093500
19.084100 10.640500
19.106400 7.480800
19.128700 7.168900
19.151000 6.792800
19.173300 6.295300
19.195500 5.953700
19.217800 6.257400
19.240100 5.630500
19.262400 5.502000
19.284700 5.442100
19.307000 5.394100
19.329200 5.308900
19.351500 5.192900
19.373800 5.049000
19.396100 5.107200
19.418400 5.161400
19.440700 5.241900
19.463000 5.335800
19.485200 5.356100
19.507500 5.861700
19.529800 6.109700
19.552100 5.543700
19.574400 5.194400
19.596700 5.095400
19.618900 5.062100
19.641200 5.036500
19.663500 5.026600
19.685800 5.032800
19.708100 5.048700
19.730400 5.103100
19.752700 5.148600
19.774900 5.078200
19.797200 4.941400
19.819500 4.742500
19.841800 4.503200
19.864100 4.296000
19.886400 4.159100
19.908600 4.121000
19.930900 4.140800
19.953200 4.182600
19.975500 4.218100
19.997800 4.088600
20.020100 3.905000
20.042400 3.855100
20.064600 4.042600
20.086900 4.339100
20.109200 4.666400
20.131500 5.050200
20.153800 5.504700
20.176100 5.818700
20.198300 5.924900
20.220600 6.011600
20.242900 5.772000
20.265200 4.564700
20.287500 4.467400
20.309800 4.451200
20.332000 4.382400
20.354300 4.311800
20.376600 4.229300
20.398900 4.137900
20.421200 4.037500
20.443500 3.928300
20.465800 3.881900
20.488000 3.932700
20.510300 4.097900
20.532600 4.699100
20.554900 5.748800
20.577200 7.416700
20.599500 7.624900
20.621700 7.318800
20.644000 7.310000
20.666300 6.946100
20.688600 6.935000
20.710900 6.858100
20.733200 6.775000
20.755500 7.199000
20.777700 6.058100
20.800000 5.624500
20.822300 5.494000
20.844600 5.384800
20.866900 5.294200
20.889200 5.222100
20.911400 5.168400
20.933700 5.147400
20.956000 5.203100
20.978300 5.230800
21.000600 5.238400
21.022900 5.282500
21.045200 6.196000
21.067400 7.076200
21.089700 6.885600
21.112000 7.191100
21.134300 7.773200
21.156600 8.652200
21.178900 8.637500
21.201100 8.715400
21.223400 9.119200
21.245700 9.438800
21.268000 10.252300
21.290300 11.020500
21.312600 10.691200
21.334800 8.622200
21.357100 6.321700
21.379400 5.661200
21.401700 5.377400
21.424000 5.417500
21.446300 5.641300
21.468600 6.056900
21.490800 6.467700
21.513100 7.400700
21.535400 8.067600
21.557700 7.168900
21.580000 5.992300
21.602300 5.338200
21.624500 5.147900
21.646800 5.043400
21.669100 4.946700
21.691400 4.839600
21.713700 4.844100
21.736000 4.804900
21.758300 4.587100
21.780500 4.289000
21.802800 4.422900
21.825100 4.596100
21.847400 4.776300
21.869700 4.961400
21.892000 5.157100
21.914200 5.363300
21.936500 5.697600
21.958800 6.461100
21.981100 6.948700
22.003400 7.277400
22.025700 7.447000
22.048000 7.448400
22.070200 8.072100
22.092500 7.991600
22.114800 8.068200
22.137100 8.284000
22.159400 7.815200
22.181700 7.124400
22.203900 6.321600
22.226200 5.541100
22.248500 4.791700
22.270800 4.153600
22.293100 3.345200
22.315400 2.752900
22.337700 2.450700
22.359900 4.431800
22.382200 6.239500
22.404500 8.345400
22.426800 10.484700
22.449100 10.304600
22.471400 8.135000
22.493600 7.179100
22.515900 6.715700
22.538200 6.097700
22.560500 5.304000
22.582800 4.572800
22.605100 6.804600
22.627300 6.985100
22.649600 6.940700
22.671900 7.425400
22.694200 7.455400
22.716500 7.102600
22.738800 6.951500
22.761100 6.713500
22.783300 6.388700
22.805600 6.041800
22.827900 5.961500
22.850200 5.761900
22.872500 5.481300
22.894800 5.101100
22.917000 4.633700
22.939300 4.178400
22.961600 4.688500
22.983900 6.015700
23.006200 6.204900
23.028500 6.342200
23.050800 6.423400
23.073000 6.438800
23.095300 6.314000
23.117600 6.243100
23.139900 6.244800
23.162200 6.501000
23.184500 6.961600
23.206700 7.040700
23.229000 7.079500
23.251300 7.138200
23.273600 7.218600
23.295900 7.289100
23.318200 7.221100
23.340500 6.954900
23.362700 6.726500
23.385000 6.376800
23.407300 6.116800
23.429600 5.848100
23.451900 5.619800
23.474200 5.563000
23.496400 7.890100
23.518700 6.836700
23.541000 4.911900
23.563300 4.543500
23.585600 4.251300
23.607900 3.922400
23.630100 3.550600
23.652400 3.223000
23.674700 3.076000
23.697000 3.043000
23.719300 3.066900
23.741600 3.855300
23.763900 5.328800
23.786100 6.159400
23.808400 7.339400
23.830700 8.257700
23.853000 11.267500
23.875300 13.390500
23.897600 12.862900
23.919800 10.571600
23.942100 8.102200
23.964400 6.990300
23.986700 5.807700
24.009000 4.820200
24.031300 4.031700
24.053600 3.461500
24.075800 3.130600
24.098100 2.975900
24.120400 3.169000
24.142700 3.695200
24.165000 4.296100
24.187300 5.193500
24.209500 7.073600
24.231800 8.105600
24.254100 8.682800
24.276400 8.994000
24.298700 8.903900
24.321000 8.510600
24.343300 7.823300
24.365500 6.828800
24.387800 5.530200
24.410100 4.531700
24.432400 3.696900
24.454700 3.259800
24.477000 3.039100
24.499200 3.003400
24.521500 3.152800
24.543800 3.426000
24.566100 3.771700
24.588400 4.048400
24.610700 4.545800
24.633000 5.038900
24.655200 5.503300
24.677500 5.766700
24.699800 7.555200
24.722100 6.182500
24.744400 4.318600
24.766700 3.738900
24.788900 3.542200
24.811200 3.624200
24.833500 3.741100
24.855800 3.974300
24.878100 4.262300
24.900400 5.407100
24.922600 6.511300
24.944900 7.250600
24.967200 7.681300
24.989500 9.201600
25.011800 9.082400
25.034100 7.764000
25.056400 6.215700
25.078600 5.281400
25.100900 5.265000
25.123200 6.837300
25.145500 5.434900
25.167800 5.334700
25.190100 5.436600
25.212300 5.420500
25.234600 5.385300
25.256900 5.259700
25.279200 5.043700
25.301500 4.737400
25.323800 5.046400
25.346100 4.661600
25.368300 4.304200
25.390600 4.019800
25.412900 3.812100
25.435200 3.661300
25.457500 3.549300
25.479800 3.476700
25.502000 3.471600
25.524300 3.424100
25.546600 3.334200
25.568900 3.307800
25.591200 3.350300
25.613500 3.400400
25.635800 3.443200
25.658000 3.492800
25.680300 3.542400
25.702600 3.613200
25.724900 3.883000
25.747200 4.032100
25.769500 4.202700
25.791700 4.440800
25.814000 6.299800
25.836300 4.324200
25.858600 4.328700
25.880900 4.335800
25.903200 4.345400
25.925400 4.641200
25.947700 5.402500
25.970000 5.761300
25.992300 5.606100
26.014600 4.936800
26.036900 3.538800
26.059200 2.724000
26.081400 2.451900
26.103700 2.811300
26.126000 3.496900
26.148300 4.243600
26.170600 5.030700
26.192900 5.672300
26.215100 5.334200
26.237400 5.089800
26.259700 4.893500
26.282000 4.599800
26.304300 4.236100
26.326600 3.895000
26.348900 3.582800
26.371100 3.299400
26.393400 3.261400
26.415700 3.122900
26.438000 2.844200
26.460300 2.594600
26.482600 2.461100
26.504800 2.959800
26.527100 5.151400
26.549400 7.982000
26.571700 6.650700
26.594000 5.089500
26.616300 4.352700
26.638600 4.028500
26.660800 3.837800
26.683100 3.599500
26.705400 3.313600
26.727700 2.988000
26.750000 2.693000
26.772300 2.487500
26.794500 2.422500
26.816800 2.411200
26.839100 2.398400
26.861400 2.384000
26.883700 2.368000
26.906000 2.350400
26.928300 2.331200
26.950500 2.310500
26.972800 2.288100
26.995100 2.264500
27.017400 2.244400
27.039700 2.231400
27.062000 2.231000
27.084200 2.245300
27.106500 2.277500
27.128800 2.352300
27.151100 2.459500
27.173400 2.583100
27.195700 2.707400
27.217900 2.830100
27.240200 2.951400
27.262500 3.071000
27.284800 3.189100
27.307100 3.305700
27.329400 3.434000
27.351700 3.554600
27.373900 3.747200
27.396200 4.215900
27.418500 4.632200
27.440800 5.001400
27.463100 5.362400
27.485400 5.535200
27.507600 4.919000
27.529900 4.909100
27.552200 4.912100
27.574500 5.049300
27.596800 5.285300
27.619100 5.513000
27.641400 5.667200
27.663600 5.706500
27.685900 5.858800
27.708200 6.606800
27.730500 6.727900
27.752800 5.313000
27.775100 4.607100
27.797300 4.312000
27.819600 4.565600
27.841900 5.321500
27.864200 5.995900
27.886500 6.690700
27.908800 7.456700
27.931100 7.853300
27.953300 7.778800
27.975600 7.223700
27.997900 6.437600
28.020200 5.631800
28.042500 4.798000
28.064800 3.926100
28.087000 3.470500
28.109300 3.290700
28.131600 3.214500
28.153900 3.223700
28.176200 3.274600
28.198500 3.342500
28.220700 3.439300
28.243000 3.544800
28.265300 3.713900
28.287600 3.945600
28.309900 4.217700
28.332200 4.530200
28.354500 4.883100
28.376700 6.692400
28.399000 6.591500
28.421300 6.770900
28.443600 7.009700
28.465900 7.207000
28.488200 7.414400
28.510400 7.582600
28.532700 7.714500
28.555000 7.707500
28.577300 7.537900
28.599600 7.670700
28.621900 7.854000
28.644200 7.636400
28.666400 7.218100
28.688700 7.067500
28.711000 7.132200
28.733300 7.326200
28.755600 7.564400
28.777900 7.839000
28.800100 8.065200
28.822400 8.264100
28.844700 7.900800
28.867000 7.300300
28.889300 6.688400
28.911600 6.065300
28.933900 5.551200
28.956100 5.511300
28.978400 5.835200
29.000700 7.342500
29.023000 8.393900
29.045300 7.976700
29.067600 7.512900
29.089800 7.078300
29.112100 6.670700
29.134400 6.258400
29.156700 5.947400
29.179000 5.716400
29.201300 5.500900
29.223600 5.302900
29.245800 5.195600
29.268100 5.063700
29.290400 4.907200
29.312700 4.730400
29.335000 4.617200
29.357300 4.534300
29.379500 4.375900
29.401800 4.275100
29.424100 4.214600
29.446400 4.218600
29.468700 4.221100
29.491000 4.188900
29.513200 4.121700
29.535500 4.031900
29.557800 4.050300
29.580100 4.145200
29.602400 4.345400
29.624700 4.994200
29.647000 5.633400
29.669200 6.224000
29.691500 10.222400
29.713800 11.546000
29.736100 8.446100
29.758400 7.350400
29.780700 6.811800
29.802900 6.354100
29.825200 6.058000
29.847500 5.575400
29.869800 5.120800
29.892100 4.696600
29.914400 4.302800
29.936700 3.954700
29.958900 3.810100
29.981200 3.772600
30.003500 3.796100
30.025800 3.813900
30.048100 3.825500
30.070400 3.834100
30.092600 3.859300
30.114900 4.038600
30.137200 4.170900
30.159500 4.262300
30.181800 4.183300
30.204100 3.678100
30.226400 3.435600
30.248600 3.291500
30.270900 3.166900
30.293200 3.066800
30.315500 2.980600
30.337800 2.907200
30.360100 2.846800
30.382300 2.799200
30.404600 2.908700
30.426900 2.984300
30.449200 3.015100
30.471500 3.069700
30.493800 3.121600
30.516100 3.302300
30.538300 3.392800
30.560600 3.293000
30.582900 3.002900
30.605200 2.602800
30.627500 2.247500
30.649800 1.934100
30.672000 1.654800
30.694300 1.397000
30.716600 1.153900
30.738900 0.924700
30.761200 0.707400
30.783500 0.500500
30.805700 0.312900
30.828000 0.166600
30.850300 0.066400
30.872600 0.012100
30.894900 0.000100
30.917200 0.000000
30.939500 0.000000
30.961700 0.000000
30.984000 0.000000
31.006300 0.000000
31.028600 0.000000
31.050900 0.000000
31.073200 0.000000
31.095400 0.000000
31.117700 0.000000
31.140000 0.000000
31.162300 0.000000
31.184600 0.000000
31.206900 0.000000
31.229200 0.000000
31.251400 0.000000
31.273700 0.000000
31.296000 0.000000
31.318300 0.000000
31.340600 0.000000
31.362900 0.000000
31.385100 0.000000
31.407400 0.000000
31.429700 0.000000
31.452000 0.000000
31.474300 0.000000
31.496600 0.000000
31.518900 0.000000
31.541100 0.000000
31.563400 0.000000
31.585700 0.000000
31.608000 0.000000
31.630300 0.000000
31.652600 0.000000
31.674800 0.000000
31.697100 0.000000
31.719400 0.000000
31.741700 0.000000
31.764000 0.000000
31.786300 0.000000
31.808500 0.000000
31.830800 0.000000
31.853100 0.000000
31.875400 0.000000
31.897700 0.000000
31.920000 0.000000
31.942300 0.000000
31.964500 0.000000
31.986800 0.000000
32.009100 0.000000
32.031400 0.000000
32.053700 0.000000
32.076000 0.000000
32.098200 0.000000
32.120500 0.000000
32.142800 0.000000
32.165100 0.000000
32.187400 0.000000
32.209700 0.000000
32.232000 0.000000
32.254200 0.000000
32.276500 0.000000
32.298800 0.000000
32.321100 0.000000
32.343400 0.000000
32.365700 0.000000
32.387900 0.000000
32.410200 0.000000
32.432500 0.000000
32.454800 0.000000
32.477100 0.000000
32.499400 0.000000
32.521700 0.000000
32.543900 0.000000
32.566200 0.000000
32.588500 0.000000
32.610800 0.000000
32.633100 0.000000
32.655400 0.000000
32.677600 0.000000
32.699900 0.000000
32.722200 0.000000
32.744500 0.000000
32.766800 0.000000
32.789100 0.000000
32.811400 0.000000
32.833600 0.000000
32.855900 0.000000
32.878200 0.000000
32.900500 0.000000
32.922800 0.000000
e
