set title 'mp-1077889 - Density of States'
set xlabel 'Energy (eV)'
set ylabel 'DOS (states/eV)'
set grid
set xrange [-10:10]
set yrange [0:8.558]
set xzeroaxis lt -1
set terminal png size 800,600
set output 'mp-1077889_dos_gnuplot.png'
plot '-' using 1:2 with lines title 'DOS'
-12.904400 0.000000
-12.879800 0.000000
-12.855300 0.000000
-12.830700 0.000000
-12.806100 0.000000
-12.781600 0.000000
-12.757000 0.000000
-12.732400 0.000000
-12.707900 0.000000
-12.683300 0.000000
-12.658800 0.000000
-12.634200 0.000000
-12.609600 0.000000
-12.585100 0.000000
-12.560500 0.000000
-12.535900 0.000000
-12.511400 0.000000
-12.486800 0.000000
-12.462200 0.000000
-12.437700 0.000000
-12.413100 0.000000
-12.388500 0.000000
-12.364000 0.000000
-12.339400 0.000000
-12.314800 0.000000
-12.290300 0.000000
-12.265700 0.000000
-12.241100 0.000000
-12.216600 0.000000
-12.192000 0.000000
-12.167500 0.000000
-12.142900 0.000000
-12.118300 0.000000
-12.093800 0.000000
-12.069200 0.000000
-12.044600 0.000000
-12.020100 0.000000
-11.995500 0.000000
-11.970900 0.000000
-11.946400 0.000000
-11.921800 0.000000
-11.897200 0.000000
-11.872700 0.000000
-11.848100 0.000000
-11.823500 0.000000
-11.799000 0.000000
-11.774400 0.000000
-11.749900 0.000000
-11.725300 0.000000
-11.700700 0.000000
-11.676200 0.000000
-11.651600 0.000000
-11.627000 0.000000
-11.602500 0.000000
-11.577900 0.000000
-11.553300 0.000000
-11.528800 0.000000
-11.504200 0.000000
-11.479600 0.000000
-11.455100 0.000000
-11.430500 0.000000
-11.405900 0.000000
-11.381400 0.000000
-11.356800 0.000000
-11.332200 0.000000
-11.307700 0.000000
-11.283100 0.000000
-11.258600 0.000000
-11.234000 0.000000
-11.209400 0.000000
-11.184900 0.000000
-11.160300 0.000000
-11.135700 0.000000
-11.111200 0.000000
-11.086600 0.000000
-11.062000 0.000000
-11.037500 0.000000
-11.012900 0.000000
-10.988300 0.000000
-10.963800 0.000000
-10.939200 0.000000
-10.914600 0.000000
-10.890100 0.000000
-10.865500 0.000000
-10.841000 0.000000
-10.816400 0.000000
-10.791800 0.000000
-10.767300 0.000000
-10.742700 0.000000
-10.718100 0.000000
-10.693600 0.000000
-10.669000 0.005600
-10.644400 0.318500
-10.619900 0.617700
-10.595300 0.592300
-10.570700 0.514400
-10.546200 0.541700
-10.521600 0.569000
-10.497000 0.533200
-10.472500 0.551200
-10.447900 0.570900
-10.423300 0.590600
-10.398800 0.585900
-10.374200 0.575400
-10.349700 0.585700
-10.325100 0.581800
-10.300500 0.577700
-10.276000 0.581700
-10.251400 0.588000
-10.226800 0.598600
-10.202300 0.609300
-10.177700 0.619900
-10.153100 0.630500
-10.128600 0.641100
-10.104000 0.634100
-10.079400 0.632900
-10.054900 0.634400
-10.030300 0.639500
-10.005700 0.646800
-9.981200 0.654100
-9.956600 0.661400
-9.932100 0.668700
-9.907500 0.676000
-9.882900 0.684100
-9.858400 0.692600
-9.833800 0.705700
-9.809200 0.716500
-9.784700 0.727300
-9.760100 0.738000
-9.735500 0.745700
-9.711000 0.753000
-9.686400 0.762300
-9.661800 0.771700
-9.637300 0.781000
-9.612700 0.790700
-9.588100 0.800800
-9.563600 0.838600
-9.539000 0.861700
-9.514400 0.884900
-9.489900 0.908400
-9.465300 0.931500
-9.440800 0.953800
-9.416200 0.976100
-9.391600 0.998500
-9.367100 1.020800
-9.342500 1.246700
-9.317900 1.477300
-9.293400 1.257800
-9.268800 1.075500
-9.244200 1.074100
-9.219700 1.067700
-9.195100 1.061300
-9.170500 0.954200
-9.146000 0.958500
-9.121400 0.962800
-9.096800 0.967100
-9.072300 0.970500
-9.047700 0.955600
-9.023200 0.938200
-8.998600 0.921800
-8.974000 0.928700
-8.949500 0.935700
-8.924900 0.966800
-8.900300 0.991600
-8.875800 1.014700
-8.851200 1.035600
-8.826600 1.056300
-8.802100 1.069200
-8.777500 1.097700
-8.752900 1.127900
-8.728400 1.161500
-8.703800 1.199500
-8.679200 1.248000
-8.654700 1.296500
-8.630100 1.369800
-8.605600 1.806100
-8.581000 2.361300
-8.556400 2.789600
-8.531900 1.902900
-8.507300 1.827000
-8.482700 3.026800
-8.458200 0.000000
-8.433600 0.000000
-8.409000 0.000000
-8.384500 0.000000
-8.359900 0.000000
-8.335300 0.000000
-8.310800 0.000000
-8.286200 0.000000
-8.261600 0.000000
-8.237100 0.000000
-8.212500 0.000000
-8.187900 0.000000
-8.163400 0.000000
-8.138800 0.000000
-8.114300 0.000000
-8.089700 0.000000
-8.065100 0.000000
-8.040600 0.000000
-8.016000 0.000000
-7.991400 0.000000
-7.966900 0.000000
-7.942300 0.000000
-7.917700 0.000000
-7.893200 0.000000
-7.868600 0.000000
-7.844000 0.000000
-7.819500 0.000000
-7.794900 0.000000
-7.770300 0.000000
-7.745800 0.000000
-7.721200 0.000000
-7.696700 0.000000
-7.672100 0.000000
-7.647500 0.000000
-7.623000 0.000000
-7.598400 0.000000
-7.573800 0.000000
-7.549300 0.000000
-7.524700 0.000000
-7.500100 0.000000
-7.475600 0.000000
-7.451000 0.000000
-7.426400 0.000000
-7.401900 0.000000
-7.377300 0.000000
-7.352700 0.000000
-7.328200 0.000000
-7.303600 0.000000
-7.279000 0.000000
-7.254500 0.000000
-7.229900 0.000000
-7.205400 0.000000
-7.180800 0.000000
-7.156200 0.000000
-7.131700 0.000000
-7.107100 0.039800
-7.082500 0.113900
-7.058000 0.198100
-7.033400 0.263400
-7.008800 0.316700
-6.984300 0.374100
-6.959700 0.405700
-6.935100 0.396900
-6.910600 0.383900
-6.886000 0.389300
-6.861400 0.395800
-6.836900 0.402800
-6.812300 0.408100
-6.787800 0.408500
-6.763200 0.409900
-6.738600 0.412800
-6.714100 0.416200
-6.689500 0.419200
-6.664900 0.420000
-6.640400 0.420600
-6.615800 0.423000
-6.591200 0.429900
-6.566700 0.739800
-6.542100 0.713400
-6.517500 0.712000
-6.493000 0.728500
-6.468400 0.746400
-6.443800 0.765300
-6.419300 0.780400
-6.394700 0.777700
-6.370100 0.778000
-6.345600 0.789200
-6.321000 0.802100
-6.296500 0.814500
-6.271900 0.825500
-6.247300 0.824600
-6.222800 0.838000
-6.198200 0.853700
-6.173600 0.872500
-6.149100 0.897000
-6.124500 0.937100
-6.099900 0.999600
-6.075400 1.064000
-6.050800 1.082200
-6.026200 1.060100
-6.001700 0.982200
-5.977100 0.927700
-5.952500 0.917000
-5.928000 0.908100
-5.903400 0.906800
-5.878900 0.907800
-5.854300 0.913000
-5.829700 0.860100
-5.805200 1.016400
-5.780600 1.165900
-5.756000 1.309600
-5.731500 1.271200
-5.706900 1.253200
-5.682300 1.294300
-5.657800 1.337700
-5.633200 1.391100
-5.608600 1.487300
-5.584100 1.589800
-5.559500 2.124900
-5.534900 2.277700
-5.510400 2.373900
-5.485800 2.515800
-5.461200 2.644700
-5.436700 2.787100
-5.412100 3.053700
-5.387600 3.159300
-5.363000 2.992500
-5.338400 3.035600
-5.313900 3.031100
-5.289300 3.112300
-5.264700 3.286500
-5.240200 3.476500
-5.215600 3.664200
-5.191000 3.896100
-5.166500 4.204200
-5.141900 4.738100
-5.117300 4.076800
-5.092800 3.316500
-5.068200 3.053900
-5.043600 2.838500
-5.019100 2.610900
-4.994500 2.551800
-4.970000 2.536200
-4.945400 2.619600
-4.920800 2.734000
-4.896300 2.790100
-4.871700 3.039700
-4.847100 2.948800
-4.822600 2.478700
-4.798000 2.237400
-4.773400 2.549000
-4.748900 3.586300
-4.724300 3.850000
-4.699700 3.554400
-4.675200 4.196000
-4.650600 1.588900
-4.626000 2.681800
-4.601500 3.214300
-4.576900 3.325600
-4.552300 2.752100
-4.527800 2.611200
-4.503200 2.580300
-4.478700 2.660200
-4.454100 2.421900
-4.429500 1.621600
-4.405000 1.445100
-4.380400 1.178600
-4.355800 1.116200
-4.331300 1.065000
-4.306700 1.027000
-4.282100 1.077400
-4.257600 1.090900
-4.233000 1.102200
-4.208400 1.113900
-4.183900 1.129500
-4.159300 1.151500
-4.134700 1.402700
-4.110200 1.761400
-4.085600 1.728600
-4.061100 1.144100
-4.036500 1.117900
-4.011900 1.094000
-3.987400 1.070700
-3.962800 1.047300
-3.938200 1.021700
-3.913700 0.995700
-3.889100 0.969400
-3.864500 0.933300
-3.840000 0.893700
-3.815400 0.883900
-3.790800 0.874300
-3.766300 0.863000
-3.741700 0.851700
-3.717100 0.840300
-3.692600 0.829000
-3.668000 0.817800
-3.643400 0.811100
-3.618900 0.803900
-3.594300 0.789400
-3.569800 0.773300
-3.545200 0.768900
-3.520600 0.764500
-3.496100 0.790700
-3.471500 0.782000
-3.446900 0.773200
-3.422400 0.764300
-3.397800 0.755500
-3.373200 0.746600
-3.348700 0.721500
-3.324100 0.687500
-3.299500 0.654200
-3.275000 0.633100
-3.250400 0.620000
-3.225800 0.606900
-3.201300 0.593800
-3.176700 0.580700
-3.152200 0.567600
-3.127600 0.554500
-3.103000 0.492200
-3.078500 0.480200
-3.053900 0.469600
-3.029300 0.459100
-3.004800 0.448600
-2.980200 0.438100
-2.955600 0.429800
-2.931100 0.424500
-2.906500 0.420800
-2.881900 0.417200
-2.857400 0.413600
-2.832800 0.409900
-2.808200 0.406300
-2.783700 0.609200
-2.759100 0.541600
-2.734600 0.482300
-2.710000 0.422900
-2.685400 0.363600
-2.660900 0.319600
-2.636300 0.267600
-2.611700 0.204600
-2.587200 0.141500
-2.562600 0.078400
-2.538000 0.015400
-2.513500 0.000000
-2.488900 0.000000
-2.464300 0.004400
-2.439800 0.026300
-2.415200 0.048300
-2.390600 0.070200
-2.366100 0.092200
-2.341500 0.859400
-2.316900 0.637100
-2.292400 0.708300
-2.267800 0.779600
-2.243300 0.896900
-2.218700 0.830600
-2.194100 0.836200
-2.169600 0.909600
-2.145000 0.981700
-2.120400 1.328600
-2.095900 1.693700
-2.071300 2.019100
-2.046700 2.227800
-2.022200 2.483200
-1.997600 2.526400
-1.973000 3.492900
-1.948500 2.471600
-1.923900 2.388000
-1.899300 2.390800
-1.874800 2.399200
-1.850200 2.498400
-1.825700 2.687700
-1.801100 2.706400
-1.776500 2.807100
-1.752000 2.902200
-1.727400 2.901200
-1.702800 2.866800
-1.678300 2.915600
-1.653700 3.146600
-1.629100 3.497100
-1.604600 4.111300
-1.580000 4.361700
-1.555400 4.354000
-1.530900 5.338700
-1.506300 4.211400
-1.481700 2.567300
-1.457200 2.256100
-1.432600 2.048500
-1.408000 1.914400
-1.383500 1.957300
-1.358900 2.005300
-1.334400 2.013500
-1.309800 1.974200
-1.285200 1.890100
-1.260700 1.786000
-1.236100 1.703000
-1.211500 1.767500
-1.187000 1.842000
-1.162400 2.022100
-1.137800 2.475900
-1.113300 3.362600
-1.088700 3.761500
-1.064100 4.039900
-1.039600 4.250600
-1.015000 3.889100
-0.990400 3.914500
-0.965900 3.969600
-0.941300 3.773400
-0.916800 3.544300
-0.892200 3.326900
-0.867600 2.889800
-0.843100 2.477700
-0.818500 2.200300
-0.793900 1.470000
-0.769400 0.609400
-0.744800 0.239000
-0.720200 0.373400
-0.695700 0.564900
-0.671100 0.724200
-0.646500 0.868700
-0.622000 1.027100
-0.597400 1.700100
-0.572800 1.454900
-0.548300 1.137600
-0.523700 1.121600
-0.499100 1.111200
-0.474600 1.113500
-0.450000 1.123500
-0.425500 1.164100
-0.400900 1.293300
-0.376300 1.437600
-0.351800 1.624600
-0.327200 1.956100
-0.302600 2.692600
-0.278100 3.656300
-0.253500 4.872500
-0.228900 3.100400
-0.204400 1.845700
-0.179800 1.468500
-0.155200 1.299800
-0.130700 1.304000
-0.106100 1.325300
-0.081500 1.343900
-0.057000 1.388100
-0.032400 1.731100
-0.007900 2.344900
0.016700 2.937700
0.041300 3.324200
0.065800 3.513200
0.090400 3.652000
0.115000 3.775100
0.139500 4.267500
0.164100 5.151500
0.188700 5.646100
0.213200 5.730700
0.237800 6.053300
0.262400 6.843900
0.286900 6.579100
0.311500 5.637500
0.336100 5.000300
0.360600 3.904700
0.385200 3.192900
0.409800 2.469600
0.434300 2.651500
0.458900 2.885800
0.483400 3.142700
0.508000 3.606100
0.532600 4.104100
0.557100 4.374300
0.581700 4.577900
0.606300 4.419700
0.630800 4.251900
0.655400 4.156900
0.680000 4.222900
0.704500 4.264400
0.729100 4.902000
0.753700 5.858300
0.778200 5.376900
0.802800 4.265400
0.827400 3.813400
0.851900 2.923400
0.876500 2.611600
0.901000 2.808000
0.925600 4.079300
0.950200 2.326200
0.974700 2.419200
0.999300 2.194700
1.023900 2.166200
1.048400 2.113000
1.073000 2.128500
1.097600 2.152900
1.122100 2.200100
1.146700 2.117800
1.171300 2.023800
1.195800 1.860100
1.220400 1.982000
1.245000 2.410400
1.269500 2.714300
1.294100 3.080700
1.318700 3.515900
1.343200 3.831000
1.367800 3.965800
1.392300 4.093400
1.416900 4.037200
1.441500 4.225700
1.466000 4.176700
1.490600 4.283400
1.515200 4.765300
1.539700 5.237900
1.564300 5.533900
1.588900 5.387100
1.613400 5.540900
1.638000 5.106500
1.662600 4.985000
1.687100 4.558200
1.711700 4.113900
1.736300 4.122300
1.760800 3.897000
1.785400 3.904100
1.809900 4.566600
1.834500 4.915800
1.859100 5.657800
1.883600 6.394900
1.908200 6.353100
1.932800 5.838200
1.957300 5.401000
1.981900 4.229500
2.006500 3.628300
2.031000 3.398800
2.055600 3.315900
2.080200 3.218400
2.104700 3.305400
2.129300 3.372300
2.153900 3.346700
2.178400 3.077100
2.203000 2.901800
2.227600 3.912800
2.252100 4.320700
2.276700 3.611900
2.301200 4.086400
2.325800 4.281600
2.350400 4.775400
2.374900 5.344100
2.399500 6.268500
2.424100 4.357900
2.448600 3.792900
2.473200 3.509100
2.497800 3.437400
2.522300 3.483400
2.546900 4.030400
2.571500 4.679700
2.596000 5.120600
2.620600 5.262200
2.645200 5.751400
2.669700 7.780100
2.694300 6.058200
2.718800 5.541800
2.743400 5.693300
2.768000 6.040200
2.792500 5.850100
2.817100 5.833600
2.841700 5.561200
2.866200 4.048800
2.890800 4.242000
2.915400 5.249700
2.939900 4.798500
2.964500 4.240400
2.989100 4.698000
3.013600 5.456100
3.038200 5.999000
3.062800 5.483900
3.087300 5.513000
3.111900 5.592000
3.136400 5.569700
3.161000 5.002800
3.185600 4.512500
3.210100 4.449300
3.234700 4.945300
3.259300 5.078200
3.283800 5.463900
3.308400 4.965000
3.333000 4.473800
3.357500 3.993500
3.382100 3.390900
3.406700 2.663200
3.431200 2.445000
3.455800 2.773200
3.480400 3.189200
3.504900 3.423200
3.529500 3.295000
3.554100 3.206000
3.578600 3.161800
3.603200 2.572500
3.627700 2.427100
3.652300 2.260900
3.676900 2.339100
3.701400 2.339300
3.726000 2.588100
3.750600 2.833000
3.775100 3.060600
3.799700 3.954500
3.824300 3.409800
3.848800 3.298100
3.873400 3.168700
3.898000 2.368500
3.922500 2.216100
3.947100 2.112500
3.971700 1.991800
3.996200 2.013500
4.020800 2.113500
4.045300 2.386800
4.069900 2.655200
4.094500 2.675600
4.119000 2.710900
4.143600 2.806200
4.168200 3.184800
4.192700 3.009300
4.217300 2.835800
4.241900 2.749800
4.266400 2.591500
4.291000 2.499600
4.315600 2.520100
4.340100 2.596300
4.364700 2.589400
4.389300 2.450300
4.413800 2.537600
4.438400 2.639800
4.463000 2.675400
4.487500 2.467900
4.512100 2.510200
4.536600 2.582800
4.561200 2.666000
4.585800 2.676700
4.610300 2.670300
4.634900 2.801600
4.659500 2.657800
4.684000 2.632900
4.708600 2.698500
4.733200 2.811400
4.757700 2.833100
4.782300 2.729300
4.806900 2.645600
4.831400 2.580000
4.856000 2.517200
4.880600 2.364800
4.905100 2.264900
4.929700 2.267200
4.954200 2.325600
4.978800 2.462000
5.003400 2.652100
5.027900 2.789500
5.052500 2.743200
5.077100 2.784200
5.101600 2.732700
5.126200 2.596100
5.150800 2.709700
5.175300 2.664900
5.199900 2.708200
5.224500 2.778600
5.249000 2.894500
5.273600 2.946700
5.298200 3.308700
5.322700 3.063500
5.347300 2.480100
5.371900 2.262600
5.396400 2.022900
5.421000 1.640500
5.445500 1.466900
5.470100 1.454700
5.494700 1.442200
5.519200 1.433800
5.543800 1.443400
5.568400 1.488800
5.592900 1.417900
5.617500 1.383700
5.642100 1.367200
5.666600 1.369000
5.691200 1.459400
5.715800 1.728500
5.740300 1.779700
5.764900 1.835800
5.789500 1.726400
5.814000 1.430800
5.838600 1.203100
5.863100 1.082600
5.887700 1.004700
5.912300 0.954200
5.936800 0.919200
5.961400 0.882400
5.986000 0.892900
6.010500 1.106200
6.035100 1.329700
6.059700 1.310100
6.084200 1.314900
6.108800 1.371300
6.133400 1.317600
6.157900 1.270100
6.182500 1.247000
6.207100 1.270400
6.231600 1.327900
6.256200 1.408000
6.280800 1.412900
6.305300 1.374600
6.329900 1.346600
6.354400 1.361100
6.379000 1.357100
6.403600 1.356100
6.428100 1.398500
6.452700 1.431900
6.477300 1.427600
6.501800 1.442800
6.526400 1.467200
6.551000 1.463400
6.575500 1.480000
6.600100 1.511300
6.624700 1.690000
6.649200 1.752500
6.673800 1.922800
6.698400 2.113600
6.722900 2.209200
6.747500 2.297700
6.772000 2.287800
6.796600 2.375100
6.821200 2.541300
6.845700 2.992100
6.870300 3.108600
6.894900 3.331400
6.919400 3.865400
6.944000 3.229800
6.968600 2.820700
6.993100 2.783800
7.017700 2.728600
7.042300 2.635000
7.066800 2.523900
7.091400 2.417400
7.116000 2.325100
7.140500 2.268100
7.165100 2.192700
7.189700 2.134300
7.214200 2.085300
7.238800 2.110700
7.263300 2.199200
7.287900 2.309400
7.312500 2.460300
7.337000 2.666200
7.361600 2.762500
7.386200 2.840200
7.410700 2.936700
7.435300 3.061700
7.459900 3.282300
7.484400 3.381800
7.509000 3.452100
7.533600 3.514400
7.558100 3.450700
7.582700 3.372400
7.607300 3.384800
7.631800 3.121100
7.656400 2.865300
7.680900 2.627300
7.705500 2.440600
7.730100 2.350000
7.754600 2.310400
7.779200 2.159700
7.803800 2.097200
7.828300 2.104900
7.852900 2.165600
7.877500 2.412000
7.902000 2.589000
7.926600 2.619900
7.951200 2.687400
7.975700 2.743100
8.000300 2.794300
8.024900 2.890500
8.049400 3.022400
8.074000 3.148000
8.098600 3.237300
8.123100 3.384100
8.147700 3.546200
8.172200 3.647900
8.196800 3.880200
8.221400 4.279700
8.245900 3.993300
8.270500 3.825500
8.295100 3.846000
8.319600 4.018000
8.344200 3.842600
8.368800 3.696400
8.393300 3.611800
8.417900 3.561100
8.442500 3.480700
8.467000 3.368500
8.491600 3.126700
8.516200 2.944800
8.540700 2.872700
8.565300 2.883600
8.589800 3.002900
8.614400 3.142900
8.639000 3.171500
8.663500 3.188300
8.688100 3.156100
8.712700 2.977500
8.737200 2.859400
8.761800 2.705400
8.786400 2.873100
8.810900 2.818100
8.835500 2.658400
8.860100 2.259200
8.884600 2.457000
8.909200 2.617700
8.933800 2.741500
8.958300 2.681200
8.982900 2.599600
9.007400 2.543300
9.032000 2.592200
9.056600 2.508600
9.081100 2.484200
9.105700 2.455900
9.130300 2.455300
9.154800 2.495400
9.179400 2.616700
9.204000 2.769400
9.228500 3.025200
9.253100 3.955600
9.277700 3.303700
9.302200 3.227100
9.326800 3.059100
9.351400 2.119700
9.375900 2.055300
9.400500 2.045400
9.425100 2.070900
9.449600 2.088300
9.474200 1.934600
9.498700 1.962700
9.523300 2.195600
9.547900 3.404500
9.572400 3.984500
9.597000 4.329700
9.621600 4.008800
9.646100 3.101700
9.670700 2.596700
9.695300 2.442300
9.719800 2.581500
9.744400 2.824800
9.769000 3.057600
9.793500 3.083100
9.818100 3.371700
9.842700 3.937700
9.867200 4.351600
9.891800 4.264900
9.916300 4.174500
9.940900 4.056900
9.965500 3.715800
9.990000 3.381400
10.014600 3.099900
10.039200 3.378800
10.063700 3.850800
10.088300 3.393500
10.112900 2.744100
10.137400 1.996800
10.162000 1.810400
10.186600 1.723800
10.211100 1.644500
10.235700 1.571700
10.260300 1.522100
10.284800 1.474800
10.309400 1.427800
10.334000 1.374700
10.358500 1.321400
10.383100 1.257600
10.407600 1.184900
10.432200 1.123800
10.456800 1.078100
10.481300 1.041000
10.505900 1.018000
10.530500 1.061800
10.555000 1.148600
10.579600 1.267600
10.604200 1.433200
10.628700 1.564700
10.653300 1.667800
10.677900 1.750800
10.702400 1.828600
10.727000 1.902600
10.751600 1.976000
10.776100 2.063300
10.800700 2.156900
10.825200 2.266200
10.849800 2.255900
10.874400 2.285100
10.898900 2.310600
10.923500 2.207500
10.948100 2.076700
10.972600 1.918100
10.997200 1.780100
11.021800 1.687700
11.046300 1.699600
11.070900 1.768700
11.095500 2.038400
11.120000 2.351300
11.144600 2.506200
11.169200 2.640300
11.193700 2.562400
11.218300 2.411300
11.242900 2.293400
11.267400 2.264000
11.292000 2.300500
11.316500 2.347900
11.341100 2.433900
11.365700 2.505300
11.390200 3.518200
11.414800 2.463600
11.439400 2.099800
11.463900 1.737300
11.488500 1.629800
11.513100 1.562100
11.537600 1.464900
11.562200 1.390500
11.586800 1.299200
11.611300 1.209800
11.635900 1.148600
11.660500 1.092500
11.685000 1.001800
11.709600 0.957100
11.734100 0.928300
11.758700 0.895300
11.783300 0.863100
11.807800 0.838100
11.832400 0.818100
11.857000 0.803000
11.881500 0.790400
11.906100 0.778100
11.930700 0.774500
11.955200 0.777900
11.979800 0.788600
12.004400 0.810100
12.028900 0.848600
12.053500 0.873700
12.078100 0.898800
12.102600 0.916300
12.127200 0.917400
12.151800 0.912300
12.176300 0.908800
12.200900 0.896300
12.225400 0.903800
12.250000 0.933000
12.274600 0.995400
12.299100 1.063300
12.323700 1.164900
12.348300 1.254500
12.372800 1.390800
12.397400 1.642200
12.422000 1.889300
12.446500 2.217300
12.471100 2.581900
12.495700 2.991200
12.520200 2.602300
12.544800 2.089400
12.569400 1.463700
12.593900 1.474500
12.618500 1.532600
12.643000 1.622600
12.667600 1.721000
12.692200 1.700500
12.716700 1.721000
12.741300 1.644700
12.765900 1.605700
12.790400 1.590500
12.815000 1.586800
12.839600 1.595700
12.864100 1.609100
12.888700 1.621700
12.913300 1.646300
12.937800 1.703200
12.962400 2.233300
12.987000 2.104400
13.011500 1.962600
13.036100 1.447400
13.060700 1.276600
13.085200 1.248200
13.109800 1.221400
13.134300 1.225400
13.158900 1.239900
13.183500 1.246900
13.208000 1.235200
13.232600 1.214000
13.257200 1.199900
13.281700 1.253900
13.306300 1.438200
13.330900 1.162100
13.355400 0.825300
13.380000 0.401900
13.404600 0.428900
13.429100 0.456700
13.453700 0.485000
13.478300 0.514500
13.502800 0.547900
13.527400 0.584700
13.551900 0.626200
13.576500 0.671000
13.601100 0.725600
13.625600 0.790300
13.650200 0.856400
13.674800 0.931000
13.699300 1.030100
13.723900 1.175500
13.748500 1.259300
13.773000 1.348600
13.797600 1.397600
13.822200 1.459100
13.846700 1.584800
13.871300 1.731300
13.895900 1.633800
13.920400 1.449700
13.945000 1.350300
13.969600 1.113800
13.994100 1.091500
14.018700 1.080700
14.043200 1.068300
14.067800 1.050300
14.092400 1.022700
14.116900 1.017900
14.141500 1.009700
14.166100 0.983900
14.190600 0.957000
14.215200 0.952600
14.239800 0.958500
14.264300 0.966200
14.288900 0.974100
14.313500 0.981900
14.338000 0.991300
14.362600 1.001200
14.387200 1.010400
14.411700 1.017600
14.436300 1.025900
14.460800 1.036400
14.485400 1.045400
14.510000 1.073200
14.534500 1.091100
14.559100 1.116600
14.583700 1.139300
14.608200 1.158700
14.632800 1.174300
14.657400 1.186600
14.681900 1.200000
14.706500 1.221400
14.731100 1.242800
14.755600 1.284000
14.780200 1.337300
14.804800 1.369400
14.829300 1.399900
14.853900 1.422000
14.878400 1.433900
14.903000 1.455500
14.927600 1.478200
14.952100 1.489200
14.976700 1.426000
15.001300 1.325000
15.025800 1.194800
15.050400 1.137400
15.075000 1.100000
15.099500 1.068500
15.124100 1.038200
15.148700 1.012500
15.173200 1.019000
15.197800 0.959300
15.222400 0.932400
15.246900 0.916900
15.271500 0.892900
15.296100 0.870900
15.320600 0.852900
15.345200 0.843000
15.369700 0.893600
15.394300 0.941300
15.418900 0.979700
15.443400 1.039200
15.468000 1.104100
15.492600 1.168900
15.517100 1.211400
15.541700 1.191200
15.566300 1.108500
15.590800 1.076700
15.615400 1.116100
15.640000 1.292500
15.664500 1.397900
15.689100 1.437600
15.713700 1.484500
15.738200 1.567600
15.762800 1.615100
15.787300 1.605600
15.811900 1.594900
15.836500 1.599100
15.861000 1.665800
15.885600 1.656400
15.910200 1.663300
15.934700 1.673900
15.959300 1.658100
15.983900 1.602600
16.008400 1.562000
16.033000 1.530500
16.057600 1.499700
16.082100 1.471600
16.106700 1.455400
16.131300 1.508200
16.155800 1.501600
16.180400 1.478700
16.205000 1.446000
16.229500 1.404800
16.254100 1.363500
16.278600 1.308400
16.303200 1.267500
16.327800 1.237200
16.352300 1.207600
16.376900 1.181900
16.401500 1.162700
16.426000 1.149200
16.450600 1.145500
16.475200 1.142600
16.499700 1.138700
16.524300 1.136400
16.548900 1.140900
16.573400 1.150500
16.598000 1.173200
16.622600 1.221900
16.647100 1.263000
16.671700 1.315900
16.696200 1.354900
16.720800 1.374000
16.745400 1.389800
16.769900 1.409200
16.794500 1.431700
16.819100 1.438600
16.843600 1.440800
16.868200 1.436800
16.892800 1.429800
16.917300 1.412700
16.941900 1.399200
16.966500 1.399000
16.991000 1.399500
17.015600 1.402400
17.040200 1.410400
17.064700 1.451800
17.089300 1.675300
17.113900 1.670100
17.138400 1.674600
17.163000 1.698500
17.187500 1.743800
17.212100 1.824000
17.236700 1.881900
17.261200 1.886900
17.285800 1.835900
17.310400 1.898400
17.334900 2.178300
17.359500 2.277400
17.384100 2.356700
17.408600 2.418100
17.433200 2.243100
17.457800 2.171400
17.482300 2.123100
17.506900 2.116600
17.531500 2.117900
17.556000 2.102700
17.580600 2.099200
17.605100 2.113200
17.629700 2.113600
17.654300 2.129500
17.678800 2.167700
17.703400 2.215900
17.728000 2.274800
17.752500 2.389600
17.777100 2.361800
17.801700 2.703300
17.826200 2.672700
17.850800 2.686600
17.875400 2.730300
17.899900 2.733800
17.924500 2.722200
17.949100 2.779900
17.973600 2.851900
17.998200 2.878200
18.022800 2.765800
18.047300 2.678600
18.071900 2.592200
18.096400 2.559100
18.121000 2.422500
18.145600 2.458400
18.170100 2.525600
18.194700 2.624800
18.219300 2.742500
18.243800 2.831700
18.268400 2.897400
18.293000 2.928300
18.317500 2.931900
18.342100 3.044800
18.366700 3.309000
18.391200 3.005100
18.415800 2.924300
18.440400 2.909000
18.464900 3.081900
18.489500 3.035900
18.514000 3.099600
18.538600 3.182800
18.563200 3.410700
18.587700 3.477300
18.612300 3.552800
18.636900 3.574600
18.661400 3.489000
18.686000 3.671800
18.710600 3.073800
18.735100 2.797500
18.759700 2.658500
18.784300 2.605700
18.808800 2.603400
18.833400 2.606100
18.858000 2.660600
18.882500 3.092500
18.907100 3.126000
18.931700 3.175000
18.956200 3.335000
18.980800 3.477400
19.005300 3.594200
19.029900 3.501700
19.054500 3.547600
19.079000 3.232500
19.103600 3.127900
19.128200 3.140100
19.152700 3.051500
19.177300 2.932600
19.201900 3.013600
19.226400 2.994400
19.251000 2.978100
19.275600 2.738400
19.300100 2.594300
19.324700 2.481200
19.349300 2.411200
19.373800 2.346900
19.398400 2.317500
19.422900 2.309300
19.447500 2.180500
19.472100 2.033800
19.496600 1.997600
19.521200 2.008700
19.545800 2.039400
19.570300 2.110500
19.594900 2.139300
19.619500 2.127400
19.644000 2.145200
19.668600 2.157200
19.693200 2.157200
19.717700 2.167400
19.742300 2.292700
19.766900 2.404400
19.791400 2.475200
19.816000 2.510400
19.840600 2.508300
19.865100 2.518500
19.889700 2.554900
19.914200 2.606300
19.938800 2.520000
19.963400 2.505400
19.987900 2.416700
20.012500 2.336900
20.037100 2.360800
20.061600 2.365000
20.086200 2.232800
20.110800 2.155900
20.135300 2.117100
20.159900 2.055300
20.184500 2.055000
20.209000 2.032900
20.233600 1.999700
20.258200 2.058800
20.282700 2.169300
20.307300 2.244800
20.331800 2.321900
20.356400 2.458300
20.381000 2.692000
20.405500 2.993900
20.430100 3.288900
20.454700 3.676100
20.479200 3.649700
20.503800 3.851100
20.528400 4.228000
20.552900 4.386600
20.577500 4.465000
20.602100 3.974300
20.626600 3.480400
20.651200 3.209500
20.675800 3.003600
20.700300 2.820800
20.724900 2.658200
20.749400 2.564200
20.774000 2.572900
20.798600 2.736800
20.823100 2.718800
20.847700 2.629700
20.872300 2.733200
20.896800 2.491200
20.921400 2.268100
20.946000 2.134300
20.970500 2.077900
20.995100 2.073500
21.019700 2.071000
21.044200 1.958700
21.068800 1.909000
21.093400 1.893900
21.117900 1.870500
21.142500 1.834600
21.167100 1.797200
21.191600 1.818100
21.216200 1.910000
21.240700 2.007000
21.265300 2.117700
21.289900 2.187800
21.314400 2.579500
21.339000 2.604300
21.363600 2.543800
21.388100 2.540700
21.412700 2.503000
21.437300 2.520600
21.461800 2.516000
21.486400 2.490600
21.511000 2.515100
21.535500 2.693000
21.560100 2.788400
21.584700 2.843600
21.609200 2.857900
21.633800 2.907700
21.658300 2.986600
21.682900 3.087500
21.707500 3.183200
21.732000 3.142900
21.756600 3.085200
21.781200 3.079500
21.805700 2.926000
21.830300 2.665700
21.854900 2.451600
21.879400 2.299400
21.904000 2.172400
21.928600 2.073900
21.953100 1.996300
21.977700 1.918300
22.002300 1.853400
22.026800 1.835100
22.051400 2.036400
22.076000 2.016900
22.100500 2.013100
22.125100 2.076100
22.149600 2.136000
22.174200 2.154700
22.198800 2.130500
22.223300 2.135400
22.247900 2.162700
22.272500 2.229000
22.297000 2.396300
22.321600 2.692500
22.346200 3.123000
22.370700 3.228500
22.395300 3.197300
22.419900 3.223600
22.444400 3.278900
22.469000 3.269300
22.493600 3.160500
22.518100 3.159400
22.542700 3.157000
22.567200 3.154000
22.591800 2.983000
22.616400 2.753000
22.640900 2.544500
22.665500 2.439300
22.690100 2.398000
22.714600 2.264700
22.739200 2.146600
22.763800 2.041100
22.788300 1.958900
22.812900 1.931100
22.837500 1.824800
22.862000 1.707200
22.886600 1.654400
22.911200 1.619700
22.935700 1.599500
22.960300 1.618200
22.984900 1.706700
23.009400 1.836200
23.034000 2.058100
23.058500 2.213500
23.083100 2.378100
23.107700 2.438100
23.132200 2.450800
23.156800 2.482100
23.181400 2.508100
23.205900 2.423800
23.230500 2.429900
23.255100 2.351300
23.279600 2.377300
23.304200 2.525200
23.328800 2.769700
23.353300 2.685100
23.377900 2.797100
23.402500 3.006800
23.427000 3.137500
23.451600 3.176900
23.476100 3.159900
23.500700 3.082400
23.525300 2.904700
23.549800 2.847600
23.574400 2.795600
23.599000 2.738000
23.623500 2.684300
23.648100 2.670700
23.672700 2.684900
23.697200 2.669300
23.721800 2.709200
23.746400 2.787300
23.770900 2.904000
23.795500 3.045300
23.820100 3.267100
23.844600 3.215300
23.869200 3.203900
23.893800 3.313400
23.918300 3.392100
23.942900 3.333200
23.967400 3.351100
23.992000 3.353200
24.016600 3.359900
24.041100 3.186700
24.065700 3.078400
24.090300 2.985100
24.114800 2.906800
24.139400 2.896100
24.164000 2.925600
24.188500 3.019900
24.213100 3.286700
24.237700 3.348100
24.262200 3.383400
24.286800 3.492500
24.311400 3.616100
24.335900 3.610800
24.360500 3.612200
24.385000 3.561200
24.409600 3.467400
24.434200 3.309400
24.458700 3.229800
24.483300 3.041500
24.507900 2.746900
24.532400 2.618100
24.557000 2.599500
24.581600 2.562400
24.606100 2.547900
24.630700 2.557000
24.655300 2.493000
24.679800 2.518900
24.704400 2.539900
24.729000 2.511900
24.753500 2.463400
24.778100 2.427300
24.802700 2.430600
24.827200 2.467000
24.851800 2.529100
24.876300 2.606400
24.900900 2.729800
24.925500 2.935500
24.950000 3.263300
24.974600 3.457400
24.999200 4.062800
25.023700 4.051600
25.048300 3.984700
25.072900 3.981500
25.097400 4.119400
25.122000 4.147300
25.146600 4.094600
25.171100 4.058000
25.195700 3.906700
25.220300 3.788800
25.244800 3.838500
25.269400 3.388400
25.293900 3.225700
25.318500 3.210400
25.343100 3.344500
25.367600 3.457300
25.392200 3.171800
25.416800 3.179900
25.441300 3.371300
25.465900 3.506300
25.490500 3.506700
25.515000 3.437700
25.539600 3.460200
25.564200 3.514900
25.588700 3.521800
25.613300 3.457000
25.637900 3.372600
25.662400 3.236800
25.687000 3.112600
25.711600 2.976200
25.736100 2.940700
25.760700 2.941400
25.785200 2.949300
25.809800 3.038300
25.834400 3.091700
25.858900 3.210200
25.883500 3.366800
25.908100 3.423400
25.932600 3.483900
25.957200 3.266100
25.981800 3.168100
26.006300 3.097200
26.030900 3.016000
26.055500 3.000300
26.080000 2.959300
26.104600 2.919200
26.129200 3.124400
26.153700 3.245900
26.178300 3.406300
26.202800 3.585200
26.227400 3.636600
26.252000 3.543300
26.276500 3.596900
26.301100 3.673300
26.325700 3.613000
26.350200 3.679100
26.374800 3.492000
26.399400 3.325700
26.423900 3.201600
26.448500 3.095500
26.473100 3.020400
26.497600 2.955800
26.522200 2.906300
26.546800 2.856300
26.571300 2.723100
26.595900 2.579000
26.620400 2.558800
26.645000 2.514100
26.669600 2.467300
26.694100 2.471800
26.718700 2.496400
26.743300 2.731300
26.767800 2.607000
26.792400 2.558000
26.817000 2.518600
26.841500 2.499300
26.866100 2.475700
26.890700 2.440000
26.915200 2.334500
26.939800 2.235000
26.964400 2.203500
26.988900 2.159200
27.013500 2.100400
27.038100 2.079000
27.062600 2.097400
27.087200 2.122200
27.111700 2.185100
27.136300 2.272500
27.160900 2.389500
27.185400 2.544800
27.210000 2.684900
27.234600 2.734300
27.259100 2.654300
27.283700 2.557400
27.308300 2.445500
27.332800 2.378700
27.357400 2.336500
27.382000 2.373500
27.406500 2.495000
27.431100 2.559500
27.455700 2.611300
27.480200 2.711500
27.504800 2.774600
27.529300 2.770900
27.553900 2.787500
27.578500 2.882000
27.603000 3.087500
27.627600 3.164700
27.652200 3.191900
27.676700 3.010000
27.701300 2.997500
27.725900 2.907800
27.750400 2.861300
27.775000 2.843100
27.799600 2.826700
27.824100 2.825200
27.848700 2.844800
27.873300 2.902900
27.897800 2.910900
27.922400 2.910500
27.947000 3.007100
27.971500 3.192800
27.996100 2.847100
28.020600 2.870200
28.045200 2.898600
28.069800 2.848900
28.094300 2.771700
28.118900 2.692500
28.143500 2.498000
28.168000 2.404200
28.192600 2.327500
28.217200 2.227600
28.241700 2.061500
28.266300 1.934100
28.290900 1.870900
28.315400 1.850700
28.340000 1.922000
28.364600 2.000900
28.389100 2.107500
28.413700 2.399800
28.438200 2.532800
28.462800 2.629800
28.487400 2.797500
28.511900 3.035000
28.536500 3.707700
28.561100 3.741600
28.585600 3.489000
28.610200 3.526400
28.634800 3.540600
28.659300 3.390100
28.683900 3.335900
28.708500 3.206100
28.733000 3.165600
28.757600 3.143100
28.782200 3.058800
28.806700 2.987200
28.831300 2.992300
28.855900 2.964900
28.880400 2.923400
28.905000 2.877000
28.929500 2.860200
28.954100 2.847900
28.978700 2.851600
29.003200 2.823600
29.027800 2.822400
29.052400 2.759300
29.076900 2.648700
29.101500 2.506600
29.126100 2.414200
29.150600 2.321200
29.175200 2.248900
29.199800 2.183000
29.224300 2.156300
29.248900 2.076400
29.273500 2.008000
29.298000 1.958200
29.322600 1.920700
29.347100 1.921600
29.371700 1.897200
29.396300 1.883800
29.420800 1.866700
29.445400 1.848300
29.470000 1.857900
29.494500 1.883400
29.519100 1.928600
29.543700 1.926100
29.568200 1.903600
29.592800 1.819400
29.617400 1.723500
29.641900 1.639200
29.666500 1.592800
29.691100 1.596900
29.715600 1.647800
29.740200 1.663200
29.764800 1.665800
29.789300 1.661100
29.813900 1.669200
29.838400 1.700500
29.863000 1.781600
29.887600 1.827400
29.912100 1.881200
29.936700 1.951800
29.961300 2.032400
29.985800 2.161700
30.010400 2.273700
30.035000 2.353100
30.059500 2.393200
30.084100 2.475200
30.108700 2.526900
30.133200 2.576800
30.157800 2.693500
30.182400 2.697800
30.206900 2.708400
30.231500 2.633200
30.256000 2.553300
30.280600 2.511300
30.305200 2.525000
30.329700 2.604100
30.354300 2.511000
30.378900 2.402300
30.403400 2.387400
30.428000 2.333100
30.452600 2.323500
30.477100 2.394100
30.501700 2.466400
30.526300 2.552000
30.550800 2.660100
30.575400 2.604800
30.600000 2.691200
30.624500 2.794100
30.649100 2.856900
30.673700 2.926500
30.698200 3.022700
30.722800 2.972000
30.747300 2.776200
30.771900 2.526600
30.796500 2.316300
30.821000 2.175900
30.845600 2.069000
30.870200 2.078400
30.894700 2.104000
30.919300 2.033900
30.943900 2.040300
30.968400 2.081400
30.993000 2.140000
31.017600 2.226700
31.042100 2.329500
31.066700 2.395700
31.091300 2.390000
31.115800 2.474200
31.140400 2.585700
31.164900 2.802800
31.189500 2.941800
31.214100 3.247700
31.238600 3.426300
31.263200 3.425700
31.287800 3.383200
31.312300 3.212200
31.336900 3.073600
31.361500 2.981500
31.386000 2.935300
31.410600 2.792600
31.435200 2.665600
31.459700 2.603100
31.484300 2.505800
31.508900 2.391800
31.533400 2.250400
31.558000 2.207100
31.582600 2.214900
31.607100 2.252600
31.631700 2.240800
31.656200 2.218100
31.680800 2.186800
31.705400 2.248700
31.729900 2.379900
31.754500 2.565000
31.779100 2.737700
31.803600 2.821700
31.828200 2.905200
31.852800 2.847200
31.877300 2.844600
31.901900 2.868500
31.926500 2.887500
31.951000 2.852300
31.975600 2.691700
32.000200 2.591600
32.024700 2.541100
32.049300 2.479900
32.073800 2.390300
32.098400 2.309400
32.123000 2.234200
32.147500 2.192200
32.172100 2.185600
32.196700 2.151700
32.221200 2.094900
32.245800 2.036700
32.270400 1.992700
32.294900 1.959600
32.319500 1.954200
32.344100 1.873600
32.368600 1.788200
32.393200 1.705600
32.417800 1.639100
32.442300 1.569100
32.466900 1.496400
32.491400 1.377800
32.516000 1.264900
32.540600 1.161500
32.565100 0.997900
32.589700 0.905200
32.614300 0.790300
32.638800 0.705200
32.663400 0.673100
32.688000 0.675400
32.712500 0.675400
32.737100 0.663700
32.761700 0.651000
32.786200 0.633200
32.810800 0.614300
32.835400 0.595900
32.859900 0.584000
32.884500 0.587500
32.909100 0.596000
32.933600 0.622100
32.958200 0.656200
32.982700 0.693600
33.007300 0.690900
33.031900 0.654000
33.056400 0.631700
33.081000 0.611300
33.105600 0.583700
33.130100 0.566700
33.154700 0.579500
33.179300 0.433200
33.203800 0.405200
33.228400 0.389800
33.253000 0.375100
33.277500 0.363400
33.302100 0.356100
33.326700 0.359600
33.351200 0.362300
33.375800 0.339300
33.400300 0.305000
33.424900 0.259700
33.449500 0.201700
33.474000 0.137900
33.498600 0.102400
33.523200 0.080300
33.547700 0.067600
33.572300 0.056200
33.596900 0.045600
33.621400 0.036600
33.646000 0.029700
33.670600 0.024700
33.695100 0.021100
33.719700 0.017700
33.744300 0.014700
33.768800 0.011900
33.793400 0.009400
33.818000 0.007200
33.842500 0.005300
33.867100 0.003700
33.891600 0.002400
33.916200 0.001400
33.940800 0.000600
33.965300 0.000200
33.989900 0.000000
34.014500 0.000000
34.039000 0.000000
34.063600 0.000000
34.088200 0.000000
34.112700 0.000000
34.137300 0.000000
34.161900 0.000000
34.186400 0.000000
34.211000 0.000000
34.235600 0.000000
34.260100 0.000000
34.284700 0.000000
34.309200 0.000000
34.333800 0.000000
34.358400 0.000000
34.382900 0.000000
34.407500 0.000000
34.432100 0.000000
34.456600 0.000000
34.481200 0.000000
34.505800 0.000000
34.530300 0.000000
34.554900 0.000000
34.579500 0.000000
34.604000 0.000000
34.628600 0.000000
34.653200 0.000000
34.677700 0.000000
34.702300 0.000000
34.726900 0.000000
34.751400 0.000000
34.776000 0.000000
34.800500 0.000000
34.825100 0.000000
34.849700 0.000000
34.874200 0.000000
34.898800 0.000000
34.923400 0.000000
34.947900 0.000000
34.972500 0.000000
34.997100 0.000000
35.021600 0.000000
35.046200 0.000000
35.070800 0.000000
35.095300 0.000000
35.119900 0.000000
35.144500 0.000000
35.169000 0.000000
35.193600 0.000000
35.218100 0.000000
35.242700 0.000000
35.267300 0.000000
35.291800 0.000000
35.316400 0.000000
35.341000 0.000000
35.365500 0.000000
35.390100 0.000000
35.414700 0.000000
35.439200 0.000000
35.463800 0.000000
35.488400 0.000000
35.512900 0.000000
35.537500 0.000000
35.562100 0.000000
35.586600 0.000000
35.611200 0.000000
35.635800 0.000000
35.660300 0.000000
35.684900 0.000000
35.709400 0.000000
35.734000 0.000000
35.758600 0.000000
35.783100 0.000000
35.807700 0.000000
35.832300 0.000000
35.856800 0.000000
35.881400 0.000000
35.906000 0.000000
35.930500 0.000000
35.955100 0.000000
35.979700 0.000000
36.004200 0.000000
36.028800 0.000000
36.053400 0.000000
36.077900 0.000000
36.102500 0.000000
36.127000 0.000000
36.151600 0.000000
36.176200 0.000000
36.200700 0.000000
36.225300 0.000000
e
