set title 'mp-99 - Density of States'
set xlabel 'Energy (eV)'
set ylabel 'DOS (states/eV)'
set grid
set xrange [-10:10]
set yrange [0:2.696]
set xzeroaxis lt -1
set terminal png size 800,600
set output 'mp-99_dos_gnuplot.png'
plot '-' using 1:2 with lines title 'DOS'
-26.052100 0.000000
-26.007200 0.000000
-25.962300 0.000000
-25.917300 0.000000
-25.872400 0.000000
-25.827500 0.000000
-25.782500 0.000000
-25.737600 0.000000
-25.692700 0.000000
-25.647700 0.000000
-25.602800 0.000000
-25.557900 0.000000
-25.512900 0.000000
-25.468000 0.000000
-25.423000 0.000000
-25.378100 0.000000
-25.333200 0.000000
-25.288200 0.000000
-25.243300 0.000000
-25.198400 0.000000
-25.153400 0.000000
-25.108500 0.000000
-25.063600 0.000000
-25.018600 0.000000
-24.973700 0.000000
-24.928800 0.000000
-24.883800 0.000000
-24.838900 0.000000
-24.794000 0.000000
-24.749000 0.000000
-24.704100 0.000000
-24.659200 0.000000
-24.614200 0.000000
-24.569300 0.000000
-24.524400 0.000000
-24.479400 0.000000
-24.434500 0.000000
-24.389600 0.000000
-24.344600 0.000000
-24.299700 0.000000
-24.254800 0.000000
-24.209800 0.000000
-24.164900 0.000000
-24.119900 0.000000
-24.075000 0.000000
-24.030100 0.000000
-23.985100 0.000000
-23.940200 0.000000
-23.895300 0.000000
-23.850300 0.000000
-23.805400 0.000000
-23.760500 0.000000
-23.715500 0.000000
-23.670600 0.000000
-23.625700 0.000000
-23.580700 0.000000
-23.535800 0.000000
-23.490900 0.000000
-23.445900 0.000000
-23.401000 0.000000
-23.356100 0.000000
-23.311100 0.000000
-23.266200 0.000000
-23.221300 0.000000
-23.176300 0.000000
-23.131400 0.000000
-23.086500 0.000000
-23.041500 0.000000
-22.996600 0.000000
-22.951700 0.000000
-22.906700 0.000000
-22.861800 0.000000
-22.816800 0.000000
-22.771900 0.000000
-22.727000 0.000000
-22.682000 0.000000
-22.637100 0.000000
-22.592200 0.000000
-22.547200 0.000000
-22.502300 0.000000
-22.457400 0.000000
-22.412400 0.000000
-22.367500 0.000000
-22.322600 0.000000
-22.277600 0.000000
-22.232700 0.000000
-22.187800 0.000000
-22.142800 0.000000
-22.097900 0.000000
-22.053000 0.000000
-22.008000 0.000000
-21.963100 0.034200
-21.918200 0.759100
-21.873200 6.852600
-21.828300 15.186000
-21.783400 9.191700
-21.738400 7.498800
-21.693500 5.792000
-21.648600 6.872300
-21.603600 10.165900
-21.558700 12.871700
-21.513700 13.300900
-21.468800 19.175500
-21.423900 23.041900
-21.378900 7.035600
-21.334000 1.042800
-21.289100 0.000000
-21.244100 0.000000
-21.199200 0.000000
-21.154300 0.000000
-21.109300 0.000000
-21.064400 0.000000
-21.019500 0.000000
-20.974500 0.000000
-20.929600 0.000000
-20.884700 0.000000
-20.839700 0.000000
-20.794800 0.000000
-20.749900 0.000000
-20.704900 0.000000
-20.660000 0.000000
-20.615100 0.000000
-20.570100 0.000000
-20.525200 0.000000
-20.480300 0.000000
-20.435300 0.000000
-20.390400 0.000000
-20.345500 0.000000
-20.300500 0.000000
-20.255600 0.000000
-20.210700 0.000000
-20.165700 0.000000
-20.120800 0.000000
-20.075800 0.000000
-20.030900 0.000000
-19.986000 0.000000
-19.941000 0.000000
-19.896100 0.000000
-19.851200 0.000000
-19.806200 0.000000
-19.761300 0.000000
-19.716400 0.000000
-19.671400 0.000000
-19.626500 0.000000
-19.581600 0.000000
-19.536600 0.000000
-19.491700 0.000000
-19.446800 0.000000
-19.401800 0.000000
-19.356900 0.000000
-19.312000 0.000000
-19.267000 0.000000
-19.222100 0.000000
-19.177200 0.000000
-19.132200 0.000000
-19.087300 0.000000
-19.042400 0.000000
-18.997400 0.000000
-18.952500 0.000000
-18.907600 0.000000
-18.862600 0.000000
-18.817700 0.000000
-18.772700 0.000000
-18.727800 0.000000
-18.682900 0.000000
-18.637900 0.000000
-18.593000 0.000000
-18.548100 0.000000
-18.503100 0.000000
-18.458200 0.000000
-18.413300 0.000000
-18.368300 0.000000
-18.323400 0.000000
-18.278500 0.000000
-18.233500 0.000000
-18.188600 0.000000
-18.143700 0.000000
-18.098700 0.000000
-18.053800 0.000000
-18.008900 0.000000
-17.963900 0.000000
-17.919000 0.000000
-17.874100 0.000000
-17.829100 0.000000
-17.784200 0.000000
-17.739300 0.000000
-17.694300 0.000000
-17.649400 0.000000
-17.604500 0.000000
-17.559500 0.000000
-17.514600 0.000000
-17.469600 0.000000
-17.424700 0.000000
-17.379800 0.000000
-17.334800 0.000000
-17.289900 0.000000
-17.245000 0.000000
-17.200000 0.000000
-17.155100 0.000000
-17.110200 0.000000
-17.065200 0.000000
-17.020300 0.000000
-16.975400 0.000000
-16.930400 0.000000
-16.885500 0.000000
-16.840600 0.000000
-16.795600 0.000000
-16.750700 0.000000
-16.705800 0.000000
-16.660800 0.000000
-16.615900 0.000000
-16.571000 0.000000
-16.526000 0.000000
-16.481100 0.000000
-16.436200 0.000000
-16.391200 0.000000
-16.346300 0.000000
-16.301400 0.000000
-16.256400 0.000000
-16.211500 0.000000
-16.166500 0.000000
-16.121600 0.000000
-16.076700 0.000000
-16.031700 0.000000
-15.986800 0.000000
-15.941900 0.000000
-15.896900 0.000000
-15.852000 0.000000
-15.807100 0.000000
-15.762100 0.000000
-15.717200 0.000000
-15.672300 0.000000
-15.627300 0.000000
-15.582400 0.000000
-15.537500 0.000000
-15.492500 0.000000
-15.447600 0.000000
-15.402700 0.000000
-15.357700 0.000000
-15.312800 0.000000
-15.267900 0.000000
-15.222900 0.000000
-15.178000 0.000000
-15.133100 0.000000
-15.088100 0.000000
-15.043200 0.000000
-14.998300 0.000000
-14.953300 0.000000
-14.908400 0.000000
-14.863500 0.000000
-14.818500 0.000000
-14.773600 0.000000
-14.728600 0.000000
-14.683700 0.000000
-14.638800 0.000000
-14.593800 0.000000
-14.548900 0.000000
-14.504000 0.000000
-14.459000 0.000000
-14.414100 0.000000
-14.369200 0.000000
-14.324200 0.000000
-14.279300 0.000000
-14.234400 0.000000
-14.189400 0.000000
-14.144500 0.000000
-14.099600 0.000000
-14.054600 0.000000
-14.009700 0.000000
-13.964800 0.000000
-13.919800 0.000000
-13.874900 0.000000
-13.830000 0.000000
-13.785000 0.000000
-13.740100 0.000000
-13.695200 0.000000
-13.650200 0.000000
-13.605300 0.000000
-13.560400 0.000000
-13.515400 0.000000
-13.470500 0.000000
-13.425500 0.000000
-13.380600 0.000000
-13.335700 0.000000
-13.290700 0.000000
-13.245800 0.000000
-13.200900 0.000000
-13.155900 0.000000
-13.111000 0.000000
-13.066100 0.000000
-13.021100 0.000000
-12.976200 0.000000
-12.931300 0.000000
-12.886300 0.000000
-12.841400 0.000000
-12.796500 0.000000
-12.751500 0.000000
-12.706600 0.000000
-12.661700 0.000000
-12.616700 0.000000
-12.571800 0.000000
-12.526900 0.000000
-12.481900 0.000000
-12.437000 0.000000
-12.392100 0.000000
-12.347100 0.000000
-12.302200 0.000000
-12.257300 0.000000
-12.212300 0.000000
-12.167400 0.000000
-12.122400 0.000000
-12.077500 0.000000
-12.032600 0.000000
-11.987600 0.000000
-11.942700 0.000000
-11.897800 0.000000
-11.852800 0.000000
-11.807900 0.000000
-11.763000 0.000000
-11.718000 0.000000
-11.673100 0.000000
-11.628200 0.000000
-11.583200 0.000000
-11.538300 0.000000
-11.493400 0.000000
-11.448400 0.000000
-11.403500 0.000000
-11.358600 0.000000
-11.313600 0.000000
-11.268700 0.000000
-11.223800 0.000000
-11.178800 0.000000
-11.133900 0.000000
-11.089000 0.000000
-11.044000 0.000000
-10.999100 0.000000
-10.954200 0.000000
-10.909200 0.000000
-10.864300 0.000000
-10.819300 0.000000
-10.774400 0.000000
-10.729500 0.000000
-10.684500 0.000000
-10.639600 0.000000
-10.594700 0.000000
-10.549700 0.000000
-10.504800 0.000000
-10.459900 0.000000
-10.414900 0.000000
-10.370000 0.000000
-10.325100 0.000000
-10.280100 0.000000
-10.235200 0.000000
-10.190300 0.000000
-10.145300 0.000000
-10.100400 0.000000
-10.055500 0.000000
-10.010500 0.000000
-9.965600 0.000000
-9.920700 0.000000
-9.875700 0.000000
-9.830800 0.000000
-9.785900 0.000000
-9.740900 0.000000
-9.696000 0.000000
-9.651100 0.000000
-9.606100 0.000000
-9.561200 0.000000
-9.516300 0.000000
-9.471300 0.000000
-9.426400 0.000000
-9.381400 0.000000
-9.336500 0.000000
-9.291600 0.000000
-9.246600 0.000000
-9.201700 0.000000
-9.156800 0.000000
-9.111800 0.000000
-9.066900 0.000000
-9.022000 0.000000
-8.977000 0.000000
-8.932100 0.000000
-8.887200 0.000000
-8.842200 0.000000
-8.797300 0.000000
-8.752400 0.000000
-8.707400 0.000000
-8.662500 0.000000
-8.617600 0.000000
-8.572600 0.000000
-8.527700 0.000000
-8.482800 0.000000
-8.437800 0.000000
-8.392900 0.000000
-8.348000 0.000000
-8.303000 0.000000
-8.258100 0.000000
-8.213200 0.000000
-8.168200 0.000000
-8.123300 0.000000
-8.078300 0.000000
-8.033400 0.000000
-7.988500 0.000000
-7.943500 0.000000
-7.898600 0.000000
-7.853700 0.000000
-7.808700 0.000000
-7.763800 0.000000
-7.718900 0.000000
-7.673900 0.000000
-7.629000 0.000000
-7.584100 0.000000
-7.539100 0.000000
-7.494200 0.000000
-7.449300 0.000000
-7.404300 0.000000
-7.359400 0.000000
-7.314500 0.000000
-7.269500 0.000000
-7.224600 0.000000
-7.179700 0.000000
-7.134700 0.000000
-7.089800 0.000000
-7.044900 0.000000
-6.999900 0.000000
-6.955000 0.000000
-6.910100 0.000000
-6.865100 0.000000
-6.820200 0.000000
-6.775200 0.000000
-6.730300 0.000000
-6.685400 0.000000
-6.640400 0.000000
-6.595500 0.000000
-6.550600 0.000000
-6.505600 0.000000
-6.460700 0.000000
-6.415800 0.000000
-6.370800 0.000000
-6.325900 0.000000
-6.281000 0.000000
-6.236000 0.000000
-6.191100 0.000000
-6.146200 0.000000
-6.101200 0.000000
-6.056300 0.000000
-6.011400 0.000000
-5.966400 0.000000
-5.921500 0.000000
-5.876600 0.000000
-5.831600 0.000000
-5.786700 0.000000
-5.741800 0.000000
-5.696800 0.000000
-5.651900 0.000000
-5.607000 0.000000
-5.562000 0.000000
-5.517100 0.000000
-5.472100 0.000000
-5.427200 0.000000
-5.382300 0.000000
-5.337300 0.000000
-5.292400 0.000000
-5.247500 0.000000
-5.202500 0.000000
-5.157600 0.000000
-5.112700 0.000000
-5.067700 0.000000
-5.022800 0.000000
-4.977900 0.000000
-4.932900 0.000000
-4.888000 0.000000
-4.843100 0.000000
-4.798100 0.000000
-4.753200 0.000000
-4.708300 0.000000
-4.663300 0.000000
-4.618400 0.000000
-4.573500 0.000000
-4.528500 0.000000
-4.483600 0.000000
-4.438700 0.000000
-4.393700 0.000000
-4.348800 0.000000
-4.303900 0.000000
-4.258900 0.000000
-4.214000 0.000000
-4.169100 0.000000
-4.124100 0.000000
-4.079200 0.000000
-4.034200 0.000000
-3.989300 0.000000
-3.944400 0.000000
-3.899400 0.000000
-3.854500 0.000000
-3.809600 0.000000
-3.764600 0.000000
-3.719700 0.000000
-3.674800 0.000000
-3.629800 0.000000
-3.584900 0.000000
-3.540000 0.000000
-3.495000 0.000000
-3.450100 0.000000
-3.405200 0.000000
-3.360200 0.000000
-3.315300 0.000000
-3.270400 0.000000
-3.225400 0.000000
-3.180500 0.000000
-3.135600 0.000000
-3.090600 0.000000
-3.045700 0.000000
-3.000800 0.000000
-2.955800 0.000000
-2.910900 0.000000
-2.866000 0.000000
-2.821000 0.000000
-2.776100 0.000000
-2.731100 0.000000
-2.686200 0.000000
-2.641300 0.000000
-2.596300 0.000000
-2.551400 0.000000
-2.506500 0.000000
-2.461500 0.002400
-2.416600 0.014700
-2.371700 0.036000
-2.326700 0.043000
-2.281800 0.043900
-2.236900 0.050800
-2.191900 0.058200
-2.147000 0.066000
-2.102100 0.073300
-2.057100 0.077700
-2.012200 0.079700
-1.967300 0.083500
-1.922300 0.088100
-1.877400 0.092900
-1.832500 0.097700
-1.787500 0.102500
-1.742600 0.107600
-1.697700 0.113000
-1.652700 0.117300
-1.607800 0.120700
-1.562900 0.124500
-1.517900 0.128400
-1.473000 0.132300
-1.428000 0.136200
-1.383100 0.140300
-1.338200 0.144900
-1.293200 0.149600
-1.248300 0.154500
-1.203400 0.159500
-1.158400 0.164600
-1.113500 0.180400
-1.068600 0.195200
-1.023600 0.187700
-0.978700 0.190800
-0.933800 0.194000
-0.888800 0.197100
-0.843900 0.200200
-0.799000 0.201100
-0.754000 0.202300
-0.709100 0.204900
-0.664200 0.207800
-0.619200 0.210700
-0.574300 0.213700
-0.529400 0.223300
-0.484400 0.242400
-0.439500 0.245500
-0.394600 0.252800
-0.349600 0.260400
-0.304700 0.268500
-0.259800 0.277200
-0.214800 0.284600
-0.169900 0.291200
-0.124900 0.298800
-0.080000 0.307300
-0.035100 0.316000
0.009900 0.325500
0.054800 0.336300
0.099700 0.347900
0.144700 0.359400
0.189600 0.371600
0.234500 0.384800
0.279500 0.399000
0.324400 0.414100
0.369300 0.430400
0.414300 0.448800
0.459200 0.469400
0.504100 0.495100
0.549100 0.526600
0.594000 0.563900
0.638900 0.609600
0.683900 0.658400
0.728800 0.721500
0.773700 0.800800
0.818700 0.924600
0.863600 0.915200
0.908500 0.813000
0.953500 0.782500
0.998400 0.735200
1.043300 0.732200
1.088300 0.767100
1.133200 0.796700
1.178100 0.769700
1.223100 0.740600
1.268000 0.748700
1.313000 0.758200
1.357900 0.768000
1.402800 0.782700
1.447800 0.765600
1.492700 0.771800
1.537600 0.783500
1.582600 0.828200
1.627500 0.913200
1.672400 0.976100
1.717400 0.954700
1.762300 0.956900
1.807200 0.947600
1.852200 0.935500
1.897100 0.982100
1.942000 0.970400
1.987000 0.843000
2.031900 0.748100
2.076800 0.739700
2.121800 0.837400
2.166700 1.506700
2.211600 1.042100
2.256600 1.000000
2.301500 0.908600
2.346400 0.894400
2.391400 1.049200
2.436300 1.169600
2.481200 1.240600
2.526200 1.219700
2.571100 1.338300
2.616100 1.411800
2.661000 1.555500
2.705900 1.663400
2.750900 1.827700
2.795800 1.741400
2.840700 1.699600
2.885700 1.705600
2.930600 1.749000
2.975500 2.451000
3.020500 1.968900
3.065400 1.549300
3.110300 1.846300
3.155300 2.063400
3.200200 1.806700
3.245100 1.122400
3.290100 0.811300
3.335000 0.757500
3.379900 0.859800
3.424900 0.716300
3.469800 0.719100
3.514700 0.741300
3.559700 0.769200
3.604600 0.738900
3.649500 0.761100
3.694500 0.757900
3.739400 0.760000
3.784300 0.773600
3.829300 0.812200
3.874200 0.856900
3.919200 0.917500
3.964100 1.009900
4.009000 1.111000
4.054000 1.281300
4.098900 1.679700
4.143800 2.082200
4.188800 2.184500
4.233700 2.177500
4.278600 2.127200
4.323600 2.145300
4.368500 2.178100
4.413400 2.124200
4.458400 2.058000
4.503300 2.217500
4.548200 2.310100
4.593200 2.316000
4.638100 1.828600
4.683000 1.636100
4.728000 1.540800
4.772900 1.425800
4.817800 1.155300
4.862800 1.390700
4.907700 1.594100
4.952600 2.018000
4.997600 1.989900
5.042500 1.751100
5.087400 1.758600
5.132400 1.779000
5.177300 2.236300
5.222300 1.994900
5.267200 1.804600
5.312100 1.496400
5.357100 1.331700
5.402000 1.332800
5.446900 1.169400
5.491900 1.207800
5.536800 1.081500
5.581700 0.885400
5.626700 0.797700
5.671600 0.811500
5.716500 0.904400
5.761500 0.782200
5.806400 0.673100
5.851300 0.433600
5.896300 0.386100
5.941200 0.466200
5.986100 0.544300
6.031100 0.646400
6.076000 0.658600
6.120900 0.674500
6.165900 0.695900
6.210800 0.748700
6.255700 0.877200
6.300700 0.800400
6.345600 0.976300
6.390500 0.715700
6.435500 0.721200
6.480400 0.726800
6.525300 0.717800
6.570300 0.718600
6.615200 0.720300
6.660200 0.721700
6.705100 0.723200
6.750000 0.728000
6.795000 0.731800
6.839900 0.737000
6.884800 0.743100
6.929800 0.751900
6.974700 0.759900
7.019600 0.767100
7.064600 0.774700
7.109500 0.779800
7.154400 0.782300
7.199400 0.792800
7.244300 0.806500
7.289200 0.819300
7.334200 0.831800
7.379100 0.844900
7.424000 0.860100
7.469000 1.143900
7.513900 1.034600
7.558800 1.049900
7.603800 0.988900
7.648700 0.967300
7.693600 1.209300
7.738600 1.021500
7.783500 1.010900
7.828400 1.041000
7.873400 1.086600
7.918300 1.100800
7.963300 1.229800
8.008200 1.392500
8.053100 1.796600
8.098100 2.054900
8.143000 1.835900
8.187900 1.768300
8.232900 1.749100
8.277800 1.485300
8.322700 1.446500
8.367700 1.510000
8.412600 1.601600
8.457500 1.687100
8.502500 1.916700
8.547400 1.924900
8.592300 1.974800
8.637300 1.870700
8.682200 1.833200
8.727100 1.750100
8.772100 1.753800
8.817000 1.805100
8.861900 1.804800
8.906900 1.665700
8.951800 1.602200
8.996700 1.638800
9.041700 1.727600
9.086600 1.730500
9.131500 1.716700
9.176500 1.734300
9.221400 1.751000
9.266400 1.728300
9.311300 1.663800
9.356200 1.544200
9.401200 1.086500
9.446100 0.903300
9.491000 1.066500
9.536000 0.982100
9.580900 0.867300
9.625800 0.727000
9.670800 0.664500
9.715700 0.621900
9.760600 0.600600
9.805600 0.589900
9.850500 0.585200
9.895400 0.579400
9.940400 0.568500
9.985300 0.552300
10.030200 0.583400
10.075200 0.613000
10.120100 0.628100
10.165000 0.682200
10.210000 0.665000
10.254900 0.625800
10.299800 0.513000
10.344800 0.609800
10.389700 0.643700
10.434600 0.601800
10.479600 0.565300
10.524500 0.532100
10.569500 0.574000
10.614400 0.605700
10.659300 0.609900
10.704300 0.609100
10.749200 0.604600
10.794100 0.614500
10.839100 0.640100
10.884000 0.671900
10.928900 0.721200
10.973900 0.793300
11.018800 0.909200
11.063700 1.021100
11.108700 1.112700
11.153600 1.274300
11.198500 1.276200
11.243500 1.175900
11.288400 1.122900
11.333300 1.051300
11.378300 0.970000
11.423200 0.931300
11.468100 0.914100
11.513100 0.957800
11.558000 0.854800
11.602900 0.786500
11.647900 0.718200
11.692800 0.631700
11.737700 0.578700
11.782700 0.540400
11.827600 0.512500
11.872500 0.497600
11.917500 0.484800
11.962400 0.474900
12.007400 0.469400
12.052300 0.466200
12.097200 0.471100
12.142200 0.504700
12.187100 0.463200
12.232000 0.482500
12.277000 0.523800
12.321900 0.549000
12.366800 0.556300
12.411800 0.550100
12.456700 0.558500
12.501600 0.572000
12.546600 0.590500
12.591500 0.618700
12.636400 0.651000
12.681400 0.715900
12.726300 0.749800
12.771200 0.766900
12.816200 0.778000
12.861100 0.815000
12.906000 0.862600
12.951000 0.920400
12.995900 0.886000
13.040800 0.859700
13.085800 0.838200
13.130700 0.830800
13.175600 0.819100
13.220600 0.817400
13.265500 0.836900
13.310500 0.855100
13.355400 0.874000
13.400300 0.897500
13.445300 0.930400
13.490200 0.968300
13.535100 1.044400
13.580100 1.256900
13.625000 1.040700
13.669900 0.984800
13.714900 0.984600
13.759800 0.998400
13.804700 1.021300
13.849700 1.053300
13.894600 1.085100
13.939500 1.122900
13.984500 1.165000
14.029400 1.203900
14.074300 1.223300
14.119300 1.241300
14.164200 1.225800
14.209100 1.233800
14.254100 1.294500
14.299000 1.249200
14.343900 1.247800
14.388900 1.243800
14.433800 1.296900
14.478700 1.356600
14.523700 1.242700
14.568600 1.209300
14.613600 1.197300
14.658500 1.146800
14.703400 1.175800
14.748400 1.170100
14.793300 1.176100
14.838200 1.128100
14.883200 1.087600
14.928100 1.014600
14.973000 1.103700
15.018000 1.169800
15.062900 1.174500
15.107800 1.201600
15.152800 1.367100
15.197700 2.015600
15.242600 1.094200
15.287600 0.974200
15.332500 0.978800
15.377400 1.183200
15.422400 1.230200
15.467300 1.355400
15.512200 1.473000
15.557200 1.455300
15.602100 1.363400
15.647000 1.274400
15.692000 1.199800
15.736900 1.208500
15.781800 1.187300
15.826800 1.151100
15.871700 1.194600
15.916700 1.133200
15.961600 1.084100
16.006500 1.134400
16.051500 1.155500
16.096400 1.077000
16.141300 1.062300
16.186300 1.101800
16.231200 1.196500
16.276100 1.020100
16.321100 0.941400
16.366000 0.935800
16.410900 0.945800
16.455900 0.963300
16.500800 0.977500
16.545700 0.980200
16.590700 0.828300
16.635600 0.865100
16.680500 0.879800
16.725500 0.912800
16.770400 0.943300
16.815300 0.941400
16.860300 0.943400
16.905200 0.937400
16.950100 1.010200
16.995100 1.139600
17.040000 0.997500
17.084900 0.771300
17.129900 0.773700
17.174800 0.782700
17.219700 0.804700
17.264700 0.820400
17.309600 0.842900
17.354600 0.880500
17.399500 0.998400
17.444400 0.965000
17.489400 0.950900
17.534300 0.938300
17.579200 0.917100
17.624200 0.817400
17.669100 0.777300
17.714000 0.741700
17.759000 0.733000
17.803900 0.736200
17.848800 0.787600
17.893800 0.718200
17.938700 0.695600
17.983600 0.800300
18.028600 0.932900
18.073500 1.210800
18.118400 1.043500
18.163400 1.019200
18.208300 0.982200
18.253200 0.922900
18.298200 0.821600
18.343100 0.746900
18.388000 0.709300
18.433000 0.677600
18.477900 0.653100
18.522800 0.609700
18.567800 0.570600
18.612700 0.571900
18.657700 0.590200
18.702600 0.610100
18.747500 0.634200
18.792500 0.657800
18.837400 0.683000
18.882300 0.695800
18.927300 0.673100
18.972200 0.652700
19.017100 0.634200
19.062100 0.649700
19.107000 0.583000
19.151900 0.538900
19.196900 0.550500
19.241800 0.558300
19.286700 0.572400
19.331700 0.591500
19.376600 0.607300
19.421500 0.680500
19.466500 0.763000
19.511400 0.790500
19.556300 0.823100
19.601300 0.937500
19.646200 0.904900
19.691100 0.918300
19.736100 0.983500
19.781000 1.011200
19.825900 0.995300
19.870900 0.934200
19.915800 0.917100
19.960800 0.914900
20.005700 0.917700
20.050600 0.953700
20.095600 0.988200
20.140500 0.956900
20.185400 0.940200
20.230400 0.989100
20.275300 1.122300
20.320200 1.098300
20.365200 1.087200
20.410100 1.103800
20.455000 1.181900
20.500000 1.038200
20.544900 0.926900
20.589800 0.883600
20.634800 0.875000
20.679700 0.874200
20.724600 0.881100
20.769600 0.898100
20.814500 0.923900
20.859400 0.943100
20.904400 0.978700
20.949300 1.011100
20.994200 1.089700
21.039200 1.293300
21.084100 1.161400
21.129000 1.096700
21.174000 1.066400
21.218900 1.088400
21.263900 1.107900
21.308800 1.079300
21.353700 1.049000
21.398700 1.025500
21.443600 1.002600
21.488500 0.989800
21.533500 1.047900
21.578400 1.125600
21.623300 1.207300
21.668300 1.308200
21.713200 1.454600
21.758100 1.586800
21.803100 1.606500
21.848000 1.602500
21.892900 1.523000
21.937900 1.451200
21.982800 1.203600
22.027700 1.146400
22.072700 1.254200
22.117600 1.175500
22.162500 1.251700
22.207500 1.114500
22.252400 1.096100
22.297300 1.250800
22.342300 1.294100
22.387200 1.308500
22.432100 1.335900
22.477100 1.351300
22.522000 1.375400
22.566900 1.364900
22.611900 1.334100
22.656800 1.266700
22.701800 1.198000
22.746700 1.137300
22.791600 1.102900
22.836600 1.101600
22.881500 1.167700
22.926400 1.179800
22.971400 1.182400
23.016300 1.175000
23.061200 1.167300
23.106200 1.220600
23.151100 1.316400
23.196000 1.059500
23.241000 1.067600
23.285900 1.265400
23.330800 1.232100
23.375800 1.314800
23.420700 1.348400
23.465600 1.375000
23.510600 1.428600
23.555500 1.359700
23.600400 1.269700
23.645400 1.193700
23.690300 1.133000
23.735200 1.117900
23.780200 1.143100
23.825100 1.124500
23.870000 1.106500
23.915000 1.062000
23.959900 0.956000
24.004900 0.833600
24.049800 0.792200
24.094700 0.782100
24.139700 0.776500
24.184600 0.769300
24.229500 0.773200
24.274500 0.770000
24.319400 0.749200
24.364300 0.738800
24.409300 0.751900
24.454200 0.775300
24.499100 0.807500
24.544100 0.864900
24.589000 0.918300
24.633900 0.971500
24.678900 1.028500
24.723800 1.017500
24.768700 1.098400
24.813700 1.043400
24.858600 1.011900
24.903500 1.018000
24.948500 1.044300
24.993400 1.104300
25.038300 1.168700
25.083300 1.194300
25.128200 1.199900
25.173100 1.193500
25.218100 1.259500
25.263000 1.344200
25.308000 1.340600
25.352900 1.414300
25.397800 1.420600
25.442800 1.390500
25.487700 1.290000
25.532600 1.177400
25.577600 1.118200
25.622500 1.129300
25.667400 1.083500
25.712400 1.321700
25.757300 1.309100
25.802200 1.201100
25.847200 1.221200
25.892100 1.217100
25.937000 1.151900
25.982000 1.110800
26.026900 1.096100
26.071800 1.102000
26.116800 1.092400
26.161700 1.084200
26.206600 1.077700
26.251600 1.088800
26.296500 1.102400
26.341400 1.124700
26.386400 1.096100
26.431300 1.102800
26.476200 1.147900
26.521200 1.179300
26.566100 1.182600
26.611100 1.173800
26.656000 1.278100
26.700900 1.321000
26.745900 1.154700
26.790800 1.010700
26.835700 0.963500
26.880700 1.138900
26.925600 1.601400
26.970500 1.614400
27.015500 1.761700
27.060400 1.612900
27.105300 1.484500
27.150300 1.340100
27.195200 1.308700
27.240100 1.521400
27.285100 1.655900
27.330000 1.739200
27.374900 1.844300
27.419900 2.069200
27.464800 1.912300
27.509700 1.806900
27.554700 1.678100
27.599600 1.539600
27.644500 1.422000
27.689500 1.415600
27.734400 1.264900
27.779300 1.151900
27.824300 1.088200
27.869200 1.221000
27.914100 1.075300
27.959100 1.093600
28.004000 1.116400
28.049000 1.111000
28.093900 1.122300
28.138800 1.192000
28.183800 1.218300
28.228700 1.176700
28.273600 1.124900
28.318600 1.140400
28.363500 1.190400
28.408400 1.186200
28.453400 1.210300
28.498300 1.246500
28.543200 1.360900
28.588200 1.546600
28.633100 1.639900
28.678000 1.418100
28.723000 1.357200
28.767900 1.303200
28.812800 1.287800
28.857800 1.210000
28.902700 1.193800
28.947600 1.069400
28.992600 1.212800
29.037500 1.297700
29.082400 1.247600
29.127400 1.272900
29.172300 1.271600
29.217200 1.347500
29.262200 1.427900
29.307100 1.512700
29.352100 1.372900
29.397000 1.188300
29.441900 1.067000
29.486900 0.934400
29.531800 0.924900
29.576700 0.981600
29.621700 1.085000
29.666600 1.113900
29.711500 1.142700
29.756500 1.050500
29.801400 1.016100
29.846300 1.049000
29.891300 1.051400
29.936200 1.125500
29.981100 1.172300
30.026100 1.164400
30.071000 1.104900
30.115900 1.072000
30.160900 1.055300
30.205800 1.051100
30.250700 1.074300
30.295700 1.096800
30.340600 1.150500
30.385500 1.241100
30.430500 1.390300
30.475400 1.485200
30.520300 1.524500
30.565300 1.453300
30.610200 1.374300
30.655200 1.376000
30.700100 1.326300
30.745000 1.272500
30.790000 1.197400
30.834900 1.128000
30.879800 1.085000
30.924800 1.095700
30.969700 1.168900
31.014600 1.247200
31.059600 1.304300
31.104500 1.363000
31.149400 1.339900
31.194400 1.394300
31.239300 1.320000
31.284200 1.360700
31.329200 1.316200
31.374100 1.215100
31.419000 1.099900
31.464000 1.058600
31.508900 1.048900
31.553800 1.055100
31.598800 1.091300
31.643700 1.103000
31.688600 1.200100
31.733600 1.183200
31.778500 1.228200
31.823400 1.252000
31.868400 1.271700
31.913300 1.365900
31.958300 1.403200
32.003200 1.398100
32.048100 1.421100
32.093100 1.405600
32.138000 1.473900
32.182900 1.493400
32.227900 1.301500
32.272800 1.285100
32.317700 1.262400
32.362700 1.248200
32.407600 1.234300
32.452500 1.186100
32.497500 1.153500
32.542400 1.150000
32.587300 1.126300
32.632300 1.117100
32.677200 1.121600
32.722100 1.146200
32.767100 1.227400
32.812000 1.229600
32.856900 1.185200
32.901900 1.339900
32.946800 1.248700
32.991700 1.259400
33.036700 1.269100
33.081600 1.272800
33.126500 1.297200
33.171500 1.388300
33.216400 1.541100
33.261300 1.621600
33.306300 1.564300
33.351200 1.507300
33.396200 1.381300
33.441100 1.318100
33.486000 1.248600
33.531000 1.180800
33.575900 1.139700
33.620800 1.099700
33.665800 1.096500
33.710700 1.101300
33.755600 1.141800
33.800600 1.195200
33.845500 1.253600
33.890400 1.322300
33.935400 1.339400
33.980300 1.409200
34.025200 1.466900
34.070200 1.466300
34.115100 1.425200
34.160000 1.372300
34.205000 1.326300
34.249900 1.304700
34.294800 1.404000
34.339800 1.341800
34.384700 1.390800
34.429600 1.458100
34.474600 1.522500
34.519500 1.583300
34.564400 1.626600
34.609400 1.714300
34.654300 1.864000
34.699300 1.700200
34.744200 1.661200
34.789100 1.576400
34.834100 1.588900
34.879000 1.657000
34.923900 1.848900
34.968900 2.000300
35.013800 2.067700
35.058700 2.157700
35.103700 2.279000
35.148600 2.578100
35.193500 3.036000
35.238500 3.393300
35.283400 3.982600
35.328300 4.957700
35.373300 4.287900
35.418200 3.901000
35.463100 4.392800
35.508100 3.080000
35.553000 2.721300
35.597900 2.630800
35.642900 2.521800
35.687800 2.687500
35.732700 2.938000
35.777700 1.857800
35.822600 1.842200
35.867500 1.891200
35.912500 1.969400
35.957400 1.930100
36.002400 1.935800
36.047300 1.910500
36.092200 1.826900
36.137200 1.692500
36.182100 1.485800
36.227000 1.410600
36.272000 1.372400
36.316900 1.373300
36.361800 1.408600
36.406800 1.440000
36.451700 1.462000
36.496600 1.471800
36.541600 1.484900
36.586500 1.511200
36.631400 1.599200
36.676400 1.566900
36.721300 1.562200
36.766200 1.614100
36.811200 1.681800
36.856100 1.767000
36.901000 1.809800
36.946000 1.801300
36.990900 1.812600
37.035800 2.070300
37.080800 1.936800
37.125700 1.657900
37.170600 1.572700
37.215600 1.549900
37.260500 1.558700
37.305500 1.454100
37.350400 1.417900
37.395300 1.389600
37.440300 1.441300
37.485200 1.567900
37.530100 1.573200
37.575100 1.577300
37.620000 1.408300
37.664900 1.361800
37.709900 1.370000
37.754800 1.417200
37.799700 1.392200
37.844700 1.331300
37.889600 1.322700
37.934500 1.326400
37.979500 1.217500
38.024400 1.135600
38.069300 1.160600
38.114300 1.097500
38.159200 1.059100
38.204100 1.054900
38.249100 1.061300
38.294000 1.087000
38.338900 1.141000
38.383900 1.201900
38.428800 1.271300
38.473700 1.287600
38.518700 1.340600
38.563600 1.314300
38.608500 1.449600
38.653500 1.351000
38.698400 1.370400
38.743400 1.379100
38.788300 1.404700
38.833200 1.443000
38.878200 1.450800
38.923100 1.325000
38.968000 1.319200
39.013000 1.305200
39.057900 1.317600
39.102800 1.359900
39.147800 1.369200
39.192700 1.345000
39.237600 1.330700
39.282600 1.343600
39.327500 1.342300
39.372400 1.277400
39.417400 1.225600
39.462300 1.236300
39.507200 1.193800
39.552200 1.208000
39.597100 1.172100
39.642000 1.168900
39.687000 1.197200
39.731900 1.212100
39.776800 1.213400
39.821800 1.244800
39.866700 1.275900
39.911600 1.310200
39.956600 1.371000
40.001500 1.457900
40.046500 1.500300
40.091400 1.431700
40.136300 1.374300
40.181300 1.357900
40.226200 1.322100
40.271100 1.332300
40.316100 1.332500
40.361000 1.289700
40.405900 1.347200
40.450900 1.525700
40.495800 1.596700
40.540700 1.610900
40.585700 1.626100
40.630600 1.506400
40.675500 1.473800
40.720500 1.574000
40.765400 1.877500
40.810300 1.639000
40.855300 1.558100
40.900200 1.452500
40.945100 1.396100
40.990100 1.362900
41.035000 1.392800
41.079900 1.420600
41.124900 1.450200
41.169800 1.488600
41.214700 1.541200
41.259700 1.595900
41.304600 1.676200
41.349600 1.641300
41.394500 1.649900
41.439400 1.470200
41.484400 1.371400
41.529300 1.334600
41.574200 1.333500
41.619200 1.398100
41.664100 1.390400
41.709000 1.358500
41.754000 1.347200
41.798900 1.342300
41.843800 1.376200
41.888800 1.385500
41.933700 1.393500
41.978600 1.392500
42.023600 1.413300
42.068500 1.442900
42.113400 1.486700
42.158400 1.425000
42.203300 1.345500
42.248200 1.302300
42.293200 1.266700
42.338100 1.234000
42.383000 1.236800
42.428000 1.266600
42.472900 1.336000
42.517800 1.469100
42.562800 1.487500
42.607700 1.519000
42.652700 1.507900
42.697600 1.458600
42.742500 1.433900
42.787500 1.404000
42.832400 1.349700
42.877300 1.303600
42.922300 1.301800
42.967200 1.317000
43.012100 1.375400
43.057100 1.433000
43.102000 1.514800
43.146900 1.588000
43.191900 1.656100
43.236800 1.729700
43.281700 1.808500
43.326700 1.877400
43.371600 1.818900
43.416500 1.776100
43.461500 1.679600
43.506400 1.527500
43.551300 1.395700
43.596300 1.306700
43.641200 1.261200
43.686100 1.246400
43.731100 1.372900
43.776000 1.411500
43.820900 1.408600
43.865900 1.422800
43.910800 1.480700
43.955700 1.558900
44.000700 1.590600
44.045600 1.616900
44.090600 1.676900
44.135500 1.687300
44.180400 1.644500
44.225400 1.641200
44.270300 1.607100
44.315200 1.507200
44.360200 1.477100
44.405100 1.464900
44.450000 1.439600
44.495000 1.401700
44.539900 1.394900
44.584800 1.453200
44.629800 1.395200
44.674700 1.367200
44.719600 1.364400
44.764600 1.381800
44.809500 1.743700
44.854400 1.401400
44.899400 1.377000
44.944300 1.391900
44.989200 1.353300
45.034200 1.331200
45.079100 1.317300
45.124000 1.277700
45.169000 1.297900
45.213900 1.356700
45.258800 1.393800
45.303800 1.406500
45.348700 1.426400
45.393700 1.471800
45.438600 1.504700
45.483500 1.527100
45.528500 1.471900
45.573400 1.438700
45.618300 1.398200
45.663300 1.373000
45.708200 1.354500
45.753100 1.396800
45.798100 1.451000
45.843000 1.437100
45.887900 1.442900
45.932900 1.467200
45.977800 1.511400
46.022700 1.567600
46.067700 1.550600
46.112600 1.588800
46.157500 1.620700
46.202500 1.651900
46.247400 1.605000
46.292300 1.652800
46.337300 1.729900
46.382200 1.890200
46.427100 1.976900
46.472100 1.981800
46.517000 1.852400
46.561900 1.747500
46.606900 1.577000
46.651800 1.503400
46.696800 1.492100
46.741700 1.426400
46.786600 1.436200
46.831600 1.428500
46.876500 1.441600
46.921400 1.480200
46.966400 1.594100
47.011300 1.530400
47.056200 1.543500
47.101200 1.590000
47.146100 1.659600
47.191000 1.731900
47.236000 1.669400
47.280900 1.644600
47.325800 1.578100
47.370800 1.524400
47.415700 1.561400
47.460600 1.585800
47.505600 1.553500
47.550500 1.588400
47.595400 1.602400
47.640400 1.562200
47.685300 1.526800
47.730200 1.574500
47.775200 1.518300
47.820100 1.469100
47.865000 1.472000
47.910000 1.479400
47.954900 1.544200
47.999900 1.585300
48.044800 1.398900
48.089700 1.291500
48.134700 1.212400
48.179600 1.164200
48.224500 1.153300
48.269500 1.197200
48.314400 1.294700
48.359300 1.349100
48.404300 1.414400
48.449200 1.476900
48.494100 1.548400
48.539100 1.640800
48.584000 1.661300
48.628900 1.614600
48.673900 1.641000
48.718800 1.655500
48.763700 1.705200
48.808700 1.625400
48.853600 1.522800
48.898500 1.562500
48.943500 1.493800
48.988400 1.514500
49.033300 1.537300
49.078300 1.558700
49.123200 1.603700
49.168100 1.674600
49.213100 1.725300
49.258000 1.808900
49.302900 1.880100
49.347900 1.854200
49.392800 1.730400
49.437800 1.622000
49.482700 1.548200
49.527600 1.506200
49.572600 1.492700
49.617500 1.496900
49.662400 1.497600
49.707400 1.544600
49.752300 1.567200
49.797200 1.581700
49.842200 1.556000
49.887100 1.556400
49.932000 1.586400
49.977000 1.555000
50.021900 1.556100
50.066800 1.491800
50.111800 1.426000
50.156700 1.422000
50.201600 1.516500
50.246600 1.552900
50.291500 1.537900
50.336400 1.500000
50.381400 1.431900
50.426300 1.456900
50.471200 1.469200
50.516200 1.489600
50.561100 1.442000
50.606000 1.389300
50.651000 1.528600
50.695900 1.421800
50.740900 1.395800
50.785800 1.396500
50.830700 1.428100
50.875700 1.446700
50.920600 1.469700
50.965500 1.498800
51.010500 1.592500
51.055400 1.608600
51.100300 1.645100
51.145300 1.696100
51.190200 1.644900
51.235100 1.639500
51.280100 1.629800
51.325000 1.609000
51.369900 1.579100
51.414900 1.542200
51.459800 1.590700
51.504700 1.551500
51.549700 1.558000
51.594600 1.420000
51.639500 1.333200
51.684500 1.344200
51.729400 1.451700
51.774300 1.494400
51.819300 1.533200
51.864200 1.588400
51.909100 1.525100
51.954100 1.506700
51.999000 1.458900
52.044000 1.447100
52.088900 1.510400
52.133800 1.522200
52.178800 1.537600
52.223700 1.556400
52.268600 1.507500
52.313600 1.441500
52.358500 1.481200
52.403400 1.552600
52.448400 1.644100
52.493300 1.744800
52.538200 1.746800
52.583200 1.714500
52.628100 1.719000
52.673000 1.581700
52.718000 1.561100
52.762900 1.492400
52.807800 1.524600
52.852800 1.539900
52.897700 1.531600
52.942600 1.541800
52.987600 1.569500
53.032500 1.617500
53.077400 1.628700
53.122400 1.618100
53.167300 1.609200
53.212200 1.629700
53.257200 1.634300
53.302100 1.564200
53.347100 1.587100
53.392000 1.696100
53.436900 1.755900
53.481900 1.786900
53.526800 1.802100
53.571700 1.859800
53.616700 1.754400
53.661600 1.582800
53.706500 1.470400
53.751500 1.496500
53.796400 1.447200
53.841300 1.461200
53.886300 1.459600
53.931200 1.574800
53.976100 1.494400
54.021100 1.480700
54.066000 1.472700
54.110900 1.465500
54.155900 1.433900
54.200800 1.419900
54.245700 1.412900
54.290700 1.474600
54.335600 1.527300
54.380500 1.515900
54.425500 1.526700
54.470400 1.538000
54.515300 1.542100
54.560300 1.549700
54.605200 1.657400
54.650100 1.613300
54.695100 1.708100
54.740000 1.576600
54.785000 1.608800
54.829900 1.714600
54.874800 1.708800
54.919800 1.718500
54.964700 1.752000
55.009600 1.738100
55.054600 1.695500
55.099500 1.668700
55.144400 1.621300
55.189400 1.573800
55.234300 1.560000
55.279200 1.577000
55.324200 1.542300
55.369100 1.538100
55.414000 1.612200
55.459000 1.664000
55.503900 1.670300
55.548800 1.662800
55.593800 1.653000
55.638700 1.628000
55.683600 1.603500
55.728600 1.588900
55.773500 1.603900
55.818400 1.627200
55.863400 1.777700
55.908300 1.658600
55.953200 1.632700
55.998200 1.553200
56.043100 1.489000
56.088100 1.465600
56.133000 1.466400
56.177900 1.433200
56.222900 1.404700
56.267800 1.424100
56.312700 1.444300
56.357700 1.368300
56.402600 1.334400
56.447500 1.292600
56.492500 1.224300
56.537400 1.172500
56.582300 1.117000
56.627300 1.094700
56.672200 1.096700
56.717100 1.095200
56.762100 1.136300
56.807000 1.165400
56.851900 1.122600
56.896900 1.080600
56.941800 1.021300
56.986700 1.001800
57.031700 0.918700
57.076600 0.869900
57.121500 0.822500
57.166500 0.775700
57.211400 0.716800
57.256300 0.660300
57.301300 0.618000
57.346200 0.599200
57.391200 0.582800
57.436100 0.556600
57.481000 0.538800
57.526000 0.582000
57.570900 0.575000
57.615800 0.560600
57.660800 0.542800
57.705700 0.549300
57.750600 0.564700
57.795600 0.561000
57.840500 0.557600
57.885400 0.553900
57.930400 0.534600
57.975300 0.482000
58.020200 0.390500
58.065200 0.335100
58.110100 0.292600
58.155000 0.238100
58.200000 0.190400
58.244900 0.150600
58.289800 0.118100
58.334800 0.093900
58.379700 0.074700
58.424600 0.059300
58.469600 0.047700
58.514500 0.038700
58.559400 0.034400
58.604400 0.030900
58.649300 0.027900
58.694300 0.025000
58.739200 0.022300
58.784100 0.019700
58.829100 0.017300
58.874000 0.015100
58.918900 0.013000
58.963900 0.011000
59.008800 0.009200
59.053700 0.007500
59.098700 0.006000
59.143600 0.004700
59.188500 0.003400
59.233500 0.001700
59.278400 0.000500
59.323300 0.000000
59.368300 0.000000
59.413200 0.000000
59.458100 0.000000
59.503100 0.000000
59.548000 0.000000
59.592900 0.000000
59.637900 0.000000
59.682800 0.000000
59.727700 0.000000
59.772700 0.000000
59.817600 0.000000
59.862500 0.000000
59.907500 0.000000
59.952400 0.000000
59.997300 0.000000
60.042300 0.000000
60.087200 0.000000
60.132200 0.000000
60.177100 0.000000
60.222000 0.000000
60.267000 0.000000
60.311900 0.000000
60.356800 0.000000
60.401800 0.000000
60.446700 0.000000
60.491600 0.000000
60.536600 0.000000
60.581500 0.000000
60.626400 0.000000
60.671400 0.000000
60.716300 0.000000
60.761200 0.000000
60.806200 0.000000
60.851100 0.000000
60.896000 0.000000
60.941000 0.000000
60.985900 0.000000
61.030800 0.000000
61.075800 0.000000
61.120700 0.000000
61.165600 0.000000
61.210600 0.000000
61.255500 0.000000
61.300400 0.000000
61.345400 0.000000
61.390300 0.000000
61.435300 0.000000
61.480200 0.000000
61.525100 0.000000
61.570100 0.000000
61.615000 0.000000
61.659900 0.000000
61.704900 0.000000
61.749800 0.000000
61.794700 0.000000
61.839700 0.000000
61.884600 0.000000
61.929500 0.000000
61.974500 0.000000
62.019400 0.000000
62.064300 0.000000
62.109300 0.000000
62.154200 0.000000
62.199100 0.000000
62.244100 0.000000
62.289000 0.000000
62.333900 0.000000
62.378900 0.000000
62.423800 0.000000
62.468700 0.000000
62.513700 0.000000
62.558600 0.000000
62.603500 0.000000
62.648500 0.000000
62.693400 0.000000
62.738400 0.000000
62.783300 0.000000
62.828200 0.000000
62.873200 0.000000
62.918100 0.000000
62.963000 0.000000
63.008000 0.000000
63.052900 0.000000
63.097800 0.000000
63.142800 0.000000
63.187700 0.000000
63.232600 0.000000
63.277600 0.000000
63.322500 0.000000
63.367400 0.000000
63.412400 0.000000
63.457300 0.000000
63.502200 0.000000
63.547200 0.000000
63.592100 0.000000
63.637000 0.000000
63.682000 0.000000
63.726900 0.000000
63.771800 0.000000
63.816800 0.000000
e
