set title 'mp-158 - Density of States'
set xlabel 'Energy (eV)'
set ylabel 'DOS (states/eV)'
set grid
set xrange [-10:10]
set yrange [0:7.717]
set xzeroaxis lt -1
set terminal png size 800,600
set output 'mp-158_dos_gnuplot.png'
plot '-' using 1:2 with lines title 'DOS'
-11.650400 0.000000
-11.636800 0.000000
-11.623100 0.000000
-11.609500 0.000000
-11.595800 0.000000
-11.582200 0.000000
-11.568600 0.000000
-11.554900 0.000000
-11.541300 0.000000
-11.527700 0.000000
-11.514000 0.000000
-11.500400 0.000000
-11.486800 0.000000
-11.473100 0.000000
-11.459500 0.000000
-11.445900 0.000000
-11.432200 0.000000
-11.418600 0.000000
-11.404900 0.000000
-11.391300 0.000000
-11.377700 0.000000
-11.364000 0.000000
-11.350400 0.000000
-11.336800 0.000000
-11.323100 0.000000
-11.309500 0.000000
-11.295900 0.000000
-11.282200 0.000000
-11.268600 0.000000
-11.255000 0.000000
-11.241300 0.000000
-11.227700 0.000000
-11.214000 0.000000
-11.200400 0.000000
-11.186800 0.000000
-11.173100 0.000000
-11.159500 0.000000
-11.145900 0.000000
-11.132200 0.000000
-11.118600 0.000000
-11.105000 0.000000
-11.091300 0.000000
-11.077700 0.000000
-11.064100 0.000000
-11.050400 0.000000
-11.036800 0.000000
-11.023100 0.000000
-11.009500 0.000000
-10.995900 0.000000
-10.982200 0.000000
-10.968600 0.000000
-10.955000 0.000000
-10.941300 0.000000
-10.927700 0.000000
-10.914100 0.000000
-10.900400 0.000000
-10.886800 0.000000
-10.873200 0.000000
-10.859500 0.000000
-10.845900 0.000000
-10.832200 0.000000
-10.818600 0.000000
-10.805000 0.000000
-10.791300 0.000000
-10.777700 0.000000
-10.764100 0.000000
-10.750400 0.000000
-10.736800 0.000000
-10.723200 0.000000
-10.709500 0.000000
-10.695900 0.000000
-10.682300 0.000000
-10.668600 0.000000
-10.655000 0.000000
-10.641300 0.000000
-10.627700 0.000000
-10.614100 0.000000
-10.600400 0.000000
-10.586800 0.000000
-10.573200 0.000000
-10.559500 0.000000
-10.545900 0.000000
-10.532300 0.000000
-10.518600 0.000000
-10.505000 0.000000
-10.491400 0.000000
-10.477700 0.000000
-10.464100 0.000000
-10.450400 0.000000
-10.436800 0.000000
-10.423200 0.000000
-10.409500 0.000300
-10.395900 0.050300
-10.382300 0.164500
-10.368600 0.261500
-10.355000 0.299300
-10.341400 0.331400
-10.327700 0.372600
-10.314100 0.414100
-10.300500 0.461900
-10.286800 0.512600
-10.273200 0.554000
-10.259500 0.586100
-10.245900 0.619300
-10.232300 0.657100
-10.218600 0.698300
-10.205000 0.752800
-10.191400 0.837200
-10.177700 0.925000
-10.164100 0.970500
-10.150500 0.954000
-10.136800 0.938900
-10.123200 0.951800
-10.109500 0.965300
-10.095900 0.971600
-10.082300 0.968800
-10.068600 0.962600
-10.055000 0.951000
-10.041400 0.948000
-10.027700 0.952400
-10.014100 0.957300
-10.000500 0.962300
-9.986800 0.967700
-9.973200 0.973200
-9.959600 0.977900
-9.945900 0.980800
-9.932300 0.980700
-9.918600 0.980700
-9.905000 0.980900
-9.891400 0.979700
-9.877700 0.979400
-9.864100 0.979700
-9.850500 0.980900
-9.836800 0.982700
-9.823200 0.985000
-9.809600 0.987900
-9.795900 0.991100
-9.782300 0.994100
-9.768700 0.995900
-9.755000 0.997400
-9.741400 0.999600
-9.727700 1.003000
-9.714100 1.006500
-9.700500 1.008600
-9.686800 1.008600
-9.673200 1.007700
-9.659600 1.008900
-9.645900 1.011900
-9.632300 1.015200
-9.618700 1.018600
-9.605000 1.021900
-9.591400 1.024000
-9.577800 1.025800
-9.564100 1.027800
-9.550500 1.029400
-9.536800 1.031000
-9.523200 1.033100
-9.509600 1.035900
-9.495900 1.038800
-9.482300 1.042000
-9.468700 1.045300
-9.455000 1.048600
-9.441400 1.052200
-9.427800 1.141500
-9.414100 1.206300
-9.400500 1.203500
-9.386900 1.177400
-9.373200 1.170000
-9.359600 1.168700
-9.345900 1.171400
-9.332300 1.172700
-9.318700 1.203300
-9.305000 1.201000
-9.291400 1.128000
-9.277800 1.036800
-9.264100 1.018400
-9.250500 0.999800
-9.236900 0.981400
-9.223200 0.963800
-9.209600 0.944500
-9.196000 0.922500
-9.182300 0.907600
-9.168700 0.899200
-9.155000 0.884600
-9.141400 0.874100
-9.127800 0.947000
-9.114100 1.076300
-9.100500 1.148800
-9.086900 1.148300
-9.073200 1.211300
-9.059600 1.311700
-9.046000 1.272700
-9.032300 1.192500
-9.018700 1.208400
-9.005100 1.206400
-8.991400 1.207900
-8.977800 1.210300
-8.964100 1.210400
-8.950500 1.199900
-8.936900 1.200400
-8.923200 1.208700
-8.909600 1.217200
-8.896000 1.225900
-8.882300 1.234700
-8.868700 1.240300
-8.855100 1.240000
-8.841400 1.243400
-8.827800 1.253800
-8.814200 1.266600
-8.800500 1.273500
-8.786900 1.284500
-8.773200 1.294600
-8.759600 1.304800
-8.746000 1.314900
-8.732300 1.324900
-8.718700 1.333700
-8.705100 1.341800
-8.691400 1.349600
-8.677800 1.356600
-8.664200 1.362700
-8.650500 1.377700
-8.636900 1.396100
-8.623300 1.412100
-8.609600 1.425600
-8.596000 1.444300
-8.582300 1.462800
-8.568700 1.481200
-8.555100 1.501400
-8.541400 1.534100
-8.527800 1.579300
-8.514200 1.617200
-8.500500 1.659800
-8.486900 1.746000
-8.473300 1.879000
-8.459600 1.963500
-8.446000 1.966100
-8.432300 1.926600
-8.418700 1.952800
-8.405100 1.988200
-8.391400 2.035600
-8.377800 2.095700
-8.364200 2.180100
-8.350500 2.242400
-8.336900 2.210500
-8.323300 2.196500
-8.309600 2.171300
-8.296000 2.141900
-8.282400 2.104900
-8.268700 2.057100
-8.255100 2.008800
-8.241400 1.981200
-8.227800 1.954400
-8.214200 1.926600
-8.200500 1.906200
-8.186900 1.890000
-8.173300 1.876400
-8.159600 1.872600
-8.146000 1.867200
-8.132400 1.861100
-8.118700 1.853300
-8.105100 1.846400
-8.091500 1.838100
-8.077800 1.822800
-8.064200 1.810600
-8.050500 1.818200
-8.036900 1.814100
-8.023300 1.798100
-8.009600 1.775500
-7.996000 1.714800
-7.982400 1.638600
-7.968700 1.638900
-7.955100 1.717000
-7.941500 1.943200
-7.927800 2.288500
-7.914200 2.032000
-7.900600 2.071900
-7.886900 2.183500
-7.873300 2.289000
-7.859600 7.015700
-7.846000 3.082000
-7.832400 3.252000
-7.818700 2.806600
-7.805100 2.238800
-7.791500 1.802200
-7.777800 1.617400
-7.764200 1.574600
-7.750600 1.529300
-7.736900 1.480800
-7.723300 1.431200
-7.709700 1.382300
-7.696000 1.334200
-7.682400 1.290500
-7.668700 1.250300
-7.655100 1.212500
-7.641500 1.178500
-7.627800 1.145300
-7.614200 1.112900
-7.600600 1.090200
-7.586900 1.072500
-7.573300 1.045400
-7.559700 1.013800
-7.546000 0.979200
-7.532400 0.952200
-7.518800 0.935700
-7.505100 0.923600
-7.491500 0.911000
-7.477800 0.885000
-7.464200 0.842400
-7.450600 0.800100
-7.436900 0.763100
-7.423300 0.735300
-7.409700 0.707800
-7.396000 0.679100
-7.382400 0.648900
-7.368800 0.616500
-7.355100 0.582500
-7.341500 0.548600
-7.327900 0.515500
-7.314200 0.481800
-7.300600 0.447500
-7.286900 0.413400
-7.273300 0.380200
-7.259700 0.348300
-7.246000 0.319700
-7.232400 0.296000
-7.218800 0.274600
-7.205100 0.254400
-7.191500 0.235400
-7.177900 0.217400
-7.164200 0.199300
-7.150600 0.181500
-7.137000 0.164700
-7.123300 0.149100
-7.109700 0.134100
-7.096000 0.120000
-7.082400 0.106900
-7.068800 0.094800
-7.055100 0.084000
-7.041500 0.073800
-7.027900 0.063900
-7.014200 0.054400
-7.000600 0.047200
-6.987000 0.049500
-6.973300 0.056400
-6.959700 0.066300
-6.946100 0.078300
-6.932400 0.091800
-6.918800 0.106900
-6.905100 0.124400
-6.891500 0.143300
-6.877900 0.162300
-6.864200 0.181400
-6.850600 0.200900
-6.837000 0.220800
-6.823300 0.239300
-6.809700 0.255400
-6.796100 0.269400
-6.782400 0.284600
-6.768800 0.303600
-6.755200 0.326300
-6.741500 0.346400
-6.727900 0.363600
-6.714200 0.379300
-6.700600 0.394400
-6.687000 0.409900
-6.673300 0.426700
-6.659700 0.445400
-6.646100 0.465100
-6.632400 0.484600
-6.618800 0.504200
-6.605200 0.524000
-6.591500 0.544000
-6.577900 0.564200
-6.564200 0.584800
-6.550600 0.605700
-6.537000 0.624400
-6.523300 0.645400
-6.509700 0.666400
-6.496100 0.686900
-6.482400 0.705600
-6.468800 0.724700
-6.455200 0.744400
-6.441500 0.765800
-6.427900 0.787500
-6.414300 0.806700
-6.400600 0.824700
-6.387000 0.841200
-6.373300 0.856700
-6.359700 0.872000
-6.346100 0.887600
-6.332400 0.904800
-6.318800 0.925000
-6.305200 0.948900
-6.291500 0.974700
-6.277900 1.001600
-6.264300 1.029500
-6.250600 1.057700
-6.237000 1.087000
-6.223400 1.117400
-6.209700 1.147000
-6.196100 1.179000
-6.182400 1.214300
-6.168800 1.252800
-6.155200 1.299600
-6.141500 1.395500
-6.127900 1.473000
-6.114300 1.525400
-6.100600 1.548500
-6.087000 1.576300
-6.073400 1.602400
-6.059700 1.624200
-6.046100 1.642500
-6.032500 1.659800
-6.018800 1.675200
-6.005200 1.694800
-5.991500 1.707700
-5.977900 1.715000
-5.964300 1.722400
-5.950600 1.725400
-5.937000 1.738700
-5.923400 1.825500
-5.909700 1.878800
-5.896100 1.944100
-5.882500 1.910500
-5.868800 1.824100
-5.855200 1.803700
-5.841600 1.778400
-5.827900 1.795300
-5.814300 2.718000
-5.800600 2.426200
-5.787000 2.687500
-5.773400 2.960600
-5.759700 3.118600
-5.746100 3.164300
-5.732500 3.207000
-5.718800 3.200000
-5.705200 3.216200
-5.691600 3.358200
-5.677900 3.412600
-5.664300 3.433800
-5.650700 3.469100
-5.637000 3.540300
-5.623400 3.611200
-5.609700 3.562900
-5.596100 3.089700
-5.582500 2.963800
-5.568800 2.739400
-5.555200 2.445200
-5.541600 2.254900
-5.527900 2.246300
-5.514300 2.275500
-5.500700 2.021000
-5.487000 1.793800
-5.473400 1.610000
-5.459800 1.487500
-5.446100 1.418300
-5.432500 1.369900
-5.418800 1.325500
-5.405200 1.289700
-5.391600 1.256600
-5.377900 1.221900
-5.364300 1.194900
-5.350700 1.167900
-5.337000 1.140300
-5.323400 1.111500
-5.309800 1.091200
-5.296100 1.075100
-5.282500 1.076800
-5.268900 1.066700
-5.255200 1.058200
-5.241600 1.049700
-5.227900 1.074400
-5.214300 1.178700
-5.200700 1.328400
-5.187000 1.280400
-5.173400 1.236300
-5.159800 1.179500
-5.146100 1.164300
-5.132500 1.150600
-5.118900 1.133200
-5.105200 1.114700
-5.091600 1.101400
-5.078000 1.095700
-5.064300 1.136200
-5.050700 1.124600
-5.037000 0.873600
-5.023400 0.877200
-5.009800 0.880600
-4.996100 0.886600
-4.982500 0.889300
-4.968900 0.893200
-4.955200 0.896900
-4.941600 0.900100
-4.928000 0.902700
-4.914300 0.904900
-4.900700 0.907200
-4.887000 0.908200
-4.873400 0.909700
-4.859800 0.913800
-4.846100 0.919200
-4.832500 0.927500
-4.818900 0.933100
-4.805200 0.934900
-4.791600 0.942200
-4.778000 0.944600
-4.764300 0.949700
-4.750700 0.956100
-4.737100 0.968400
-4.723400 0.994600
-4.709800 1.070400
-4.696100 0.947900
-4.682500 0.837600
-4.668900 0.832400
-4.655200 0.826600
-4.641600 0.820500
-4.628000 0.814200
-4.614300 0.807900
-4.600700 0.802300
-4.587100 0.797100
-4.573400 0.792000
-4.559800 0.787000
-4.546200 0.782100
-4.532500 0.777200
-4.518900 0.772300
-4.505200 0.766600
-4.491600 0.760400
-4.478000 0.756500
-4.464300 0.752700
-4.450700 0.748800
-4.437100 0.744700
-4.423400 0.740300
-4.409800 0.735900
-4.396200 0.731200
-4.382500 0.726300
-4.368900 0.720900
-4.355300 0.714200
-4.341600 0.707500
-4.328000 0.700800
-4.314300 0.693600
-4.300700 0.687300
-4.287100 0.680900
-4.273400 0.675800
-4.259800 0.671200
-4.246200 0.666900
-4.232500 0.662800
-4.218900 0.658800
-4.205300 0.655100
-4.191600 0.651600
-4.178000 0.648500
-4.164400 0.645500
-4.150700 0.642400
-4.137100 0.639200
-4.123400 0.635900
-4.109800 0.632500
-4.096200 0.628700
-4.082500 0.624200
-4.068900 0.616600
-4.055300 0.612400
-4.041600 0.608600
-4.028000 0.605000
-4.014400 0.601500
-4.000700 0.597900
-3.987100 0.594200
-3.973500 0.590600
-3.959800 0.587000
-3.946200 0.583400
-3.932500 0.580000
-3.918900 0.576700
-3.905300 0.573600
-3.891600 0.570700
-3.878000 0.567300
-3.864400 0.563500
-3.850700 0.559400
-3.837100 0.555300
-3.823500 0.551100
-3.809800 0.546900
-3.796200 0.542500
-3.782600 0.538000
-3.768900 0.533500
-3.755300 0.528800
-3.741600 0.524300
-3.728000 0.520300
-3.714400 0.516300
-3.700700 0.512700
-3.687100 0.509000
-3.673500 0.505100
-3.659800 0.501700
-3.646200 0.498600
-3.632600 0.496100
-3.618900 0.494100
-3.605300 0.492100
-3.591700 0.490100
-3.578000 0.488000
-3.564400 0.485900
-3.550700 0.483800
-3.537100 0.482000
-3.523500 0.475900
-3.509800 0.474200
-3.496200 0.472900
-3.482600 0.471000
-3.468900 0.468900
-3.455300 0.466200
-3.441700 0.462700
-3.428000 0.458600
-3.414400 0.454600
-3.400800 0.450900
-3.387100 0.447400
-3.373500 0.444000
-3.359800 0.440900
-3.346200 0.438200
-3.332600 0.435100
-3.318900 0.432000
-3.305300 0.428900
-3.291700 0.425600
-3.278000 0.422100
-3.264400 0.418600
-3.250800 0.414900
-3.237100 0.411000
-3.223500 0.407600
-3.209900 0.405200
-3.196200 0.403100
-3.182600 0.401500
-3.168900 0.400200
-3.155300 0.399300
-3.141700 0.398200
-3.128000 0.397100
-3.114400 0.396400
-3.100800 0.393500
-3.087100 0.389600
-3.073500 0.385900
-3.059900 0.382300
-3.046200 0.378300
-3.032600 0.375400
-3.018900 0.372100
-3.005300 0.369400
-2.991700 0.367200
-2.978000 0.365200
-2.964400 0.363400
-2.950800 0.362600
-2.937100 0.366300
-2.923500 0.369000
-2.909900 0.369700
-2.896200 0.367900
-2.882600 0.363000
-2.869000 0.357100
-2.855300 0.350300
-2.841700 0.343000
-2.828000 0.335300
-2.814400 0.327300
-2.800800 0.318900
-2.787100 0.310300
-2.773500 0.299600
-2.759900 0.282800
-2.746200 0.264700
-2.732600 0.247900
-2.719000 0.234000
-2.705300 0.222900
-2.691700 0.212600
-2.678100 0.202300
-2.664400 0.191700
-2.650800 0.180900
-2.637100 0.170600
-2.623500 0.161100
-2.609900 0.152500
-2.596200 0.145600
-2.582600 0.140100
-2.569000 0.134600
-2.555300 0.127600
-2.541700 0.118500
-2.528100 0.107500
-2.514400 0.096100
-2.500800 0.084800
-2.487200 0.073900
-2.473500 0.063300
-2.459900 0.052900
-2.446200 0.041500
-2.432600 0.030100
-2.419000 0.019700
-2.405300 0.010200
-2.391700 0.003600
-2.378100 0.000400
-2.364400 0.000000
-2.350800 0.000000
-2.337200 0.000000
-2.323500 0.000000
-2.309900 0.000000
-2.296300 0.000000
-2.282600 0.000000
-2.269000 0.000000
-2.255300 0.000000
-2.241700 0.000000
-2.228100 0.000000
-2.214400 0.000000
-2.200800 0.000000
-2.187200 0.000000
-2.173500 0.000000
-2.159900 0.000000
-2.146300 0.000000
-2.132600 0.000000
-2.119000 0.000000
-2.105400 0.000000
-2.091700 0.000000
-2.078100 0.000000
-2.064400 0.000000
-2.050800 0.000000
-2.037200 0.000000
-2.023500 0.000000
-2.009900 0.000000
-1.996300 0.000000
-1.982600 0.000000
-1.969000 0.000000
-1.955400 0.000000
-1.941700 0.000000
-1.928100 0.000000
-1.914500 0.000000
-1.900800 0.000000
-1.887200 0.000000
-1.873500 0.000000
-1.859900 0.000000
-1.846300 0.000000
-1.832600 0.000000
-1.819000 0.000000
-1.805400 0.000000
-1.791700 0.000000
-1.778100 0.000000
-1.764500 0.000000
-1.750800 0.000000
-1.737200 0.000000
-1.723600 0.000000
-1.709900 0.000000
-1.696300 0.000000
-1.682600 0.000000
-1.669000 0.000000
-1.655400 0.000000
-1.641700 0.000000
-1.628100 0.000000
-1.614500 0.000000
-1.600800 0.003500
-1.587200 0.015000
-1.573600 0.034400
-1.559900 0.057200
-1.546300 0.081200
-1.532700 0.109600
-1.519000 0.185600
-1.505400 0.284500
-1.491700 0.397800
-1.478100 0.665200
-1.464500 0.647900
-1.450800 0.671500
-1.437200 0.689800
-1.423600 0.743100
-1.409900 0.797900
-1.396300 0.855700
-1.382700 0.899600
-1.369000 0.931300
-1.355400 0.970700
-1.341700 1.007700
-1.328100 1.052300
-1.314500 1.223900
-1.300800 1.266900
-1.287200 1.301500
-1.273600 1.346600
-1.259900 1.403800
-1.246300 1.470700
-1.232700 1.543200
-1.219000 1.614400
-1.205400 1.700600
-1.191800 1.803800
-1.178100 1.942300
-1.164500 2.079200
-1.150800 2.168600
-1.137200 2.290400
-1.123600 2.371100
-1.109900 2.397100
-1.096300 2.440800
-1.082700 2.508700
-1.069000 2.427500
-1.055400 2.216600
-1.041800 2.193600
-1.028100 2.286800
-1.014500 2.242500
-1.000900 2.192300
-0.987200 2.218500
-0.973600 2.263700
-0.959900 2.290900
-0.946300 2.302700
-0.932700 2.333100
-0.919000 2.358000
-0.905400 2.398000
-0.891800 2.415700
-0.878100 2.339500
-0.864500 2.266200
-0.850900 2.202000
-0.837200 2.153900
-0.823600 2.119400
-0.810000 2.100900
-0.796300 2.082600
-0.782700 2.060100
-0.769000 2.035200
-0.755400 2.019500
-0.741800 2.006800
-0.728100 1.996500
-0.714500 1.989800
-0.700900 1.985600
-0.687200 1.976400
-0.673600 1.979600
-0.660000 1.988800
-0.646300 2.001600
-0.632700 2.016700
-0.619100 2.039700
-0.605400 2.050600
-0.591800 2.055000
-0.578100 2.061000
-0.564500 2.077400
-0.550900 2.104100
-0.537200 2.137200
-0.523600 2.167800
-0.510000 2.212800
-0.496300 2.265900
-0.482700 2.334200
-0.469100 2.409700
-0.455400 2.492600
-0.441800 2.549400
-0.428200 2.624800
-0.414500 2.681000
-0.400900 2.693700
-0.387200 2.698200
-0.373600 2.652300
-0.360000 2.639200
-0.346300 2.696300
-0.332700 2.697800
-0.319100 2.724100
-0.305400 2.795500
-0.291800 2.989900
-0.278200 3.175800
-0.264500 3.274700
-0.250900 3.333200
-0.237300 3.341800
-0.223600 3.373200
-0.210000 3.309700
-0.196300 3.308400
-0.182700 3.328600
-0.169100 3.365100
-0.155400 3.427400
-0.141800 3.502900
-0.128200 3.458500
-0.114500 3.433000
-0.100900 3.370800
-0.087300 3.333400
-0.073600 3.280800
-0.060000 3.148200
-0.046400 3.057000
-0.032700 2.878500
-0.019100 2.810900
-0.005400 2.753000
0.008200 2.705600
0.021800 2.663400
0.035500 2.635100
0.049100 2.648700
0.062700 2.670500
0.076400 2.749800
0.090000 2.788700
0.103600 2.822600
0.117300 2.859300
0.130900 2.877600
0.144500 2.839900
0.158200 2.714900
0.171800 2.598600
0.185500 2.489500
0.199100 2.397300
0.212700 2.291500
0.226400 2.177100
0.240000 2.092900
0.253600 2.055500
0.267300 2.039400
0.280900 2.031100
0.294500 2.018000
0.308200 2.002000
0.321800 1.984900
0.335400 1.975900
0.349100 1.926700
0.362700 1.899400
0.376400 1.896000
0.390000 1.901900
0.403600 1.916500
0.417300 1.933500
0.430900 1.948600
0.444500 1.961600
0.458200 1.979600
0.471800 1.999100
0.485400 2.018100
0.499100 2.092300
0.512700 2.096100
0.526400 2.096400
0.540000 2.107200
0.553600 2.121000
0.567300 2.138300
0.580900 2.161400
0.594500 2.185400
0.608200 2.210700
0.621800 2.236500
0.635400 2.261400
0.649100 2.295900
0.662700 2.331800
0.676300 2.365000
0.690000 2.398800
0.703600 2.435200
0.717300 2.487300
0.730900 2.557400
0.744500 2.621100
0.758200 2.666500
0.771800 2.710000
0.785400 2.780200
0.799100 2.867400
0.812700 2.948700
0.826300 2.985600
0.840000 3.008900
0.853600 3.035100
0.867200 3.046200
0.880900 3.048100
0.894500 3.038300
0.908200 3.010500
0.921800 3.038500
0.935400 2.900100
0.949100 2.831800
0.962700 2.764300
0.976300 2.684900
0.990000 2.643100
1.003600 2.613900
1.017200 2.588800
1.030900 2.595700
1.044500 2.646700
1.058100 2.660300
1.071800 2.667500
1.085400 2.673300
1.099100 2.710500
1.112700 2.691800
1.126300 2.683100
1.140000 2.656400
1.153600 2.676700
1.167200 2.711000
1.180900 2.755800
1.194500 2.870800
1.208100 3.026500
1.221800 3.215500
1.235400 3.291900
1.249000 3.179600
1.262700 3.171700
1.276300 3.226400
1.290000 3.261600
1.303600 3.232200
1.317200 3.143400
1.330900 3.023800
1.344500 2.968400
1.358100 2.888600
1.371800 2.761500
1.385400 2.634600
1.399000 2.603000
1.412700 2.472300
1.426300 2.422200
1.439900 2.380200
1.453600 2.350400
1.467200 2.331800
1.480900 2.321400
1.494500 2.312700
1.508100 2.302000
1.521800 2.298700
1.535400 2.292400
1.549000 2.285500
1.562700 2.267800
1.576300 2.265300
1.589900 2.259900
1.603600 2.270900
1.617200 2.305800
1.630800 2.366500
1.644500 2.446900
1.658100 2.514900
1.671800 2.591300
1.685400 2.693100
1.699000 2.761900
1.712700 2.805700
1.726300 2.855900
1.739900 2.879600
1.753600 2.830100
1.767200 2.827200
1.780800 2.835600
1.794500 2.863400
1.808100 2.894300
1.821700 2.952500
1.835400 2.978800
1.849000 3.036500
1.862700 2.850800
1.876300 2.765800
1.889900 2.718300
1.903600 2.699500
1.917200 2.686400
1.930800 2.679700
1.944500 2.682600
1.958100 2.709700
1.971700 2.781700
1.985400 2.880000
1.999000 2.964700
2.012600 3.074200
2.026300 3.300900
2.039900 3.303400
2.053600 3.299000
2.067200 3.275000
2.080800 3.236300
2.094500 3.241700
2.108100 3.263000
2.121700 3.284300
2.135400 3.314700
2.149000 3.357700
2.162600 3.431100
2.176300 3.496100
2.189900 3.577500
2.203600 3.677400
2.217200 3.635400
2.230800 3.604500
2.244500 3.707400
2.258100 4.000700
2.271700 4.211300
2.285400 4.212100
2.299000 3.993200
2.312600 3.968400
2.326300 3.990800
2.339900 3.991100
2.353500 3.993600
2.367200 4.126800
2.380800 4.004700
2.394500 3.673200
2.408100 3.537800
2.421700 3.475600
2.435400 3.411500
2.449000 3.345100
2.462600 3.295300
2.476300 3.284100
2.489900 3.327300
2.503500 3.330600
2.517200 3.094500
2.530800 2.953600
2.544400 2.802600
2.558100 2.749000
2.571700 2.714400
2.585400 2.673400
2.599000 2.611500
2.612600 2.513000
2.626300 2.448300
2.639900 2.404300
2.653500 2.363600
2.667200 2.332400
2.680800 2.320700
2.694400 2.321600
2.708100 2.308200
2.721700 2.265000
2.735300 2.231300
2.749000 2.198100
2.762600 2.165600
2.776300 2.142200
2.789900 2.134100
2.803500 2.118600
2.817200 2.095000
2.830800 2.063700
2.844400 2.032800
2.858100 2.024000
2.871700 2.025800
2.885300 2.039700
2.899000 2.044700
2.912600 2.025600
2.926200 2.046400
2.939900 2.065200
2.953500 1.914600
2.967200 1.975300
2.980800 1.728300
2.994400 1.553700
3.008100 1.410700
3.021700 1.333100
3.035300 1.277600
3.049000 1.226100
3.062600 1.183500
3.076200 1.159700
3.089900 1.177600
3.103500 1.029700
3.117100 1.001800
3.130800 0.997100
3.144400 0.993100
3.158100 0.990800
3.171700 0.991400
3.185300 0.990500
3.199000 0.989500
3.212600 0.989400
3.226200 1.028400
3.239900 1.015900
3.253500 1.004000
3.267100 1.002600
3.280800 1.028700
3.294400 1.128500
3.308000 1.120900
3.321700 1.114600
3.335300 1.061300
3.349000 0.983900
3.362600 0.951100
3.376200 0.985500
3.389900 1.199500
3.403500 0.790500
3.417100 0.761800
3.430800 0.731300
3.444400 0.705400
3.458000 0.682200
3.471700 0.658900
3.485300 0.635500
3.498900 0.612400
3.512600 0.592800
3.526200 0.577300
3.539900 0.564800
3.553500 0.552200
3.567100 0.534000
3.580800 0.487500
3.594400 0.396000
3.608000 0.300300
3.621700 0.244900
3.635300 0.216700
3.648900 0.196500
3.662600 0.177800
3.676200 0.161000
3.689800 0.154700
3.703500 0.143700
3.717100 0.132000
3.730800 0.120400
3.744400 0.108900
3.758000 0.097700
3.771700 0.087200
3.785300 0.077200
3.798900 0.067600
3.812600 0.058500
3.826200 0.049700
3.839800 0.039500
3.853500 0.027200
3.867100 0.013600
3.880800 0.002200
3.894400 0.000000
3.908000 0.000000
3.921700 0.000000
3.935300 0.000800
3.948900 0.003600
3.962600 0.006800
3.976200 0.010400
3.989800 0.014300
4.003500 0.018700
4.017100 0.023400
4.030700 0.028500
4.044400 0.034000
4.058000 0.039900
4.071700 0.046900
4.085300 0.055300
4.098900 0.065500
4.112600 0.077700
4.126200 0.086900
4.139800 0.092600
4.153500 0.098600
4.167100 0.105000
4.180700 0.111700
4.194400 0.117600
4.208000 0.121100
4.221600 0.127600
4.235300 0.146300
4.248900 0.184700
4.262600 0.229100
4.276200 0.281400
4.289800 0.343000
4.303500 0.425300
4.317100 0.534800
4.330700 0.671100
4.344400 0.825100
4.358000 0.982600
4.371600 1.130600
4.385300 1.342900
4.398900 1.363300
4.412500 1.213400
4.426200 1.198300
4.439800 1.161000
4.453500 1.036500
4.467100 0.990200
4.480700 0.966700
4.494400 0.965800
4.508000 0.973100
4.521600 0.984500
4.535300 0.998000
4.548900 1.019800
4.562500 1.046100
4.576200 1.075500
4.589800 1.114800
4.603400 1.152000
4.617100 1.186800
4.630700 1.229200
4.644400 1.271900
4.658000 1.308700
4.671600 1.344900
4.685300 1.392900
4.698900 1.403700
4.712500 1.378900
4.726200 1.389900
4.739800 1.415300
4.753400 1.446900
4.767100 1.456500
4.780700 1.497900
4.794300 1.566700
4.808000 1.638400
4.821600 1.696600
4.835300 1.703300
4.848900 1.762800
4.862500 1.796400
4.876200 1.835300
4.889800 1.897200
4.903400 1.918600
4.917100 1.906600
4.930700 1.884800
4.944300 1.839400
4.958000 1.826700
4.971600 1.843400
4.985200 1.858900
4.998900 1.871700
5.012500 1.883000
5.026200 1.886300
5.039800 1.899900
5.053400 1.959300
5.067100 2.062600
5.080700 2.083000
5.094300 2.044000
5.108000 2.055200
5.121600 2.064200
5.135200 2.083500
5.148900 2.123000
5.162500 2.166000
5.176100 2.208500
5.189800 2.246400
5.203400 2.281800
5.217100 2.317200
5.230700 2.350100
5.244300 2.413500
5.258000 2.463000
5.271600 2.463400
5.285200 2.499900
5.298900 2.563100
5.312500 2.579400
5.326100 2.610900
5.339800 2.626400
5.353400 2.653400
5.367000 2.737500
5.380700 2.767900
5.394300 2.793700
5.408000 2.828300
5.421600 2.853300
5.435200 2.872400
5.448900 2.891400
5.462500 2.896900
5.476100 2.884400
5.489800 2.833000
5.503400 2.762600
5.517000 2.680700
5.530700 2.609400
5.544300 2.612700
5.557900 2.575600
5.571600 2.586900
5.585200 2.610900
5.598900 2.614500
5.612500 2.624900
5.626100 2.659300
5.639800 2.718100
5.653400 2.793700
5.667000 2.887300
5.680700 2.959100
5.694300 3.006300
5.707900 3.030300
5.721600 3.032300
5.735200 3.038500
5.748900 3.047800
5.762500 3.060100
5.776100 3.082800
5.789800 3.094400
5.803400 3.077100
5.817000 3.060800
5.830700 3.038400
5.844300 3.039300
5.857900 3.068800
5.871600 3.141700
5.885200 3.259400
5.898800 3.299400
5.912500 3.341200
5.926100 3.420100
5.939800 3.422200
5.953400 3.510500
5.967000 3.457300
5.980700 3.496000
5.994300 3.645000
6.007900 3.721200
6.021600 3.636200
6.035200 3.663900
6.048800 3.625000
6.062500 3.522400
6.076100 3.414000
6.089700 3.285200
6.103400 3.280500
6.117000 3.303000
6.130700 3.353900
6.144300 3.382900
6.157900 3.380600
6.171600 3.415500
6.185200 3.478300
6.198800 3.574800
6.212500 3.649200
6.226100 3.570700
6.239700 3.558000
6.253400 3.711600
6.267000 4.023600
6.280600 4.002300
6.294300 3.911100
6.307900 3.773700
6.321600 3.704800
6.335200 3.689200
6.348800 3.651000
6.362500 3.625200
6.376100 3.569600
6.389700 3.530000
6.403400 3.539300
6.417000 3.564000
6.430600 3.587300
6.444300 3.592000
6.457900 3.590300
6.471500 3.584000
6.485200 3.599400
6.498800 3.610700
6.512500 3.615500
6.526100 3.640200
6.539700 3.673800
6.553400 3.702100
6.567000 3.740200
6.580600 3.777400
6.594300 3.784000
6.607900 3.787800
6.621500 3.826600
6.635200 3.935300
6.648800 3.776400
6.662400 3.788100
6.676100 3.775800
6.689700 3.729400
6.703400 3.690700
6.717000 3.642100
6.730600 3.569200
6.744300 3.491400
6.757900 3.429600
6.771500 3.391600
6.785200 3.347300
6.798800 3.287800
6.812400 3.238200
6.826100 3.214000
6.839700 3.206400
6.853300 3.205200
6.867000 3.163900
6.880600 3.117900
6.894300 3.195100
6.907900 3.339700
6.921500 3.381400
6.935200 3.161400
6.948800 3.013400
6.962400 2.952500
6.976100 2.888600
6.989700 2.851500
7.003300 2.822700
7.017000 2.813700
7.030600 2.817300
7.044200 2.823200
7.057900 2.835800
7.071500 2.857300
7.085200 2.852000
7.098800 2.786800
7.112400 2.719200
7.126100 2.673500
7.139700 2.654300
7.153300 2.622200
7.167000 2.637900
7.180600 2.706200
7.194200 2.824000
7.207900 2.735900
7.221500 2.700900
7.235100 2.664900
7.248800 2.602800
7.262400 2.588400
7.276100 2.577100
7.289700 2.573500
7.303300 2.569000
7.317000 2.566500
7.330600 2.552100
7.344200 2.528700
7.357900 2.500800
7.371500 2.485800
7.385100 2.560900
7.398800 2.521000
7.412400 2.531100
7.426100 2.564800
7.439700 2.598800
7.453300 2.628100
7.467000 2.639800
7.480600 2.646900
7.494200 2.660200
7.507900 2.666100
7.521500 2.676600
7.535100 2.701500
7.548800 2.748300
7.562400 2.815900
7.576000 2.859900
7.589700 2.881700
7.603300 2.887000
7.617000 3.055100
7.630600 3.062300
7.644200 2.987500
7.657900 3.014400
7.671500 3.038100
7.685100 3.040200
7.698800 3.017000
7.712400 3.005500
7.726000 3.012800
7.739700 3.027600
7.753300 3.048700
7.766900 3.083800
7.780600 3.104200
7.794200 2.995900
7.807900 2.923100
7.821500 2.838800
7.835100 2.781400
7.848800 2.713300
7.862400 2.625000
7.876000 2.559000
7.889700 2.762400
7.903300 2.679200
7.916900 2.549200
7.930600 2.496200
7.944200 2.571100
7.957800 2.310900
7.971500 2.172000
7.985100 2.042100
7.998800 2.035300
8.012400 2.032200
8.026000 2.024500
8.039700 1.993000
8.053300 1.965400
8.066900 1.932600
8.080600 1.903800
8.094200 1.899300
8.107800 1.899200
8.121500 1.891600
8.135100 1.882000
8.148700 1.876400
8.162400 1.871500
8.176000 1.872200
8.189700 1.876400
8.203300 1.879400
8.216900 1.884200
8.230600 1.892200
8.244200 1.911900
8.257800 2.011600
8.271500 1.976300
8.285100 1.835200
8.298700 1.812200
8.312400 1.808500
8.326000 1.819500
8.339600 1.850600
8.353300 1.933700
8.366900 2.041000
8.380600 2.232900
8.394200 2.047700
8.407800 1.978300
8.421500 1.890300
8.435100 1.837200
8.448700 1.793200
8.462400 1.781300
8.476000 1.763200
8.489600 1.741200
8.503300 1.726700
8.516900 1.710300
8.530500 1.689500
8.544200 1.665100
8.557800 1.639400
8.571500 1.606000
8.585100 1.565800
8.598700 1.526900
8.612400 1.489800
8.626000 1.457500
8.639600 1.425500
8.653300 1.396000
8.666900 1.369700
8.680500 1.345400
8.694200 1.322800
8.707800 1.302800
8.721400 1.284400
8.735100 1.267600
8.748700 1.252400
8.762400 1.241200
8.776000 1.232100
8.789600 1.225600
8.803300 1.218700
8.816900 1.197500
8.830500 1.181300
8.844200 1.168500
8.857800 1.154500
8.871400 1.141300
8.885100 1.125900
8.898700 1.110100
8.912300 1.098700
8.926000 1.143600
8.939600 1.143000
8.953300 1.176600
8.966900 1.082100
8.980500 1.004900
8.994200 0.931100
9.007800 0.905200
9.021400 0.888300
9.035100 0.869800
9.048700 0.847900
9.062300 0.824700
9.076000 0.802000
9.089600 0.784500
9.103200 0.767400
9.116900 0.750500
9.130500 0.739100
9.144200 0.733200
9.157800 0.739300
9.171400 0.752900
9.185100 0.768000
9.198700 0.779200
9.212300 0.787700
9.226000 0.795100
9.239600 0.800600
9.253200 0.802900
9.266900 0.801600
9.280500 0.790300
9.294200 0.767900
9.307800 0.754400
9.321400 0.745900
9.335100 0.738700
9.348700 0.732400
9.362300 0.726600
9.376000 0.723100
9.389600 0.733200
9.403200 0.718900
9.416900 0.692600
9.430500 0.636400
9.444100 0.594900
9.457800 0.569700
9.471400 0.585000
9.485100 0.654500
9.498700 0.640600
9.512300 0.636800
9.526000 0.673800
9.539600 0.749300
9.553200 0.838100
9.566900 0.942500
9.580500 1.022800
9.594100 1.060100
9.607800 0.994200
9.621400 1.012000
9.635000 1.009000
9.648700 1.060800
9.662300 1.074100
9.676000 0.988500
9.689600 0.920400
9.703200 0.893000
9.716900 0.872200
9.730500 0.850400
9.744100 0.846900
9.757800 0.855500
9.771400 0.921500
9.785000 1.049500
9.798700 1.076500
9.812300 1.073200
9.825900 1.080900
9.839600 1.088400
9.853200 1.111400
9.866900 1.149500
9.880500 1.208500
9.894100 1.286500
9.907800 1.355700
9.921400 1.410100
9.935000 1.642300
9.948700 1.530700
9.962300 1.612100
9.975900 1.501300
9.989600 1.449500
10.003200 1.466100
10.016800 1.481900
10.030500 1.498500
10.044100 1.515400
10.057800 1.531800
10.071400 1.541600
10.085000 1.547800
10.098700 1.554100
10.112300 1.562100
10.125900 1.573100
10.139600 1.589900
10.153200 1.610300
10.166800 1.628200
10.180500 1.649900
10.194100 1.676200
10.207700 1.694000
10.221400 1.701800
10.235000 1.729700
10.248700 1.773300
10.262300 1.826400
10.275900 1.887400
10.289600 1.956500
10.303200 2.025500
10.316800 2.101800
10.330500 2.184800
10.344100 2.278900
10.357700 2.358900
10.371400 2.457900
10.385000 2.561500
10.398600 2.654300
10.412300 2.744800
10.425900 2.847600
10.439600 2.939900
10.453200 3.050700
10.466800 3.133100
10.480500 3.181900
10.494100 3.176900
10.507700 3.191900
10.521400 3.160500
10.535000 3.076400
10.548600 3.025600
10.562300 2.948800
10.575900 2.890100
10.589500 2.821300
10.603200 2.758300
10.616800 2.702900
10.630500 2.656100
10.644100 2.621900
10.657700 2.587100
10.671400 2.580900
10.685000 2.604600
10.698600 2.584900
10.712300 2.553900
10.725900 2.538300
10.739500 2.532900
10.753200 2.534300
10.766800 2.539100
10.780400 2.529700
10.794100 2.543800
10.807700 2.569200
10.821400 2.612400
10.835000 2.664400
10.848600 2.730700
10.862300 2.799000
10.875900 2.867600
10.889500 2.936400
10.903200 3.069100
10.916800 3.104900
10.930400 3.060300
10.944100 3.054600
10.957700 3.090500
10.971400 3.132500
10.985000 3.151400
10.998600 3.101000
11.012300 3.040300
11.025900 3.014900
11.039500 2.976400
11.053200 2.916500
11.066800 2.901300
11.080400 2.916100
11.094100 2.923200
11.107700 2.882000
11.121300 2.858000
11.135000 2.759500
11.148600 2.684100
11.162300 2.654300
11.175900 2.673600
11.189500 2.694000
11.203200 2.706800
11.216800 2.722900
11.230400 2.723800
11.244100 2.655400
11.257700 2.592400
11.271300 2.553100
11.285000 2.516200
11.298600 2.493500
11.312200 2.487100
11.325900 2.478600
11.339500 2.517500
11.353200 2.454700
11.366800 2.445500
11.380400 2.483500
11.394100 2.517700
11.407700 2.538600
11.421300 2.559600
11.435000 2.528300
11.448600 2.488500
11.462200 2.517400
11.475900 2.524200
11.489500 2.510300
11.503100 2.558800
11.516800 2.465200
11.530400 2.413300
11.544100 2.382700
11.557700 2.355700
11.571300 2.334300
11.585000 2.315400
11.598600 2.297000
11.612200 2.274300
11.625900 2.248000
11.639500 2.240200
11.653100 2.233800
11.666800 2.218900
11.680400 2.267800
11.694000 2.388400
11.707700 2.453600
11.721300 2.485100
11.735000 2.493200
11.748600 2.478800
11.762200 2.407700
11.775900 2.355200
11.789500 2.331800
11.803100 2.281800
11.816800 2.246400
11.830400 2.214200
11.844000 2.209800
11.857700 2.201500
11.871300 2.188200
11.884900 2.177100
11.898600 2.177800
11.912200 2.215100
11.925900 2.232300
11.939500 2.237900
11.953100 2.285700
11.966800 2.316800
11.980400 2.318400
11.994000 2.332400
12.007700 2.309300
12.021300 2.237200
12.034900 2.203500
12.048600 2.154700
12.062200 2.156800
12.075800 2.183400
12.089500 2.227400
12.103100 2.279700
12.116800 2.319500
12.130400 2.346100
12.144000 2.385700
12.157700 2.432800
12.171300 2.482800
12.184900 2.563400
12.198600 2.552400
12.212200 2.565200
12.225800 2.580700
12.239500 2.608600
12.253100 2.639500
12.266700 2.636300
12.280400 2.624800
12.294000 2.635100
12.307700 2.650400
12.321300 2.640700
12.334900 2.633500
12.348600 2.689100
12.362200 2.665500
12.375800 2.624400
12.389500 2.587600
12.403100 2.570300
12.416700 2.578600
12.430400 2.579700
12.444000 2.575000
12.457600 2.563200
12.471300 2.566200
12.484900 2.561900
12.498600 2.541500
12.512200 2.510600
12.525800 2.483700
12.539500 2.448400
12.553100 2.435300
12.566700 2.367700
12.580400 2.332100
12.594000 2.287300
12.607600 2.242100
12.621300 2.203400
12.634900 2.160500
12.648500 2.126600
12.662200 2.114700
12.675800 2.117600
12.689500 2.058000
12.703100 2.040600
12.716700 2.024100
12.730400 1.991200
12.744000 1.928100
12.757600 1.848600
12.771300 1.775700
12.784900 1.751400
12.798500 1.742100
12.812200 1.670000
12.825800 1.617700
12.839500 1.545200
12.853100 1.467500
12.866700 1.393600
12.880400 1.315700
12.894000 1.243800
12.907600 1.181400
12.921300 1.135000
12.934900 1.091700
12.948500 1.047800
12.962200 1.013900
12.975800 0.985600
12.989400 0.954200
13.003100 0.935200
13.016700 0.923100
13.030400 0.941500
13.044000 0.963600
13.057600 0.899500
13.071300 0.842800
13.084900 0.802700
13.098500 0.767800
13.112200 0.732400
13.125800 0.698500
13.139400 0.662800
13.153100 0.628400
13.166700 0.599400
13.180300 0.577000
13.194000 0.559500
13.207600 0.594900
13.221300 0.550500
13.234900 0.549500
13.248500 0.546200
13.262200 0.539800
13.275800 0.532700
13.289400 0.524700
13.303100 0.516200
13.316700 0.507100
13.330300 0.497600
13.344000 0.488400
13.357600 0.479800
13.371200 0.473700
13.384900 0.464600
13.398500 0.456900
13.412200 0.450700
13.425800 0.445600
13.439400 0.439100
13.453100 0.425600
13.466700 0.412800
13.480300 0.414000
13.494000 0.414800
13.507600 0.415100
13.521200 0.414400
13.534900 0.412400
13.548500 0.409300
13.562100 0.405800
13.575800 0.406200
13.589400 0.409100
13.603100 0.411000
13.616700 0.413700
13.630300 0.419700
13.644000 0.428000
13.657600 0.434800
13.671200 0.438400
13.684900 0.438700
13.698500 0.435200
13.712100 0.428400
13.725800 0.420800
13.739400 0.413100
13.753000 0.403200
13.766700 0.390100
13.780300 0.373300
13.794000 0.350400
13.807600 0.323300
13.821200 0.293200
13.834900 0.265400
13.848500 0.244100
13.862100 0.230600
13.875800 0.220200
13.889400 0.208800
13.903000 0.197400
13.916700 0.186600
13.930300 0.177000
13.943900 0.169400
13.957600 0.162500
13.971200 0.156300
13.984900 0.150200
13.998500 0.144300
14.012100 0.138500
14.025800 0.132900
14.039400 0.127500
14.053000 0.122200
14.066700 0.117100
14.080300 0.112100
14.093900 0.107300
14.107600 0.102900
14.121200 0.100000
14.134800 0.097400
14.148500 0.093400
14.162100 0.085600
14.175800 0.069500
14.189400 0.053600
14.203000 0.038600
14.216700 0.026600
14.230300 0.018000
14.243900 0.012800
14.257600 0.010000
14.271200 0.007600
14.284800 0.005600
14.298500 0.003800
14.312100 0.002400
14.325700 0.001400
14.339400 0.000700
14.353000 0.000300
14.366700 0.000100
14.380300 0.000000
14.393900 0.000000
14.407600 0.000000
14.421200 0.000000
14.434800 0.000000
14.448500 0.000000
14.462100 0.000000
14.475700 0.000000
14.489400 0.000000
14.503000 0.000000
14.516700 0.000000
14.530300 0.000000
14.543900 0.000000
14.557600 0.000000
14.571200 0.000000
14.584800 0.000000
14.598500 0.000000
14.612100 0.000000
14.625700 0.000000
14.639400 0.000000
14.653000 0.000000
14.666600 0.000000
14.680300 0.000000
14.693900 0.000000
14.707600 0.000000
14.721200 0.000000
14.734800 0.000000
14.748500 0.000000
14.762100 0.000000
14.775700 0.000000
14.789400 0.000000
14.803000 0.000000
14.816600 0.000000
14.830300 0.000000
14.843900 0.000000
14.857500 0.000000
14.871200 0.000000
14.884800 0.000000
14.898500 0.000000
14.912100 0.000000
14.925700 0.000000
14.939400 0.000000
14.953000 0.000000
14.966600 0.000000
14.980300 0.000000
14.993900 0.000000
15.007500 0.000000
15.021200 0.000000
15.034800 0.000000
15.048400 0.000000
15.062100 0.000000
15.075700 0.000000
15.089400 0.000000
15.103000 0.000000
15.116600 0.000000
15.130300 0.000000
15.143900 0.000000
15.157500 0.000000
15.171200 0.000000
15.184800 0.000000
15.198400 0.000000
15.212100 0.000000
15.225700 0.000000
15.239300 0.000000
15.253000 0.000000
15.266600 0.000000
15.280300 0.000000
15.293900 0.000000
15.307500 0.000000
15.321200 0.000000
15.334800 0.000000
15.348400 0.000000
15.362100 0.000000
15.375700 0.000000
15.389300 0.000000
15.403000 0.000000
15.416600 0.000000
15.430200 0.000000
15.443900 0.000000
15.457500 0.000000
15.471200 0.000000
15.484800 0.000000
15.498400 0.000000
15.512100 0.000000
15.525700 0.000000
15.539300 0.000000
15.553000 0.000000
15.566600 0.000000
15.580200 0.000000
15.593900 0.000000
15.607500 0.000000
15.621100 0.000000
e
