set title 'mp-1184784 - Density of States'
set xlabel 'Energy (eV)'
set ylabel 'DOS (states/eV)'
set grid
set xrange [-10:10]
set yrange [0:7.051]
set xzeroaxis lt -1
set terminal png size 800,600
set output 'mp-1184784_dos_gnuplot.png'
plot '-' using 1:2 with lines title 'DOS'
-3.197500 0.000000
-3.180300 0.000000
-3.163100 0.000000
-3.145900 0.000000
-3.128800 0.000000
-3.111600 0.000000
-3.094400 0.000000
-3.077300 0.000000
-3.060100 0.000000
-3.042900 0.000000
-3.025700 0.000000
-3.008600 0.000000
-2.991400 0.000000
-2.974200 0.000000
-2.957100 0.000000
-2.939900 0.000000
-2.922700 0.000000
-2.905600 0.000000
-2.888400 0.000000
-2.871200 0.000000
-2.854000 0.000000
-2.836900 0.000000
-2.819700 0.000000
-2.802500 0.000000
-2.785400 0.000000
-2.768200 0.000000
-2.751000 0.000000
-2.733800 0.000000
-2.716700 0.000000
-2.699500 0.000000
-2.682300 0.000000
-2.665200 0.000000
-2.648000 0.000000
-2.630800 0.000000
-2.613700 0.000000
-2.596500 0.000000
-2.579300 0.000000
-2.562100 0.000000
-2.545000 0.000000
-2.527800 0.000000
-2.510600 0.000000
-2.493500 0.000000
-2.476300 0.000000
-2.459100 0.000000
-2.442000 0.000000
-2.424800 0.000000
-2.407600 0.000000
-2.390400 0.000000
-2.373300 0.000000
-2.356100 0.000000
-2.338900 0.000000
-2.321800 0.000000
-2.304600 0.000000
-2.287400 0.000000
-2.270200 0.000000
-2.253100 0.000000
-2.235900 0.000000
-2.218700 0.000000
-2.201600 0.000000
-2.184400 0.000000
-2.167200 0.000000
-2.150100 0.000000
-2.132900 0.000000
-2.115700 0.000000
-2.098500 0.000000
-2.081400 0.000000
-2.064200 0.000000
-2.047000 0.000000
-2.029900 0.000000
-2.012700 0.000000
-1.995500 0.000000
-1.978300 0.000000
-1.961200 0.000000
-1.944000 0.000000
-1.926800 0.000000
-1.909700 0.000000
-1.892500 0.000000
-1.875300 0.000000
-1.858200 0.000000
-1.841000 0.000000
-1.823800 0.000000
-1.806600 0.000000
-1.789500 0.000000
-1.772300 0.000000
-1.755100 0.000000
-1.738000 0.000100
-1.720800 0.000400
-1.703600 0.001400
-1.686500 0.003400
-1.669300 0.007000
-1.652100 0.011600
-1.634900 0.016400
-1.617800 0.021000
-1.600600 0.025500
-1.583400 0.029700
-1.566300 0.033100
-1.549100 0.037400
-1.531900 0.047300
-1.514700 0.066700
-1.497600 0.091800
-1.480400 0.110100
-1.463200 0.109500
-1.446100 0.088600
-1.428900 0.058200
-1.411700 0.031600
-1.394600 0.016600
-1.377400 0.015600
-1.360200 0.028800
-1.343000 0.055300
-1.325900 0.089400
-1.308700 0.120800
-1.291500 0.141300
-1.274400 0.149500
-1.257200 0.148400
-1.240000 0.141000
-1.222800 0.133700
-1.205700 0.136200
-1.188500 0.151900
-1.171300 0.168200
-1.154200 0.165500
-1.137000 0.136400
-1.119800 0.092200
-1.102700 0.052200
-1.085500 0.029500
-1.068300 0.028100
-1.051100 0.046500
-1.034000 0.079500
-1.016800 0.117700
-0.999600 0.150500
-0.982500 0.171600
-0.965300 0.180300
-0.948100 0.180500
-0.930900 0.182000
-0.913800 0.198800
-0.896600 0.236600
-0.879400 0.279500
-0.862300 0.296700
-0.845100 0.267700
-0.827900 0.201400
-0.810800 0.128300
-0.793600 0.077900
-0.776400 0.062700
-0.759200 0.077800
-0.742100 0.109300
-0.724900 0.143600
-0.707700 0.177700
-0.690600 0.220100
-0.673400 0.278200
-0.656200 0.340400
-0.639100 0.375900
-0.621900 0.357100
-0.604700 0.284900
-0.587500 0.192300
-0.570400 0.122300
-0.553200 0.103900
-0.536000 0.142300
-0.518900 0.218200
-0.501700 0.293100
-0.484500 0.328500
-0.467300 0.312100
-0.450200 0.266400
-0.433000 0.229600
-0.415800 0.231800
-0.398700 0.285100
-0.381500 0.384000
-0.364300 0.505900
-0.347200 0.618000
-0.330000 0.693400
-0.312800 0.726500
-0.295600 0.732200
-0.278500 0.733100
-0.261300 0.748400
-0.244100 0.789000
-0.227000 0.857100
-0.209800 0.947300
-0.192600 1.048600
-0.175400 1.152300
-0.158300 1.266800
-0.141100 1.419800
-0.123900 1.624900
-0.106800 1.836400
-0.089600 1.962400
-0.072400 1.948400
-0.055300 1.837900
-0.038100 1.740800
-0.020900 1.748900
-0.003700 1.878600
0.013400 2.068200
0.030600 2.223200
0.047800 2.276100
0.064900 2.222600
0.082100 2.108800
0.099300 1.986800
0.116400 1.883400
0.133600 1.808700
0.150800 1.785600
0.168000 1.852900
0.185100 2.030100
0.202300 2.278200
0.219500 2.499700
0.236600 2.593500
0.253800 2.535800
0.271000 2.412400
0.288200 2.357100
0.305300 2.441500
0.322500 2.616200
0.339700 2.757500
0.356800 2.779100
0.374000 2.706100
0.391200 2.633700
0.408300 2.619300
0.425500 2.635500
0.442700 2.634600
0.459900 2.636700
0.477000 2.729400
0.494200 2.976000
0.511400 3.340400
0.528500 3.711700
0.545700 3.992800
0.562900 4.161900
0.580100 4.261000
0.597200 4.339900
0.614400 4.412700
0.631600 4.468100
0.648700 4.506000
0.665900 4.536800
0.683100 4.558800
0.700200 4.585600
0.717400 4.685100
0.734600 4.925000
0.751800 5.263200
0.768900 5.537100
0.786100 5.588200
0.803300 5.390400
0.820400 5.052000
0.837600 4.715500
0.854800 4.474300
0.872000 4.363900
0.889100 4.378200
0.906300 4.471500
0.923500 4.567100
0.940600 4.592000
0.957800 4.520400
0.975000 4.386900
0.992100 4.249800
1.009300 4.137100
1.026500 4.033500
1.043700 3.911900
1.060800 3.764600
1.078000 3.601000
1.095200 3.430900
1.112300 3.258100
1.129500 3.085400
1.146700 2.919500
1.163800 2.781000
1.181000 2.708800
1.198200 2.737000
1.215400 2.857200
1.232500 3.012600
1.249700 3.129900
1.266900 3.162700
1.284000 3.128200
1.301200 3.107100
1.318400 3.175800
1.335600 3.325900
1.352700 3.467800
1.369900 3.512000
1.387100 3.433900
1.404200 3.279600
1.421400 3.134700
1.438600 3.074800
1.455700 3.120700
1.472900 3.236500
1.490100 3.362100
1.507300 3.438800
1.524400 3.427700
1.541600 3.343600
1.558800 3.258000
1.575900 3.234600
1.593100 3.267400
1.610300 3.306600
1.627500 3.325200
1.644600 3.332200
1.661800 3.341000
1.679000 3.360800
1.696100 3.410500
1.713300 3.506400
1.730500 3.623000
1.747600 3.691400
1.764800 3.662200
1.782000 3.564700
1.799200 3.491500
1.816300 3.522300
1.833500 3.651300
1.850700 3.782800
1.867800 3.806300
1.885000 3.688100
1.902200 3.488700
1.919300 3.298400
1.936500 3.168900
1.953700 3.098200
1.970900 3.069700
1.988000 3.098000
2.005200 3.221100
2.022400 3.433400
2.039500 3.644700
2.056700 3.735200
2.073900 3.659600
2.091100 3.490700
2.108200 3.349900
2.125400 3.292000
2.142600 3.265900
2.159700 3.193700
2.176900 3.069800
2.194100 2.966600
2.211200 2.951800
2.228400 3.022900
2.245600 3.127700
2.262800 3.237200
2.279900 3.378900
2.297100 3.594200
2.314300 3.876600
2.331400 4.172800
2.348600 4.437900
2.365800 4.665700
2.383000 4.864200
2.400100 5.027400
2.417300 5.141900
2.434500 5.209700
2.451600 5.263600
2.468800 5.350600
2.486000 5.488400
2.503100 5.641100
2.520300 5.756500
2.537500 5.827400
2.554700 5.902300
2.571800 6.027200
2.589000 6.189400
2.606200 6.331700
2.623300 6.409900
2.640500 6.401500
2.657700 6.270000
2.674900 5.975600
2.692000 5.536200
2.709200 5.053000
2.726400 4.657100
2.743500 4.420300
2.760700 4.303300
2.777900 4.190300
2.795000 3.990500
2.812200 3.704500
2.829400 3.405000
2.846600 3.176900
2.863700 3.070000
2.880900 3.064400
2.898100 3.072100
2.915200 3.004300
2.932400 2.853100
2.949600 2.698200
2.966700 2.630800
2.983900 2.681200
3.001100 2.815600
3.018300 2.980500
3.035400 3.138000
3.052600 3.268900
3.069800 3.358200
3.086900 3.386700
3.104100 3.351200
3.121300 3.296300
3.138500 3.304600
3.155600 3.427800
3.172800 3.633400
3.190000 3.829300
3.207100 3.935500
3.224300 3.924800
3.241500 3.810900
3.258600 3.631100
3.275800 3.446900
3.293000 3.337800
3.310200 3.373100
3.327300 3.579700
3.344500 3.921000
3.361700 4.302400
3.378800 4.630100
3.396000 4.878000
3.413200 5.067200
3.430400 5.178000
3.447500 5.134800
3.464700 4.897300
3.481900 4.526900
3.499000 4.142100
3.516200 3.839500
3.533400 3.670300
3.550500 3.652200
3.567700 3.757900
3.584900 3.889600
3.602100 3.909200
3.619200 3.732600
3.636400 3.403200
3.653600 3.058400
3.670700 2.818000
3.687900 2.714300
3.705100 2.715600
3.722200 2.781800
3.739400 2.881600
3.756600 2.987300
3.773800 3.085300
3.790900 3.189900
3.808100 3.310800
3.825300 3.396300
3.842400 3.343100
3.859600 3.098800
3.876800 2.747600
3.894000 2.470200
3.911100 2.410600
3.928300 2.571700
3.945500 2.816700
3.962600 2.965300
3.979800 2.916600
3.997000 2.710200
4.014100 2.472400
4.031300 2.300000
4.048500 2.200400
4.065700 2.138700
4.082800 2.109100
4.100000 2.137100
4.117200 2.227200
4.134300 2.341400
4.151500 2.433000
4.168700 2.486100
4.185900 2.517800
4.203000 2.553500
4.220200 2.603900
4.237400 2.657100
4.254500 2.689000
4.271700 2.685500
4.288900 2.649100
4.306000 2.592400
4.323200 2.534000
4.340400 2.501300
4.357600 2.519500
4.374700 2.598700
4.391900 2.736000
4.409100 2.919300
4.426200 3.109300
4.443400 3.236000
4.460600 3.245300
4.477800 3.150200
4.494900 3.013400
4.512100 2.887200
4.529300 2.785900
4.546400 2.702900
4.563600 2.629100
4.580800 2.562800
4.597900 2.516900
4.615100 2.514700
4.632300 2.573700
4.649500 2.701900
4.666600 2.900800
4.683800 3.154200
4.701000 3.411600
4.718100 3.605100
4.735300 3.689500
4.752500 3.665300
4.769600 3.565400
4.786800 3.433900
4.804000 3.313400
4.821200 3.237900
4.838300 3.223800
4.855500 3.265800
4.872700 3.339700
4.889800 3.399500
4.907000 3.377700
4.924200 3.220900
4.941400 2.949600
4.958500 2.663400
4.975700 2.463300
4.992900 2.372500
5.010000 2.334700
5.027200 2.275900
5.044400 2.160700
5.061500 2.007000
5.078700 1.863200
5.095900 1.770400
5.113100 1.731700
5.130200 1.712500
5.147400 1.680700
5.164600 1.652500
5.181700 1.692700
5.198900 1.863600
5.216100 2.170800
5.233300 2.552800
5.250400 2.914900
5.267600 3.177300
5.284800 3.301200
5.301900 3.287000
5.319100 3.160400
5.336300 2.969000
5.353400 2.781500
5.370600 2.669900
5.387800 2.671900
5.405000 2.765900
5.422100 2.883400
5.439300 2.955200
5.456500 2.961300
5.473600 2.945400
5.490800 2.971100
5.508000 3.056800
5.525100 3.167000
5.542300 3.265700
5.559500 3.352400
5.576700 3.444400
5.593800 3.556100
5.611000 3.696900
5.628200 3.857900
5.645300 3.992300
5.662500 4.039400
5.679700 3.983100
5.696900 3.874600
5.714000 3.783500
5.731200 3.727900
5.748400 3.668400
5.765500 3.574200
5.782700 3.472700
5.799900 3.404900
5.817000 3.346300
5.834200 3.215300
5.851400 2.971700
5.868600 2.670700
5.885700 2.401300
5.902900 2.194400
5.920100 2.008800
5.937200 1.794700
5.954400 1.550100
5.971600 1.320200
5.988800 1.154600
6.005900 1.069000
6.023100 1.032900
6.040300 0.988200
6.057400 0.893100
6.074600 0.762600
6.091800 0.660900
6.108900 0.645800
6.126100 0.718700
6.143300 0.822500
6.160500 0.881100
6.177600 0.851700
6.194800 0.756600
6.212000 0.667200
6.229100 0.645800
6.246300 0.699400
6.263500 0.786700
6.280700 0.858900
6.297800 0.889100
6.315000 0.879400
6.332200 0.852200
6.349300 0.829900
6.366500 0.814500
6.383700 0.781100
6.400800 0.699500
6.418000 0.567100
6.435200 0.420500
6.452400 0.310300
6.469500 0.265100
6.486700 0.281500
6.503900 0.337700
6.521000 0.408800
6.538200 0.472100
6.555400 0.511000
6.572500 0.525700
6.589700 0.538300
6.606900 0.572100
6.624100 0.619700
6.641200 0.644300
6.658400 0.624700
6.675600 0.585500
6.692700 0.567000
6.709900 0.574700
6.727100 0.574600
6.744300 0.537500
6.761400 0.472900
6.778600 0.413500
6.795800 0.377900
6.812900 0.358600
6.830100 0.342900
6.847300 0.332400
6.864400 0.340500
6.881600 0.377600
6.898800 0.439800
6.916000 0.506200
6.933100 0.550100
6.950300 0.561200
6.967500 0.554800
6.984600 0.553800
7.001800 0.564900
7.019000 0.581300
7.036200 0.598300
7.053300 0.611900
7.070500 0.606200
7.087700 0.563200
7.104800 0.488500
7.122000 0.414300
7.139200 0.370400
7.156300 0.360700
7.173500 0.372700
7.190700 0.400000
7.207900 0.445400
7.225000 0.505800
7.242200 0.559200
7.259400 0.574300
7.276500 0.534100
7.293700 0.450700
7.310900 0.357600
7.328000 0.287400
7.345200 0.255500
7.362400 0.260000
7.379600 0.290100
7.396700 0.334400
7.413900 0.383200
7.431100 0.426000
7.448200 0.454400
7.465400 0.468100
7.482600 0.475900
7.499800 0.480500
7.516900 0.467500
7.534100 0.419600
7.551300 0.344600
7.568400 0.279300
7.585600 0.266300
7.602800 0.328200
7.619900 0.457100
7.637100 0.617800
7.654300 0.758100
7.671500 0.830500
7.688600 0.819500
7.705800 0.750700
7.723000 0.663800
7.740100 0.579700
7.757300 0.500000
7.774500 0.429400
7.791700 0.380500
7.808800 0.360200
7.826000 0.366300
7.843200 0.396900
7.860300 0.451800
7.877500 0.519500
7.894700 0.573300
7.911800 0.590200
7.929000 0.574600
7.946200 0.554100
7.963400 0.548200
7.980500 0.548600
7.997700 0.532400
8.014900 0.490600
8.032000 0.439200
8.049200 0.401800
8.066400 0.386400
8.083600 0.379900
8.100700 0.365400
8.117900 0.338500
8.135100 0.310300
8.152200 0.299000
8.169400 0.315900
8.186600 0.357600
8.203700 0.409100
8.220900 0.451500
8.238100 0.470000
8.255300 0.462000
8.272400 0.442000
8.289600 0.432000
8.306800 0.441400
8.323900 0.456300
8.341100 0.451700
8.358300 0.418500
8.375400 0.375400
8.392600 0.351100
8.409800 0.357800
8.427000 0.383500
8.444100 0.405400
8.461300 0.407700
8.478500 0.393400
8.495600 0.380000
8.512800 0.386300
8.530000 0.420700
8.547200 0.478900
8.564300 0.543000
8.581500 0.586400
8.598700 0.591000
8.615800 0.565500
8.633000 0.538500
8.650200 0.531900
8.667300 0.547400
8.684500 0.576500
8.701700 0.611300
8.718900 0.644300
8.736000 0.664900
8.753200 0.665000
8.770400 0.644000
8.787500 0.604800
8.804700 0.546000
8.821900 0.464400
8.839100 0.365400
8.856200 0.265300
8.873400 0.186000
8.890600 0.147600
8.907700 0.163000
8.924900 0.231600
8.942100 0.334500
8.959200 0.437900
8.976400 0.512400
8.993600 0.552300
9.010800 0.572300
9.027900 0.589000
9.045100 0.614100
9.062300 0.661200
9.079400 0.740300
9.096600 0.840000
9.113800 0.921000
9.130900 0.939300
9.148100 0.879200
9.165300 0.765800
9.182500 0.644100
9.199600 0.547000
9.216800 0.478900
9.234000 0.423500
9.251100 0.363900
9.268300 0.297400
9.285500 0.233600
9.302700 0.184800
9.319800 0.159000
9.337000 0.162300
9.354200 0.200600
9.371300 0.275800
9.388500 0.378900
9.405700 0.489400
9.422800 0.582700
9.440000 0.634000
9.457200 0.623600
9.474400 0.553400
9.491500 0.460000
9.508700 0.395900
9.525900 0.386100
9.543000 0.408000
9.560200 0.419000
9.577400 0.398500
9.594600 0.362200
9.611700 0.340000
9.628900 0.347100
9.646100 0.376100
9.663200 0.412000
9.680400 0.449700
9.697600 0.497400
9.714700 0.566500
9.731900 0.664800
9.749100 0.791700
9.766300 0.926800
9.783400 1.022500
9.800600 1.025500
9.817800 0.919000
9.834900 0.742800
9.852100 0.562800
9.869300 0.424100
9.886500 0.333400
9.903600 0.278100
9.920800 0.249300
9.938000 0.246800
9.955100 0.269000
9.972300 0.303700
9.989500 0.328100
10.006600 0.323500
10.023800 0.291600
10.041000 0.255900
10.058200 0.247700
10.075300 0.288800
10.092500 0.376300
10.109700 0.477800
10.126800 0.547300
10.144000 0.556500
10.161200 0.507600
10.178300 0.421100
10.195500 0.324500
10.212700 0.250600
10.229900 0.231300
10.247000 0.278100
10.264200 0.371100
10.281400 0.472700
10.298500 0.555700
10.315700 0.616400
10.332900 0.662200
10.350100 0.687300
10.367200 0.667700
10.384400 0.586200
10.401600 0.463100
10.418700 0.355300
10.435900 0.315600
10.453100 0.353100
10.470200 0.436900
10.487400 0.531400
10.504600 0.619200
10.521800 0.692600
10.538900 0.739700
10.556100 0.747500
10.573300 0.710300
10.590400 0.630400
10.607600 0.521000
10.624800 0.409500
10.642000 0.328200
10.659100 0.294000
10.676300 0.296700
10.693500 0.310900
10.710600 0.319800
10.727800 0.325600
10.745000 0.337400
10.762100 0.356100
10.779300 0.373500
10.796500 0.384500
10.813700 0.398000
10.830800 0.433200
10.848000 0.503300
10.865200 0.597000
10.882300 0.678000
10.899500 0.708900
10.916700 0.678500
10.933800 0.603600
10.951000 0.511300
10.968200 0.424600
10.985400 0.360700
11.002500 0.329500
11.019700 0.328100
11.036900 0.343200
11.054000 0.358700
11.071200 0.362100
11.088400 0.345000
11.105600 0.305400
11.122700 0.253000
11.139900 0.207700
11.157100 0.187300
11.174200 0.193700
11.191400 0.211100
11.208600 0.222200
11.225700 0.224000
11.242900 0.227000
11.260100 0.239500
11.277300 0.258300
11.294400 0.274000
11.311600 0.279300
11.328800 0.269200
11.345900 0.243200
11.363100 0.209900
11.380300 0.183400
11.397500 0.169900
11.414600 0.160800
11.431800 0.143500
11.449000 0.115500
11.466100 0.087400
11.483300 0.075400
11.500500 0.093600
11.517600 0.149900
11.534800 0.244800
11.552000 0.368900
11.569200 0.499700
11.586300 0.606500
11.603500 0.668500
11.620700 0.688700
11.637800 0.682800
11.655000 0.657500
11.672200 0.609400
11.689400 0.541800
11.706500 0.470300
11.723700 0.407400
11.740900 0.353300
11.758000 0.304300
11.775200 0.262500
11.792400 0.235900
11.809500 0.235200
11.826700 0.267300
11.843900 0.324400
11.861100 0.381400
11.878200 0.412600
11.895400 0.413300
11.912600 0.399400
11.929700 0.388700
11.946900 0.381700
11.964100 0.364900
11.981200 0.331900
11.998400 0.295200
12.015600 0.276900
12.032800 0.294200
12.049900 0.351100
12.067100 0.433500
12.084300 0.509100
12.101400 0.543000
12.118600 0.521400
12.135800 0.456800
12.153000 0.374200
12.170100 0.296800
12.187300 0.238300
12.204500 0.199000
12.221600 0.170800
12.238800 0.150300
12.256000 0.145200
12.273100 0.163500
12.290300 0.195900
12.307500 0.217600
12.324700 0.211300
12.341800 0.185000
12.359000 0.161300
12.376200 0.154900
12.393300 0.168000
12.410500 0.203100
12.427700 0.267400
12.444900 0.359700
12.462000 0.457900
12.479200 0.523900
12.496400 0.526300
12.513500 0.464300
12.530700 0.372200
12.547900 0.294500
12.565000 0.254600
12.582200 0.248900
12.599400 0.266200
12.616600 0.303000
12.633700 0.359300
12.650900 0.426000
12.668100 0.479800
12.685200 0.493000
12.702400 0.454700
12.719600 0.383100
12.736700 0.313700
12.753900 0.275300
12.771100 0.276700
12.788300 0.309500
12.805400 0.354800
12.822600 0.393300
12.839800 0.415800
12.856900 0.428800
12.874100 0.454300
12.891300 0.522900
12.908500 0.652400
12.925600 0.820800
12.942800 0.963400
12.960000 1.013900
12.977100 0.956900
12.994300 0.842200
13.011500 0.751100
13.028600 0.744900
13.045800 0.830000
13.063000 0.956600
13.080200 1.049700
13.097300 1.055800
13.114500 0.973700
13.131700 0.843400
13.148800 0.707300
13.166000 0.589300
13.183200 0.502600
13.200400 0.455000
13.217500 0.439000
13.234700 0.428600
13.251900 0.400000
13.269000 0.355200
13.286200 0.319300
13.303400 0.313900
13.320500 0.335500
13.337700 0.361500
13.354900 0.374900
13.372100 0.376600
13.389200 0.374200
13.406400 0.370000
13.423600 0.364100
13.440700 0.360600
13.457900 0.359200
13.475100 0.350000
13.492300 0.325400
13.509400 0.295700
13.526600 0.286400
13.543800 0.316100
13.560900 0.377400
13.578100 0.440500
13.595300 0.476100
13.612400 0.474600
13.629600 0.443600
13.646800 0.397600
13.664000 0.357100
13.681100 0.348800
13.698300 0.391600
13.715500 0.476300
13.732600 0.565400
13.749800 0.617900
13.767000 0.619000
13.784100 0.587900
13.801300 0.562400
13.818500 0.570200
13.835700 0.606200
13.852800 0.635800
13.870000 0.628500
13.887200 0.590100
13.904300 0.556600
13.921500 0.554400
13.938700 0.569800
13.955900 0.565500
13.973000 0.526200
13.990200 0.479200
14.007400 0.464200
14.024500 0.489000
14.041700 0.525000
14.058900 0.544400
14.076000 0.547800
14.093200 0.548200
14.110400 0.544100
14.127600 0.525200
14.144700 0.498100
14.161900 0.491800
14.179100 0.531600
14.196200 0.617200
14.213400 0.730800
14.230600 0.856800
14.247800 0.979700
14.264900 1.068400
14.282100 1.086700
14.299300 1.026800
14.316400 0.916800
14.333600 0.791000
14.350800 0.669000
14.367900 0.563200
14.385100 0.484600
14.402300 0.435000
14.419500 0.407100
14.436600 0.397000
14.453800 0.405900
14.471000 0.425200
14.488100 0.436300
14.505300 0.435600
14.522500 0.453000
14.539600 0.531800
14.556800 0.682400
14.574000 0.859900
14.591200 0.990300
14.608300 1.017600
14.625500 0.928800
14.642700 0.750100
14.659800 0.535600
14.677000 0.350400
14.694200 0.245300
14.711400 0.235300
14.728500 0.298400
14.745700 0.391200
14.762900 0.469700
14.780000 0.506700
14.797200 0.501000
14.814400 0.470000
14.831500 0.435300
14.848700 0.414700
14.865900 0.423000
14.883100 0.470100
14.900200 0.554300
14.917400 0.654600
14.934600 0.737300
14.951700 0.775700
14.968900 0.764200
14.986100 0.716800
15.003300 0.654900
15.020400 0.599300
15.037600 0.565900
15.054800 0.563100
15.071900 0.587300
15.089100 0.621100
15.106300 0.640300
15.123400 0.633600
15.140600 0.613600
15.157800 0.600200
15.175000 0.591900
15.192100 0.565100
15.209300 0.507400
15.226500 0.441600
15.243600 0.408300
15.260800 0.428700
15.278000 0.489000
15.295200 0.555700
15.312300 0.596200
15.329500 0.593000
15.346700 0.550000
15.363800 0.491400
15.381000 0.451400
15.398200 0.460900
15.415300 0.530800
15.432500 0.636100
15.449700 0.721000
15.466900 0.736100
15.484000 0.681400
15.501200 0.605700
15.518400 0.557800
15.535500 0.541500
15.552700 0.520600
15.569900 0.465100
15.587000 0.386600
15.604200 0.331700
15.621400 0.344400
15.638600 0.433000
15.655700 0.564300
15.672900 0.681200
15.690100 0.730100
15.707200 0.691300
15.724400 0.597200
15.741600 0.518100
15.758800 0.511900
15.775900 0.576200
15.793100 0.646900
15.810300 0.654300
15.827400 0.581300
15.844600 0.469800
15.861800 0.377100
15.878900 0.336000
15.896100 0.343600
15.913300 0.373400
15.930500 0.401000
15.947600 0.426300
15.964800 0.474600
15.982000 0.569500
15.999100 0.701400
16.016300 0.826800
16.033500 0.903400
16.050700 0.926900
16.067800 0.925100
16.085000 0.916600
16.102200 0.890700
16.119300 0.831500
16.136500 0.745600
16.153700 0.655700
16.170800 0.578000
16.188000 0.521000
16.205200 0.495500
16.222400 0.509400
16.239500 0.552600
16.256700 0.598200
16.273900 0.622400
16.291000 0.617900
16.308200 0.591600
16.325400 0.554800
16.342500 0.519100
16.359700 0.495300
16.376900 0.490500
16.394100 0.504500
16.411200 0.530600
16.428400 0.559400
16.445600 0.582900
16.462700 0.600700
16.479900 0.623400
16.497100 0.663500
16.514300 0.720200
16.531400 0.776900
16.548600 0.817700
16.565800 0.843100
16.582900 0.867500
16.600100 0.905800
16.617300 0.957700
16.634400 1.002300
16.651600 1.009300
16.668800 0.964900
16.686000 0.891200
16.703100 0.835800
16.720300 0.835200
16.737500 0.882700
16.754600 0.928600
16.771800 0.917400
16.789000 0.832300
16.806200 0.708400
16.823300 0.605800
16.840500 0.570000
16.857700 0.608900
16.874800 0.696400
16.892000 0.792600
16.909200 0.863800
16.926300 0.886000
16.943500 0.846000
16.960700 0.756000
16.977900 0.664000
16.995000 0.629600
17.012200 0.679000
17.029400 0.785500
17.046500 0.896300
17.063700 0.976000
17.080900 1.021000
17.098100 1.039500
17.115200 1.033500
17.132400 1.007300
17.149600 0.978300
17.166700 0.965700
17.183900 0.969400
17.201100 0.972000
17.218200 0.963900
17.235400 0.955700
17.252600 0.957400
17.269800 0.954100
17.286900 0.921500
17.304100 0.867100
17.321300 0.833000
17.338400 0.848600
17.355600 0.897800
17.372800 0.947200
17.389900 0.988900
17.407100 1.029400
17.424300 1.053200
17.441500 1.030700
17.458600 0.958900
17.475800 0.871700
17.493000 0.801600
17.510100 0.753000
17.527300 0.718200
17.544500 0.701400
17.561700 0.713100
17.578800 0.751500
17.596000 0.800200
17.613200 0.844600
17.630300 0.880300
17.647500 0.907700
17.664700 0.926000
17.681800 0.931900
17.699000 0.918300
17.716200 0.874700
17.733400 0.795800
17.750500 0.694100
17.767700 0.599700
17.784900 0.546600
17.802000 0.549200
17.819200 0.589400
17.836400 0.631900
17.853600 0.654100
17.870700 0.659600
17.887900 0.663500
17.905100 0.676500
17.922200 0.703700
17.939400 0.744900
17.956600 0.789300
17.973700 0.818900
17.990900 0.825800
18.008100 0.819800
18.025300 0.814500
18.042400 0.813000
18.059600 0.812200
18.076800 0.815200
18.093900 0.827500
18.111100 0.845400
18.128300 0.856600
18.145400 0.857300
18.162600 0.864200
18.179800 0.904200
18.197000 0.984500
18.214100 1.075300
18.231300 1.130500
18.248500 1.131900
18.265600 1.107000
18.282800 1.095600
18.300000 1.103200
18.317200 1.099100
18.334300 1.059900
18.351500 1.005900
18.368700 0.989400
18.385800 1.046100
18.403000 1.151000
18.420200 1.225700
18.437300 1.202200
18.454500 1.090300
18.471700 0.971500
18.488900 0.926600
18.506000 0.969900
18.523200 1.051000
18.540400 1.109100
18.557500 1.123700
18.574700 1.113600
18.591900 1.099000
18.609100 1.077300
18.626200 1.037700
18.643400 0.987100
18.660600 0.948600
18.677700 0.934500
18.694900 0.934800
18.712100 0.938400
18.729200 0.950300
18.746400 0.979900
18.763600 1.022900
18.780800 1.063600
18.797900 1.086400
18.815100 1.080500
18.832300 1.040900
18.849400 0.972600
18.866600 0.891700
18.883800 0.818700
18.901000 0.766500
18.918100 0.736400
18.935300 0.727700
18.952500 0.744500
18.969600 0.788200
18.986800 0.850100
19.004000 0.914900
19.021100 0.969900
19.038300 1.006500
19.055500 1.021500
19.072700 1.023000
19.089800 1.032400
19.107000 1.067100
19.124200 1.114600
19.141300 1.127300
19.158500 1.062000
19.175700 0.933800
19.192800 0.815100
19.210000 0.770600
19.227200 0.804100
19.244400 0.874700
19.261500 0.950800
19.278700 1.031100
19.295900 1.117600
19.313000 1.188700
19.330200 1.209200
19.347400 1.164500
19.364600 1.079200
19.381700 1.004700
19.398900 0.986400
19.416100 1.029700
19.433200 1.094500
19.450400 1.129900
19.467600 1.120100
19.484700 1.090800
19.501900 1.074000
19.519100 1.075900
19.536300 1.080500
19.553400 1.074800
19.570600 1.063200
19.587800 1.057800
19.604900 1.058600
19.622100 1.048900
19.639300 1.009100
19.656500 0.932300
19.673600 0.833400
19.690800 0.748600
19.708000 0.717400
19.725100 0.753500
19.742300 0.835100
19.759500 0.926600
19.776600 1.004300
19.793800 1.061900
19.811000 1.099100
19.828200 1.115900
19.845300 1.117200
19.862500 1.113600
19.879700 1.116900
19.896800 1.138600
19.914000 1.188200
19.931200 1.264800
19.948400 1.344400
19.965500 1.384600
19.982700 1.353600
19.999900 1.260400
20.017000 1.156300
20.034200 1.099200
20.051400 1.111600
20.068500 1.171100
20.085700 1.239100
20.102900 1.288400
20.120100 1.306200
20.137200 1.287700
20.154400 1.237800
20.171600 1.173700
20.188700 1.120300
20.205900 1.100700
20.223100 1.120800
20.240200 1.156600
20.257400 1.169200
20.274600 1.143100
20.291800 1.104300
20.308900 1.095100
20.326100 1.131500
20.343300 1.182800
20.360400 1.191400
20.377600 1.118000
20.394800 0.976800
20.412000 0.825500
20.429100 0.722100
20.446300 0.695300
20.463500 0.749800
20.480600 0.879700
20.497800 1.065400
20.515000 1.261600
20.532100 1.405900
20.549300 1.451800
20.566500 1.397500
20.583700 1.277600
20.600800 1.127300
20.618000 0.965300
20.635200 0.809300
20.652300 0.687800
20.669500 0.628600
20.686700 0.647700
20.703900 0.748200
20.721000 0.918100
20.738200 1.127800
20.755400 1.337000
20.772500 1.501100
20.789700 1.575300
20.806900 1.528400
20.824000 1.366100
20.841200 1.140500
20.858400 0.927800
20.875600 0.786600
20.892700 0.726400
20.909900 0.715700
20.927100 0.721600
20.944200 0.731700
20.961400 0.742800
20.978600 0.746600
20.995700 0.741400
21.012900 0.741200
21.030100 0.758700
21.047300 0.792900
21.064400 0.840800
21.081600 0.906800
21.098800 0.989600
21.115900 1.076200
21.133100 1.161100
21.150300 1.257500
21.167500 1.373100
21.184600 1.487300
21.201800 1.567400
21.219000 1.597100
21.236100 1.572100
21.253300 1.487700
21.270500 1.356200
21.287600 1.226300
21.304800 1.158200
21.322000 1.175900
21.339200 1.247900
21.356300 1.310600
21.373500 1.307300
21.390700 1.218800
21.407800 1.067500
21.425000 0.896400
21.442200 0.743200
21.459400 0.632100
21.476500 0.581400
21.493700 0.604400
21.510900 0.691800
21.528000 0.798300
21.545200 0.862000
21.562400 0.851500
21.579500 0.793700
21.596700 0.745500
21.613900 0.740600
21.631100 0.769300
21.648200 0.803000
21.665400 0.825100
21.682600 0.838900
21.699700 0.855800
21.716900 0.878200
21.734100 0.893900
21.751300 0.886900
21.768400 0.850600
21.785600 0.790200
21.802800 0.722400
21.819900 0.677600
21.837100 0.687000
21.854300 0.752800
21.871400 0.837200
21.888600 0.890300
21.905800 0.891800
21.923000 0.858100
21.940100 0.817500
21.957300 0.791300
21.974500 0.800600
21.991600 0.873700
22.008800 1.024800
22.026000 1.223600
22.043100 1.398200
22.060300 1.487400
22.077500 1.489000
22.094700 1.445400
22.111800 1.384000
22.129000 1.295400
22.146200 1.178200
22.163300 1.075000
22.180500 1.042300
22.197700 1.095800
22.214900 1.205300
22.232000 1.332000
22.249200 1.452700
22.266400 1.550100
22.283500 1.605200
22.300700 1.613200
22.317900 1.597200
22.335000 1.590900
22.352200 1.610700
22.369400 1.644100
22.386600 1.660300
22.403700 1.633400
22.420900 1.563100
22.438100 1.476000
22.455200 1.401400
22.472400 1.351100
22.489600 1.327300
22.506800 1.338300
22.523900 1.391100
22.541100 1.473100
22.558300 1.553600
22.575400 1.606900
22.592600 1.630200
22.609800 1.642300
22.626900 1.662700
22.644100 1.689900
22.661300 1.698700
22.678500 1.664100
22.695600 1.582900
22.712800 1.471700
22.730000 1.354400
22.747100 1.259300
22.764300 1.210100
22.781500 1.201900
22.798600 1.196500
22.815800 1.155200
22.833000 1.078100
22.850200 1.003000
22.867300 0.971300
22.884500 0.993300
22.901700 1.046100
22.918800 1.104000
22.936000 1.168600
22.953200 1.256000
22.970400 1.355200
22.987500 1.419200
23.004700 1.411100
23.021900 1.346700
23.039000 1.275900
23.056200 1.229300
23.073400 1.194800
23.090500 1.139500
23.107700 1.042300
23.124900 0.911700
23.142100 0.786000
23.159200 0.718800
23.176400 0.749800
23.193600 0.874100
23.210700 1.036800
23.227900 1.167200
23.245100 1.227800
23.262300 1.234700
23.279400 1.229700
23.296600 1.237600
23.313800 1.252600
23.330900 1.259100
23.348100 1.252100
23.365300 1.235300
23.382400 1.208900
23.399600 1.169300
23.416800 1.116400
23.434000 1.059500
23.451100 1.014800
23.468300 1.002400
23.485500 1.042000
23.502600 1.143100
23.519800 1.291400
23.537000 1.453800
23.554200 1.607000
23.571300 1.750500
23.588500 1.875500
23.605700 1.936600
23.622800 1.888700
23.640000 1.747600
23.657200 1.587500
23.674300 1.472700
23.691500 1.408200
23.708700 1.356300
23.725900 1.285300
23.743000 1.199800
23.760200 1.129400
23.777400 1.098300
23.794500 1.103500
23.811700 1.120800
23.828900 1.129900
23.846000 1.127500
23.863200 1.113000
23.880400 1.075200
23.897600 1.001500
23.914700 0.895200
23.931900 0.780400
23.949100 0.691400
23.966200 0.657400
23.983400 0.690000
24.000600 0.776100
24.017800 0.880300
24.034900 0.958600
24.052100 0.979000
24.069300 0.938600
24.086400 0.863100
24.103600 0.789300
24.120800 0.745500
24.137900 0.743300
24.155100 0.779100
24.172300 0.844000
24.189500 0.935500
24.206600 1.052100
24.223800 1.173800
24.241000 1.260100
24.258100 1.282600
24.275300 1.255000
24.292500 1.216100
24.309700 1.185500
24.326800 1.149600
24.344000 1.088100
24.361200 0.998600
24.378300 0.897000
24.395500 0.807200
24.412700 0.752000
24.429800 0.745800
24.447000 0.787400
24.464200 0.859600
24.481400 0.936800
24.498500 0.995400
24.515700 1.025600
24.532900 1.034500
24.550000 1.033500
24.567200 1.018800
24.584400 0.970900
24.601500 0.880700
24.618700 0.774400
24.635900 0.700200
24.653100 0.688300
24.670200 0.728000
24.687400 0.785900
24.704600 0.834400
24.721700 0.855700
24.738900 0.833100
24.756100 0.759000
24.773300 0.650100
24.790400 0.540700
24.807600 0.457900
24.824800 0.407300
24.841900 0.384100
24.859100 0.389400
24.876300 0.430100
24.893400 0.507300
24.910600 0.609800
24.927800 0.718500
24.945000 0.809400
24.962100 0.859100
24.979300 0.859600
24.996500 0.832500
25.013600 0.813200
25.030800 0.820100
25.048000 0.849600
25.065200 0.897300
25.082300 0.961300
25.099500 1.022900
25.116700 1.046800
25.133800 1.015800
25.151000 0.952300
25.168200 0.893900
25.185300 0.853800
25.202500 0.821800
25.219700 0.792600
25.236900 0.772100
25.254000 0.760600
25.271200 0.750500
25.288400 0.740600
25.305500 0.738400
25.322700 0.744900
25.339900 0.745900
25.357100 0.724400
25.374200 0.676800
25.391400 0.612300
25.408600 0.542000
25.425700 0.472600
25.442900 0.413900
25.460100 0.381400
25.477200 0.383900
25.494400 0.411600
25.511600 0.443600
25.528800 0.471000
25.545900 0.506000
25.563100 0.569200
25.580300 0.672500
25.597400 0.806600
25.614600 0.938100
25.631800 1.022700
25.648900 1.038400
25.666100 1.009300
25.683300 0.988600
25.700500 1.008700
25.717600 1.051000
25.734800 1.066200
25.752000 1.018300
25.769100 0.911200
25.786300 0.786300
25.803500 0.703400
25.820700 0.711800
25.837800 0.818300
25.855000 0.976900
25.872200 1.116400
25.889300 1.185700
25.906500 1.180100
25.923700 1.129300
25.940800 1.071600
25.958000 1.033800
25.975200 1.023200
25.992400 1.028800
26.009500 1.033000
26.026700 1.029200
26.043900 1.026800
26.061000 1.039400
26.078200 1.072600
26.095400 1.122300
26.112600 1.177200
26.129700 1.217100
26.146900 1.219300
26.164100 1.176100
26.181200 1.107900
26.198400 1.052400
26.215600 1.042300
26.232700 1.096800
26.249900 1.225300
26.267100 1.427700
26.284300 1.683100
26.301400 1.936300
26.318600 2.103500
26.335800 2.117900
26.352900 1.991300
26.370100 1.827300
26.387300 1.747900
26.404400 1.792700
26.421600 1.895900
26.438800 1.962700
26.456000 1.953800
26.473100 1.896100
26.490300 1.842300
26.507500 1.844100
26.524600 1.944100
26.541800 2.155900
26.559000 2.439400
26.576200 2.709300
26.593300 2.885300
26.610500 2.947300
26.627700 2.950900
26.644800 2.990400
26.662000 3.137700
26.679200 3.404300
26.696300 3.755400
26.713500 4.169800
26.730700 4.698200
26.747900 5.463300
26.765000 6.589000
26.782200 8.124600
26.799400 10.045400
26.816500 12.323400
26.833700 14.963700
26.850900 17.934200
26.868100 21.058000
26.885200 24.025900
26.902400 26.615700
26.919600 28.977700
26.936700 31.612900
26.953900 34.761300
26.971100 37.628900
26.988200 38.514100
27.005400 36.149300
27.022600 30.924600
27.039800 24.580200
27.056900 18.826300
27.074100 14.432600
27.091300 11.349600
27.108400 9.233000
27.125600 7.756500
27.142800 6.675200
27.160000 5.819800
27.177100 5.096700
27.194300 4.484700
27.211500 4.010300
27.228600 3.699300
27.245800 3.534800
27.263000 3.464200
27.280100 3.437900
27.297300 3.418200
27.314500 3.364800
27.331700 3.245900
27.348800 3.068800
27.366000 2.875500
27.383200 2.698600
27.400300 2.534000
27.417500 2.368600
27.434700 2.222100
27.451800 2.140000
27.469000 2.144900
27.486200 2.207500
27.503400 2.267200
27.520500 2.274900
27.537700 2.221600
27.554900 2.132700
27.572000 2.036300
27.589200 1.939400
27.606400 1.838200
27.623600 1.743800
27.640700 1.684900
27.657900 1.677000
27.675100 1.695500
27.692200 1.693500
27.709400 1.652000
27.726600 1.596800
27.743700 1.558500
27.760900 1.527900
27.778100 1.465600
27.795300 1.360800
27.812400 1.272200
27.829600 1.299900
27.846800 1.503300
27.863900 1.833700
27.881100 2.145300
27.898300 2.285500
27.915500 2.190800
27.932600 1.912300
27.949800 1.563700
27.967000 1.247600
27.984100 1.016400
28.001300 0.881100
28.018500 0.838300
28.035600 0.877800
28.052800 0.969100
28.070000 1.058500
28.087200 1.095300
28.104300 1.065800
28.121500 0.999200
28.138700 0.940800
28.155800 0.919500
28.173000 0.932200
28.190200 0.951100
28.207300 0.945500
28.224500 0.903200
28.241700 0.834700
28.258900 0.760300
28.276000 0.695200
28.293200 0.648600
28.310400 0.631800
28.327500 0.657900
28.344700 0.727800
28.361900 0.820800
28.379100 0.909300
28.396200 0.981500
28.413400 1.039400
28.430600 1.076500
28.447700 1.073100
28.464900 1.018400
28.482100 0.931200
28.499200 0.854200
28.516400 0.822900
28.533600 0.829900
28.550800 0.826300
28.567900 0.770100
28.585100 0.674400
28.602300 0.598500
28.619400 0.593900
28.636600 0.662200
28.653800 0.760100
28.671000 0.833800
28.688100 0.852900
28.705300 0.819300
28.722500 0.749300
28.739600 0.658600
28.756800 0.563000
28.774000 0.480100
28.791100 0.418700
28.808300 0.373200
28.825500 0.336500
28.842700 0.312200
28.859800 0.311100
28.877000 0.340800
28.894200 0.398200
28.911300 0.469600
28.928500 0.534900
28.945700 0.571600
28.962900 0.558500
28.980000 0.486200
28.997200 0.370400
29.014400 0.247800
29.031500 0.153500
29.048700 0.099700
29.065900 0.076500
29.083000 0.068600
29.100200 0.070700
29.117400 0.086000
29.134600 0.115600
29.151700 0.150700
29.168900 0.179300
29.186100 0.196300
29.203200 0.204400
29.220400 0.203600
29.237600 0.189600
29.254700 0.164100
29.271900 0.140500
29.289100 0.132300
29.306300 0.140600
29.323400 0.158100
29.340600 0.179800
29.357800 0.202700
29.374900 0.219100
29.392100 0.220100
29.409300 0.205200
29.426500 0.182800
29.443600 0.158800
29.460800 0.131000
29.478000 0.097100
29.495100 0.062400
29.512300 0.036800
29.529500 0.027000
29.546600 0.031600
29.563800 0.043000
29.581000 0.051200
29.598200 0.049300
29.615300 0.037800
29.632500 0.023000
29.649700 0.011100
29.666800 0.004200
29.684000 0.001300
29.701200 0.000300
29.718400 0.000100
29.735500 0.000000
29.752700 0.000000
29.769900 0.000000
29.787000 0.000000
29.804200 0.000000
29.821400 0.000000
29.838500 0.000000
29.855700 0.000000
29.872900 0.000000
29.890100 0.000000
29.907200 0.000000
29.924400 0.000000
29.941600 0.000000
29.958700 0.000000
29.975900 0.000000
29.993100 0.000000
30.010200 0.000000
30.027400 0.000000
30.044600 0.000000
30.061800 0.000000
30.078900 0.000000
30.096100 0.000000
30.113300 0.000000
30.130400 0.000000
30.147600 0.000000
30.164800 0.000000
30.182000 0.000000
30.199100 0.000000
30.216300 0.000000
30.233500 0.000000
30.250600 0.000000
30.267800 0.000000
30.285000 0.000000
30.302100 0.000000
30.319300 0.000000
30.336500 0.000000
30.353700 0.000000
30.370800 0.000000
30.388000 0.000000
30.405200 0.000000
30.422300 0.000000
30.439500 0.000000
30.456700 0.000000
30.473900 0.000000
30.491000 0.000000
30.508200 0.000000
30.525400 0.000000
30.542500 0.000000
30.559700 0.000000
30.576900 0.000000
30.594000 0.000000
30.611200 0.000000
30.628400 0.000000
30.645600 0.000000
30.662700 0.000000
30.679900 0.000000
30.697100 0.000000
30.714200 0.000000
30.731400 0.000000
30.748600 0.000000
30.765800 0.000000
30.782900 0.000000
30.800100 0.000000
30.817300 0.000000
30.834400 0.000000
30.851600 0.000000
30.868800 0.000000
30.885900 0.000000
30.903100 0.000000
30.920300 0.000000
30.937500 0.000000
30.954600 0.000000
30.971800 0.000000
30.989000 0.000000
31.006100 0.000000
31.023300 0.000000
31.040500 0.000000
31.057600 0.000000
31.074800 0.000000
31.092000 0.000000
31.109200 0.000000
31.126300 0.000000
31.143500 0.000000
e
