set title 'mp-7904 - Density of States'
set xlabel 'Energy (eV)'
set ylabel 'DOS (states/eV)'
set grid
set xrange [-10:10]
set yrange [0:172.464]
set xzeroaxis lt -1
set terminal png size 800,600
set output 'mp-7904_dos_gnuplot.png'
plot '-' using 1:2 with lines title 'DOS'
-10.951200 0.000000
-10.939300 0.000000
-10.927400 0.000000
-10.915600 0.000000
-10.903700 0.000000
-10.891900 0.000000
-10.880000 0.000000
-10.868200 0.000000
-10.856300 0.000000
-10.844400 0.000000
-10.832600 0.000000
-10.820700 0.000000
-10.808900 0.000000
-10.797000 0.000000
-10.785200 0.000000
-10.773300 0.000000
-10.761400 0.000000
-10.749600 0.000000
-10.737700 0.000000
-10.725900 0.000000
-10.714000 0.000000
-10.702200 0.000000
-10.690300 0.000000
-10.678400 0.000000
-10.666600 0.000000
-10.654700 0.000000
-10.642900 0.000000
-10.631000 0.000000
-10.619200 0.000000
-10.607300 0.000000
-10.595400 0.000000
-10.583600 0.000000
-10.571700 0.000000
-10.559900 0.000000
-10.548000 0.000000
-10.536200 0.000000
-10.524300 0.000000
-10.512400 0.000000
-10.500600 0.000000
-10.488700 0.000000
-10.476900 0.000000
-10.465000 0.000000
-10.453200 0.000000
-10.441300 0.000000
-10.429400 0.000000
-10.417600 0.000000
-10.405700 0.000000
-10.393900 0.000000
-10.382000 0.000000
-10.370200 0.000000
-10.358300 0.000000
-10.346400 0.000000
-10.334600 0.000000
-10.322700 0.000000
-10.310900 0.000000
-10.299000 0.000000
-10.287200 0.000000
-10.275300 0.000000
-10.263500 0.000000
-10.251600 0.000000
-10.239700 0.000000
-10.227900 0.000000
-10.216000 0.000000
-10.204200 0.000000
-10.192300 0.000000
-10.180500 0.000000
-10.168600 0.000000
-10.156700 0.000000
-10.144900 0.000000
-10.133000 0.000000
-10.121200 0.000000
-10.109300 0.000000
-10.097500 0.000000
-10.085600 0.000000
-10.073700 0.000000
-10.061900 0.000000
-10.050000 0.000000
-10.038200 0.000000
-10.026300 0.000000
-10.014500 0.000000
-10.002600 0.000000
-9.990700 0.000000
-9.978900 0.000000
-9.967000 0.000000
-9.955200 0.000000
-9.943300 0.000000
-9.931500 0.000000
-9.919600 0.000000
-9.907700 0.000000
-9.895900 0.000000
-9.884000 0.000000
-9.872200 0.001000
-9.860300 0.145400
-9.848500 0.450500
-9.836600 0.712000
-9.824700 0.821100
-9.812900 0.905500
-9.801000 1.021500
-9.789200 1.146900
-9.777300 1.289100
-9.765500 1.432700
-9.753600 1.554400
-9.741700 1.651600
-9.729900 1.754700
-9.718000 1.881700
-9.706200 2.053100
-9.694300 2.268500
-9.682500 2.564000
-9.670600 2.714300
-9.658700 2.652000
-9.646900 2.625400
-9.635000 2.678200
-9.623200 2.718800
-9.611300 2.742900
-9.599500 2.730700
-9.587600 2.705500
-9.575700 2.690600
-9.563900 2.701000
-9.552000 2.719400
-9.540200 2.740700
-9.528300 2.765400
-9.516500 2.790600
-9.504600 2.816700
-9.492700 2.838300
-9.480900 2.856300
-9.469000 2.876500
-9.457200 2.894400
-9.445300 2.909600
-9.433500 2.931000
-9.421600 2.943300
-9.409700 2.914100
-9.397900 2.899700
-9.386000 2.903300
-9.374200 2.904300
-9.362300 2.901000
-9.350500 2.893500
-9.338600 2.889200
-9.326700 2.893800
-9.314900 2.899600
-9.303000 2.907200
-9.291200 2.919000
-9.279300 2.921300
-9.267500 2.980900
-9.255600 3.039400
-9.243700 3.078600
-9.231900 3.118100
-9.220000 3.158800
-9.208200 3.200900
-9.196300 3.239100
-9.184500 3.278000
-9.172600 3.314800
-9.160700 3.349500
-9.148900 3.386500
-9.137000 3.440800
-9.125200 3.503900
-9.113300 3.564100
-9.101500 3.628100
-9.089600 3.696400
-9.077700 3.770500
-9.065900 3.851900
-9.054000 3.943000
-9.042200 4.043300
-9.030300 4.213000
-9.018500 4.538200
-9.006600 4.998000
-8.994700 5.083700
-8.982900 5.103400
-8.971000 5.140900
-8.959200 5.267500
-8.947300 5.173100
-8.935500 4.448600
-8.923600 4.135700
-8.911700 3.855200
-8.899900 3.607200
-8.888000 3.398200
-8.876200 3.240100
-8.864300 3.104900
-8.852500 2.998100
-8.840600 2.911400
-8.828700 2.841600
-8.816900 2.780900
-8.805000 2.716100
-8.793200 2.637100
-8.781300 2.539400
-8.769500 2.451500
-8.757600 2.353400
-8.745700 2.251800
-8.733900 2.167300
-8.722000 2.105800
-8.710200 2.061500
-8.698300 2.016800
-8.686500 1.972100
-8.674600 1.927400
-8.662800 1.882600
-8.650900 1.837900
-8.639000 1.793100
-8.627200 1.748400
-8.615300 1.709000
-8.603500 1.679500
-8.591600 1.659000
-8.579800 1.663600
-8.567900 1.681200
-8.556000 1.703700
-8.544200 1.718100
-8.532300 1.693500
-8.520500 1.660700
-8.508600 1.648900
-8.496800 1.631000
-8.484900 1.601800
-8.473000 1.584700
-8.461200 1.578600
-8.449300 1.554500
-8.437500 1.530300
-8.425600 1.506100
-8.413800 1.481900
-8.401900 1.457700
-8.390000 1.433500
-8.378200 1.367800
-8.366300 1.243600
-8.354500 1.106500
-8.342600 0.946500
-8.330800 0.797700
-8.318900 0.693500
-8.307000 0.603000
-8.295200 0.443300
-8.283300 0.287500
-8.271500 0.168200
-8.259600 0.035100
-8.247800 0.000000
-8.235900 0.000000
-8.224000 0.000000
-8.212200 0.000000
-8.200300 0.000000
-8.188500 0.000000
-8.176600 0.006200
-8.164800 0.034000
-8.152900 0.076800
-8.141000 0.136800
-8.129200 0.219500
-8.117300 0.303300
-8.105500 0.387100
-8.093600 0.470900
-8.081800 0.554300
-8.069900 0.633500
-8.058000 0.709400
-8.046200 0.782300
-8.034300 0.850000
-8.022500 0.919600
-8.010600 1.022900
-7.998800 1.148900
-7.986900 1.297200
-7.975000 1.477800
-7.963200 1.602000
-7.951300 1.672600
-7.939500 1.746800
-7.927600 1.775900
-7.915800 1.802500
-7.903900 1.913800
-7.892000 2.030200
-7.880200 2.151200
-7.868300 2.274000
-7.856500 2.389200
-7.844600 2.505100
-7.832800 3.132100
-7.820900 3.159200
-7.809000 3.288600
-7.797200 3.484500
-7.785300 3.969300
-7.773500 4.383800
-7.761600 4.522200
-7.749800 4.593400
-7.737900 4.659300
-7.726000 4.677200
-7.714200 4.654700
-7.702300 4.650000
-7.690500 4.632700
-7.678600 4.652200
-7.666800 4.635400
-7.654900 4.522800
-7.643000 4.272500
-7.631200 3.947400
-7.619300 3.673600
-7.607500 3.439500
-7.595600 3.328500
-7.583800 3.233000
-7.571900 3.147000
-7.560000 3.072300
-7.548200 3.009800
-7.536300 2.950800
-7.524500 2.894200
-7.512600 2.841200
-7.500800 2.787200
-7.488900 2.732600
-7.477000 2.677900
-7.465200 2.624600
-7.453300 2.579100
-7.441500 2.539300
-7.429600 2.509800
-7.417800 2.481000
-7.405900 2.452500
-7.394000 2.424400
-7.382200 2.396400
-7.370300 2.368300
-7.358500 2.339000
-7.346600 2.309100
-7.334800 2.278900
-7.322900 2.249200
-7.311000 2.220200
-7.299200 2.192700
-7.287300 2.167700
-7.275500 2.143200
-7.263600 2.118000
-7.251800 2.092000
-7.239900 2.065200
-7.228000 2.036800
-7.216200 2.013000
-7.204300 1.994100
-7.192500 1.978200
-7.180600 1.962200
-7.168800 1.946200
-7.156900 1.930300
-7.145000 1.914300
-7.133200 1.898400
-7.121300 1.882500
-7.109500 1.866600
-7.097600 1.850700
-7.085800 1.834700
-7.073900 1.818000
-7.062100 1.800900
-7.050200 1.783500
-7.038300 1.766800
-7.026500 1.751400
-7.014600 1.737400
-7.002800 1.723900
-6.990900 1.706900
-6.979100 1.689300
-6.967200 1.673200
-6.955300 1.657200
-6.943500 1.643700
-6.931600 1.635500
-6.919800 1.627500
-6.907900 1.619900
-6.896100 1.612300
-6.884200 1.605200
-6.872300 1.598600
-6.860500 1.592700
-6.848600 1.601300
-6.836800 1.653700
-6.824900 1.702300
-6.813100 1.738100
-6.801200 1.775600
-6.789300 1.815400
-6.777500 1.859300
-6.765600 1.907800
-6.753800 1.946900
-6.741900 1.978800
-6.730100 2.018200
-6.718200 2.050400
-6.706300 2.092700
-6.694500 2.141500
-6.682600 2.197900
-6.670800 2.263500
-6.658900 2.332900
-6.647100 2.405600
-6.635200 2.529700
-6.623300 2.606900
-6.611500 2.596100
-6.599600 2.561000
-6.587800 2.515800
-6.575900 2.374600
-6.564100 2.084300
-6.552200 1.950300
-6.540300 1.889700
-6.528500 1.829300
-6.516600 1.732500
-6.504800 1.683200
-6.492900 1.582400
-6.481100 1.485800
-6.469200 1.403200
-6.457300 1.349400
-6.445500 1.298100
-6.433600 1.232900
-6.421800 1.182200
-6.409900 1.236000
-6.398100 1.379300
-6.386200 1.406600
-6.374300 1.391600
-6.362500 1.520700
-6.350600 1.701300
-6.338800 1.917100
-6.326900 2.203900
-6.315100 2.488700
-6.303200 2.608700
-6.291300 2.685700
-6.279500 2.815000
-6.267600 2.960200
-6.255800 3.075600
-6.243900 2.987900
-6.232100 2.693200
-6.220200 2.542700
-6.208300 3.077600
-6.196500 3.379600
-6.184600 3.435800
-6.172800 3.500300
-6.160900 3.581800
-6.149100 3.576700
-6.137200 3.452900
-6.125300 3.268900
-6.113500 3.080900
-6.101600 2.686700
-6.089800 2.281600
-6.077900 2.027300
-6.066100 1.833600
-6.054200 1.688500
-6.042300 1.608900
-6.030500 1.595500
-6.018600 1.593800
-6.006800 1.593600
-5.994900 1.594700
-5.983100 1.597100
-5.971200 1.600800
-5.959300 1.605200
-5.947500 1.609500
-5.935600 1.614800
-5.923800 1.620100
-5.911900 1.623300
-5.900100 1.625600
-5.888200 1.627000
-5.876300 1.628500
-5.864500 1.630900
-5.852600 1.633600
-5.840800 1.636900
-5.828900 1.641500
-5.817100 1.647300
-5.805200 1.653400
-5.793300 1.659800
-5.781500 1.666500
-5.769600 1.674200
-5.757800 1.681800
-5.745900 1.689400
-5.734100 1.697500
-5.722200 1.706100
-5.710300 1.715100
-5.698500 1.724600
-5.686600 1.735100
-5.674800 1.746300
-5.662900 1.757300
-5.651100 1.768100
-5.639200 1.778500
-5.627300 1.788800
-5.615500 1.798800
-5.603600 1.811200
-5.591800 1.822800
-5.579900 1.834600
-5.568100 1.848000
-5.556200 1.863000
-5.544300 1.879000
-5.532500 1.896100
-5.520600 1.913900
-5.508800 1.932100
-5.496900 1.950400
-5.485100 1.968700
-5.473200 1.987200
-5.461400 2.006100
-5.449500 2.025400
-5.437600 2.045300
-5.425800 2.064200
-5.413900 2.083300
-5.402100 2.103900
-5.390200 2.125100
-5.378400 2.145900
-5.366500 2.167800
-5.354600 2.189900
-5.342800 2.211300
-5.330900 2.234000
-5.319100 2.260300
-5.307200 2.296500
-5.295400 2.338900
-5.283500 2.386900
-5.271600 2.439700
-5.259800 2.497600
-5.247900 2.560300
-5.236100 2.629700
-5.224200 2.703600
-5.212400 2.766000
-5.200500 2.820500
-5.188600 2.868700
-5.176800 2.910100
-5.164900 2.948000
-5.153100 3.023500
-5.141200 3.118600
-5.129400 3.212600
-5.117500 3.207900
-5.105600 3.178700
-5.093800 3.155100
-5.081900 3.122900
-5.070100 3.089600
-5.058200 3.041600
-5.046400 2.979100
-5.034500 2.925300
-5.022600 2.887100
-5.010800 2.862100
-4.998900 2.846000
-4.987100 2.829700
-4.975200 2.813200
-4.963400 2.797100
-4.951500 2.780700
-4.939600 2.764900
-4.927800 2.750800
-4.915900 2.745000
-4.904100 2.751000
-4.892200 2.763200
-4.880400 2.693800
-4.868500 2.691200
-4.856600 2.684900
-4.844800 2.648700
-4.832900 2.629500
-4.821100 2.615100
-4.809200 2.595900
-4.797400 2.560600
-4.785500 2.524900
-4.773600 2.508800
-4.761800 2.490300
-4.749900 2.464700
-4.738100 2.438700
-4.726200 2.404100
-4.714400 2.370200
-4.702500 2.342200
-4.690600 2.321000
-4.678800 2.308100
-4.666900 2.294700
-4.655100 2.268000
-4.643200 2.119800
-4.631400 1.644500
-4.619500 1.325300
-4.607600 1.062700
-4.595800 0.865900
-4.583900 0.631300
-4.572100 0.469400
-4.560200 0.342400
-4.548400 0.235900
-4.536500 0.156100
-4.524600 0.102400
-4.512800 0.068400
-4.500900 0.071900
-4.489100 0.119200
-4.477200 0.204300
-4.465400 0.343000
-4.453500 0.581600
-4.441600 0.765100
-4.429800 0.920700
-4.417900 1.035800
-4.406100 1.185700
-4.394200 1.355200
-4.382400 1.572900
-4.370500 2.016800
-4.358600 2.461600
-4.346800 2.864300
-4.334900 3.194600
-4.323100 3.469600
-4.311200 3.752600
-4.299400 4.119100
-4.287500 4.473600
-4.275600 4.776800
-4.263800 5.101000
-4.251900 5.536900
-4.240100 5.971600
-4.228200 6.441300
-4.216400 7.048700
-4.204500 7.834200
-4.192600 9.059400
-4.180800 11.071600
-4.168900 14.596300
-4.157100 17.155500
-4.145200 15.844900
-4.133400 14.387000
-4.121500 10.815700
-4.109600 10.730600
-4.097800 11.339100
-4.085900 11.415700
-4.074100 11.213100
-4.062200 10.573900
-4.050400 10.573400
-4.038500 10.243500
-4.026600 8.914800
-4.014800 8.186000
-4.002900 7.614400
-3.991100 7.176100
-3.979200 6.999600
-3.967400 6.880200
-3.955500 7.420500
-3.943600 7.222300
-3.931800 6.256100
-3.919900 5.418700
-3.908100 4.581500
-3.896200 4.705700
-3.884400 3.933300
-3.872500 8.747200
-3.860600 9.692200
-3.848800 10.622900
-3.836900 11.998100
-3.825100 11.936100
-3.813200 14.969400
-3.801400 20.546700
-3.789500 22.945600
-3.777700 28.896500
-3.765800 28.843100
-3.753900 30.257000
-3.742100 31.650000
-3.730200 34.535900
-3.718400 49.453200
-3.706500 39.773500
-3.694700 28.385400
-3.682800 82.353700
-3.670900 64.072300
-3.659100 137.242500
-3.647200 124.802300
-3.635400 107.419700
-3.623500 95.673800
-3.611700 156.785400
-3.599800 46.372400
-3.587900 24.830700
-3.576100 20.736500
-3.564200 15.109500
-3.552400 12.301600
-3.540500 10.689900
-3.528700 8.853200
-3.516800 7.043000
-3.504900 5.356000
-3.493100 4.500000
-3.481200 3.443400
-3.469400 3.119100
-3.457500 2.915000
-3.445700 2.729800
-3.433800 2.620600
-3.421900 2.611000
-3.410100 2.702200
-3.398200 2.970000
-3.386400 3.144800
-3.374500 3.142700
-3.362700 3.119800
-3.350800 3.029800
-3.338900 2.880700
-3.327100 2.772700
-3.315200 2.457600
-3.303400 2.347000
-3.291500 2.317600
-3.279700 2.313300
-3.267800 2.350300
-3.255900 2.406200
-3.244100 2.468500
-3.232200 2.540500
-3.220400 2.612200
-3.208500 2.707800
-3.196700 2.804400
-3.184800 2.910400
-3.172900 2.994700
-3.161100 3.079000
-3.149200 3.177900
-3.137400 3.291800
-3.125500 3.405800
-3.113700 3.529200
-3.101800 3.553800
-3.089900 3.594800
-3.078100 3.664600
-3.066200 3.680100
-3.054400 3.681800
-3.042500 3.674400
-3.030700 3.678600
-3.018800 3.741200
-3.006900 3.938600
-2.995100 3.823300
-2.983200 3.731000
-2.971400 3.608000
-2.959500 3.495600
-2.947700 3.405100
-2.935800 3.350900
-2.923900 3.284500
-2.912100 3.135100
-2.900200 3.068500
-2.888400 3.034500
-2.876500 3.000000
-2.864700 2.953100
-2.852800 2.897300
-2.840900 2.845600
-2.829100 2.791400
-2.817200 2.701100
-2.805400 2.624900
-2.793500 2.563000
-2.781700 2.505000
-2.769800 2.449200
-2.757900 2.398000
-2.746100 2.350600
-2.734200 2.308200
-2.722400 2.265500
-2.710500 2.229700
-2.698700 2.197600
-2.686800 2.167500
-2.674900 2.138900
-2.663100 2.111800
-2.651200 2.086400
-2.639400 2.061100
-2.627500 2.036000
-2.615700 2.017100
-2.603800 2.003500
-2.591900 1.990100
-2.580100 1.976700
-2.568200 1.957300
-2.556400 1.928000
-2.544500 1.899900
-2.532700 1.872500
-2.520800 1.846000
-2.508900 1.820400
-2.497100 1.795400
-2.485200 1.770400
-2.473400 1.746000
-2.461500 1.722700
-2.449700 1.701200
-2.437800 1.679600
-2.425900 1.659400
-2.414100 1.641400
-2.402200 1.626200
-2.390400 1.611800
-2.378500 1.597100
-2.366700 1.581800
-2.354800 1.567200
-2.342900 1.554100
-2.331100 1.542600
-2.319200 1.536200
-2.307400 1.532900
-2.295500 1.529600
-2.283700 1.526200
-2.271800 1.522700
-2.259900 1.519100
-2.248100 1.515400
-2.236200 1.511800
-2.224400 1.508100
-2.212500 1.505100
-2.200700 1.503000
-2.188800 1.498600
-2.177000 1.488000
-2.165100 1.474600
-2.153200 1.464200
-2.141400 1.449000
-2.129500 1.436300
-2.117700 1.426100
-2.105800 1.418500
-2.094000 1.421000
-2.082100 1.415500
-2.070200 1.400400
-2.058400 1.380700
-2.046500 1.369600
-2.034700 1.364100
-2.022800 1.363400
-2.011000 1.367100
-1.999100 1.376100
-1.987200 1.390100
-1.975400 1.407400
-1.963500 1.409000
-1.951700 1.407100
-1.939800 1.406600
-1.928000 1.405200
-1.916100 1.402600
-1.904200 1.400200
-1.892400 1.402000
-1.880500 1.408200
-1.868700 1.416400
-1.856800 1.427900
-1.845000 1.448600
-1.833100 1.472800
-1.821200 1.479100
-1.809400 1.486600
-1.797500 1.498100
-1.785700 1.520300
-1.773800 1.617600
-1.762000 1.800100
-1.750100 2.039500
-1.738200 2.231300
-1.726400 2.376300
-1.714500 2.469700
-1.702700 2.578100
-1.690800 2.896900
-1.679000 2.586800
-1.667100 2.455400
-1.655200 2.247700
-1.643400 1.681800
-1.631500 1.598200
-1.619700 1.495700
-1.607800 1.338200
-1.596000 1.347700
-1.584100 1.371100
-1.572200 1.304400
-1.560400 1.308000
-1.548500 1.311400
-1.536700 1.313000
-1.524800 1.332600
-1.513000 1.273400
-1.501100 1.227600
-1.489200 1.217300
-1.477400 1.241100
-1.465500 1.284200
-1.453700 1.328200
-1.441800 1.378800
-1.430000 1.419200
-1.418100 1.474400
-1.406200 1.534400
-1.394400 1.598200
-1.382500 1.666300
-1.370700 1.736800
-1.358800 1.807200
-1.347000 1.861700
-1.335100 1.908900
-1.323200 2.011700
-1.311400 2.064600
-1.299500 2.117600
-1.287700 2.193800
-1.275800 2.281000
-1.264000 2.381700
-1.252100 2.496700
-1.240200 2.630300
-1.228400 2.886200
-1.216500 3.761600
-1.204700 3.991900
-1.192800 3.884600
-1.181000 3.815500
-1.169100 3.814500
-1.157200 3.878600
-1.145400 3.939200
-1.133500 3.988500
-1.121700 4.095100
-1.109800 4.255900
-1.098000 4.296600
-1.086100 4.353100
-1.074200 4.439200
-1.062400 4.561600
-1.050500 4.660600
-1.038700 4.737000
-1.026800 4.840000
-1.015000 4.952400
-1.003100 5.015000
-0.991200 5.030700
-0.979400 5.038400
-0.967500 5.262900
-0.955700 5.119700
-0.943800 5.482400
-0.932000 5.276000
-0.920100 5.176400
-0.908200 5.100500
-0.896400 5.038200
-0.884500 5.025400
-0.872700 4.765800
-0.860800 4.759700
-0.849000 4.739800
-0.837100 4.755000
-0.825200 4.850300
-0.813400 4.918400
-0.801500 5.393000
-0.789700 5.488600
-0.777800 5.603100
-0.766000 5.689200
-0.754100 5.747500
-0.742200 5.765300
-0.730400 5.704800
-0.718500 5.619600
-0.706700 5.576600
-0.694800 5.541500
-0.683000 5.515500
-0.671100 5.466000
-0.659200 5.176600
-0.647400 4.894400
-0.635500 4.577900
-0.623700 4.472000
-0.611800 4.404100
-0.600000 4.302500
-0.588100 4.164100
-0.576300 4.062300
-0.564400 3.860000
-0.552500 3.675400
-0.540700 3.494500
-0.528800 3.363500
-0.517000 3.378100
-0.505100 3.520800
-0.493300 3.529700
-0.481400 3.576600
-0.469500 3.683700
-0.457700 3.790000
-0.445800 3.673700
-0.434000 3.748100
-0.422100 3.817300
-0.410300 4.001800
-0.398400 4.016700
-0.386500 4.036600
-0.374700 4.095000
-0.362800 4.218500
-0.351000 4.360800
-0.339100 4.323100
-0.327300 4.213800
-0.315400 4.280900
-0.303500 4.418900
-0.291700 4.473500
-0.279800 4.657100
-0.268000 4.895700
-0.256100 5.141100
-0.244300 5.374800
-0.232400 5.650200
-0.220500 5.930500
-0.208700 6.324700
-0.196800 6.398100
-0.185000 6.015600
-0.173100 5.740200
-0.161300 5.590500
-0.149400 5.475800
-0.137500 5.193300
-0.125700 4.921900
-0.113800 4.741000
-0.102000 4.671100
-0.090100 4.567100
-0.078300 4.712500
-0.066400 4.885600
-0.054500 5.010700
-0.042700 5.170500
-0.030800 5.237000
-0.019000 5.282500
-0.007100 5.145100
0.004700 4.903700
0.016600 4.816500
0.028500 4.816900
0.040300 4.826000
0.052200 4.885700
0.064000 4.845200
0.075900 4.816700
0.087700 4.947600
0.099600 5.079700
0.111500 5.240900
0.123300 5.093300
0.135200 4.990900
0.147000 4.871500
0.158900 4.851700
0.170700 4.925200
0.182600 5.085200
0.194500 5.301300
0.206300 5.381500
0.218200 5.393800
0.230000 5.353300
0.241900 5.273200
0.253700 5.327600
0.265600 5.262100
0.277500 5.177800
0.289300 5.138000
0.301200 5.234000
0.313000 5.516100
0.324900 6.308200
0.336700 6.622000
0.348600 6.813800
0.360500 6.696700
0.372300 6.731500
0.384200 6.363100
0.396000 6.002700
0.407900 5.654900
0.419700 5.489800
0.431600 5.523000
0.443500 5.722800
0.455300 6.309000
0.467200 6.321600
0.479000 6.407100
0.490900 6.374800
0.502700 6.214900
0.514600 6.126900
0.526500 6.080800
0.538300 6.165600
0.550200 6.273700
0.562000 6.511200
0.573900 6.604000
0.585700 6.654700
0.597600 6.567200
0.609500 6.450200
0.621300 6.470200
0.633200 6.493100
0.645000 6.411500
0.656900 6.489400
0.668700 6.667200
0.680600 6.854800
0.692500 7.037900
0.704300 7.216700
0.716200 7.138900
0.728000 6.911000
0.739900 6.669200
0.751700 6.527400
0.763600 6.210900
0.775500 6.170900
0.787300 6.010400
0.799200 5.731000
0.811000 5.496200
0.822900 5.319300
0.834700 5.160200
0.846600 4.954200
0.858500 4.580600
0.870300 4.182400
0.882200 3.898700
0.894000 3.793300
0.905900 3.728700
0.917700 3.672100
0.929600 3.709200
0.941500 3.770200
0.953300 3.880300
0.965200 3.979600
0.977000 4.130300
0.988900 4.490900
1.000700 4.754700
1.012600 4.855300
1.024400 4.887000
1.036300 4.561900
1.048200 4.413900
1.060000 4.424500
1.071900 4.488700
1.083700 4.607100
1.095600 4.597600
1.107400 4.565800
1.119300 4.532900
1.131200 4.328900
1.143000 4.183800
1.154900 4.121900
1.166700 4.058400
1.178600 4.054600
1.190400 4.071100
1.202300 4.079300
1.214200 4.107300
1.226000 4.156500
1.237900 4.177500
1.249700 4.149100
1.261600 4.171700
1.273400 4.206700
1.285300 4.230100
1.297200 4.187700
1.309000 4.128900
1.320900 4.019800
1.332700 3.968400
1.344600 3.958500
1.356400 3.866100
1.368300 3.862200
1.380200 3.904500
1.392000 3.936500
1.403900 3.948900
1.415700 4.024300
1.427600 4.012300
1.439400 4.025100
1.451300 4.053000
1.463200 4.090600
1.475000 4.164300
1.486900 4.322100
1.498700 4.509000
1.510600 4.656900
1.522400 4.883700
1.534300 5.162500
1.546200 5.210300
1.558000 5.120200
1.569900 5.239900
1.581700 5.236900
1.593600 5.047500
1.605400 4.862000
1.617300 4.804600
1.629200 4.984500
1.641000 4.902400
1.652900 4.792400
1.664700 4.738200
1.676600 4.752200
1.688400 4.723800
1.700300 4.828000
1.712200 4.925300
1.724000 4.955800
1.735900 5.034300
1.747700 5.155300
1.759600 5.266500
1.771400 5.409500
1.783300 5.723200
1.795200 5.382000
1.807000 4.961000
1.818900 4.675500
1.830700 4.441900
1.842600 4.380600
1.854400 4.435800
1.866300 4.394000
1.878200 4.429500
1.890000 4.410000
1.901900 4.261000
1.913700 4.106100
1.925600 3.982800
1.937400 3.889900
1.949300 3.925300
1.961200 4.024100
1.973000 4.207600
1.984900 4.325000
1.996700 4.467000
2.008600 4.641600
2.020400 4.805700
2.032300 4.943100
2.044200 5.116500
2.056000 5.290600
2.067900 5.597600
2.079700 5.860500
2.091600 6.064000
2.103400 5.802600
2.115300 5.908800
2.127200 5.977400
2.139000 5.958900
2.150900 5.983800
2.162700 5.982300
2.174600 5.925100
2.186400 5.932800
2.198300 5.762900
2.210200 5.374400
2.222000 5.056700
2.233900 4.820500
2.245700 4.649800
2.257600 4.599500
2.269400 4.548700
2.281300 4.427000
2.293200 4.453100
2.305000 4.684300
2.316900 5.289700
2.328700 6.064300
2.340600 6.601800
2.352400 6.625300
2.364300 6.153600
2.376200 5.934600
2.388000 5.825100
2.399900 5.811600
2.411700 5.826700
2.423600 5.834200
2.435400 5.864800
2.447300 5.901200
2.459200 5.896900
2.471000 5.751600
2.482900 5.458300
2.494700 5.300500
2.506600 5.246200
2.518400 5.208000
2.530300 5.196700
2.542200 5.212100
2.554000 5.282900
2.565900 5.298500
2.577700 5.243800
2.589600 5.203300
2.601400 5.368300
2.613300 5.680200
2.625100 5.652900
2.637000 5.349000
2.648900 5.168200
2.660700 5.087200
2.672600 5.055600
2.684400 5.034500
2.696300 5.101300
2.708100 5.323600
2.720000 5.580500
2.731900 5.942200
2.743700 6.256500
2.755600 6.301000
2.767400 6.376300
2.779300 6.512300
2.791100 6.555900
2.803000 6.453800
2.814900 6.418400
2.826700 6.293100
2.838600 6.043000
2.850400 5.982900
2.862300 5.949600
2.874100 5.691100
2.886000 5.512000
2.897900 5.363700
2.909700 5.187100
2.921600 5.119000
2.933400 5.082600
2.945300 4.844100
2.957100 4.555300
2.969000 4.237200
2.980900 3.922500
2.992700 3.815700
3.004600 3.743500
3.016400 3.711800
3.028300 3.807300
3.040100 3.922600
3.052000 3.994100
3.063900 4.083800
3.075700 4.207300
3.087600 4.294600
3.099400 4.362500
3.111300 4.507700
3.123100 4.644500
3.135000 4.740700
3.146900 4.705000
3.158700 4.628400
3.170600 4.660900
3.182400 4.807700
3.194300 4.973600
3.206100 5.088100
3.218000 4.588500
3.229900 4.393800
3.241700 4.283200
3.253600 4.174800
3.265400 4.039900
3.277300 3.900400
3.289100 3.791600
3.301000 3.806000
3.312900 3.861000
3.324700 3.936800
3.336600 4.012800
3.348400 4.089100
3.360300 4.146800
3.372100 4.215500
3.384000 4.314900
3.395900 4.434300
3.407700 4.562900
3.419600 4.628800
3.431400 4.710600
3.443300 4.777000
3.455100 4.862600
3.467000 5.038100
3.478900 5.233500
3.490700 5.395200
3.502600 5.605900
3.514400 5.624900
3.526300 5.603600
3.538100 5.600600
3.550000 5.635500
3.561900 5.742800
3.573700 5.798800
3.585600 5.411700
3.597400 5.146100
3.609300 4.937600
3.621100 4.778000
3.633000 4.570800
3.644900 4.479300
3.656700 4.468800
3.668600 4.521900
3.680400 4.694900
3.692300 4.719200
3.704100 4.766200
3.716000 4.727000
3.727900 4.736200
3.739700 4.581200
3.751600 4.398800
3.763400 4.277100
3.775300 4.176300
3.787100 4.088800
3.799000 4.071800
3.810900 4.061300
3.822700 4.082900
3.834600 4.230900
3.846400 4.341700
3.858300 4.408800
3.870100 4.490600
3.882000 4.582200
3.893900 4.692400
3.905700 4.839500
3.917600 4.918200
3.929400 4.916700
3.941300 4.824100
3.953100 4.792500
3.965000 4.732100
3.976900 4.609900
3.988700 4.429400
4.000600 4.210400
4.012400 4.030400
4.024300 3.799800
4.036100 3.654500
4.048000 3.567000
4.059900 3.492700
4.071700 3.380100
4.083600 3.289400
4.095400 3.221900
4.107300 3.160600
4.119100 3.102700
4.131000 3.046000
4.142900 2.988200
4.154700 2.931500
4.166600 2.874900
4.178400 2.819600
4.190300 2.773800
4.202100 2.853800
4.214000 2.859200
4.225800 2.646300
4.237700 2.415000
4.249600 2.316700
4.261400 2.234300
4.273300 2.164400
4.285100 2.110900
4.297000 2.065200
4.308800 2.021800
4.320700 1.982000
4.332600 1.946600
4.344400 1.915100
4.356300 1.884200
4.368100 1.855000
4.380000 1.832400
4.391800 1.809500
4.403700 1.784800
4.415600 1.761100
4.427400 1.736100
4.439300 1.710600
4.451100 1.686000
4.463000 1.663500
4.474800 1.676500
4.486700 1.671300
4.498600 1.659000
4.510400 1.632800
4.522300 1.606300
4.534100 1.580000
4.546000 1.540100
4.557800 1.408700
4.569700 1.357700
4.581600 1.313200
4.593400 1.276800
4.605300 1.242700
4.617100 1.200800
4.629000 1.164300
4.640800 1.111600
4.652700 1.044900
4.664600 0.959600
4.676400 0.858800
4.688300 0.723700
4.700100 0.592000
4.712000 0.464200
4.723800 0.339800
4.735700 0.211500
4.747600 0.190200
4.759400 0.175800
4.771300 0.170000
4.783100 0.152500
4.795000 0.127600
4.806800 0.100200
4.818700 0.073600
4.830600 0.052900
4.842400 0.039300
4.854300 0.031400
4.866100 0.024800
4.878000 0.019000
4.889800 0.013900
4.901700 0.009600
4.913600 0.006100
4.925400 0.003400
4.937300 0.001500
4.949100 0.000400
4.961000 0.000000
4.972800 0.000000
4.984700 0.000000
4.996600 0.000000
5.008400 0.000000
5.020300 0.000000
5.032100 0.000000
5.044000 0.000000
5.055800 0.000000
5.067700 0.000000
5.079600 0.000000
5.091400 0.000000
5.103300 0.000000
5.115100 0.000000
5.127000 0.000000
5.138800 0.000000
5.150700 0.000000
5.162600 0.000000
5.174400 0.000000
5.186300 0.000000
5.198100 0.000000
5.210000 0.000000
5.221800 0.000000
5.233700 0.000000
5.245600 0.000000
5.257400 0.000000
5.269300 0.000000
5.281100 0.000000
5.293000 0.000000
5.304800 0.000000
5.316700 0.000000
5.328600 0.000000
5.340400 0.000000
5.352300 0.000000
5.364100 0.000000
5.376000 0.000000
5.387800 0.000000
5.399700 0.000000
5.411600 0.000000
5.423400 0.000000
5.435300 0.000000
5.447100 0.000000
5.459000 0.000000
5.470800 0.000000
5.482700 0.106000
5.494600 0.174000
5.506400 0.246300
5.518300 0.322700
5.530100 0.386500
5.542000 0.439800
5.553800 0.506000
5.565700 0.578500
5.577600 0.658300
5.589400 0.764600
5.601300 0.933200
5.613100 1.107500
5.625000 1.204900
5.636800 1.244600
5.648700 1.212800
5.660600 1.102700
5.672400 1.051700
5.684300 1.054900
5.696100 1.064200
5.708000 1.079000
5.719800 1.099400
5.731700 1.122400
5.743600 1.203800
5.755400 1.387800
5.767300 1.535300
5.779100 1.665300
5.791000 1.739200
5.802800 1.724200
5.814700 1.794300
5.826500 1.875600
5.838400 1.970000
5.850300 2.076400
5.862100 2.199300
5.874000 2.323300
5.885800 2.458800
5.897700 2.672100
5.909500 2.980500
5.921400 3.200200
5.933300 3.368100
5.945100 3.522000
5.957000 3.676800
5.968800 3.815000
5.980700 3.920200
5.992500 3.934500
6.004400 4.136000
6.016300 4.377600
6.028100 4.690400
6.040000 4.979200
6.051800 5.166900
6.063700 5.379800
6.075500 6.323000
6.087400 6.955700
6.099300 6.670100
6.111100 6.645100
6.123000 6.625700
6.134800 6.467800
6.146700 6.399900
6.158500 6.390400
6.170400 6.444000
6.182300 6.566700
6.194100 6.306100
6.206000 5.893200
6.217800 5.626500
6.229700 5.594600
6.241500 5.571400
6.253400 5.617800
6.265300 5.781800
6.277100 6.181500
6.289000 6.655700
6.300800 7.071800
6.312700 6.947100
6.324500 6.772200
6.336400 7.064200
6.348300 7.295800
6.360100 7.533800
6.372000 7.866300
6.383800 8.078100
6.395700 8.134900
6.407500 8.086000
6.419400 7.990900
6.431300 8.018600
6.443100 7.966900
6.455000 7.885100
6.466800 7.692000
6.478700 7.133900
6.490500 6.893300
6.502400 6.700000
6.514300 6.379000
6.526100 6.057300
6.538000 5.779200
6.549800 5.562600
6.561700 5.402500
6.573500 5.262900
6.585400 5.269600
6.597300 5.753700
6.609100 5.892100
6.621000 6.134300
6.632800 6.315900
6.644700 6.349800
6.656500 6.241700
6.668400 5.986700
6.680300 5.745300
6.692100 5.532200
6.704000 5.484700
6.715800 5.463300
6.727700 5.578300
6.739500 5.903800
6.751400 6.163100
6.763300 6.808300
6.775100 6.865800
6.787000 7.062000
6.798800 7.211400
6.810700 7.375000
6.822500 7.451600
6.834400 7.414500
6.846300 7.559200
6.858100 7.793500
6.870000 8.256700
6.881800 8.650400
6.893700 8.347500
6.905500 7.848000
6.917400 7.788900
6.929300 7.952200
6.941100 8.256600
6.953000 8.622500
6.964800 9.058400
6.976700 9.381100
6.988500 9.371800
7.000400 8.989500
7.012300 8.480200
7.024100 7.963400
7.036000 7.446600
7.047800 7.229600
7.059700 7.039600
7.071500 6.909200
7.083400 6.718900
7.095300 6.838600
7.107100 6.869200
7.119000 6.967600
7.130800 7.081900
7.142700 7.229200
7.154500 7.120900
7.166400 6.918900
7.178300 6.757200
7.190100 6.745200
7.202000 5.977900
7.213800 5.710800
7.225700 5.665600
7.237500 5.732400
7.249400 5.798800
7.261300 5.873200
7.273100 6.003200
7.285000 6.194400
7.296800 6.444700
7.308700 6.587400
7.320500 6.800700
7.332400 7.022400
7.344300 7.130300
7.356100 7.184900
7.368000 7.350900
7.379800 7.473300
7.391700 7.420000
7.403500 7.317700
7.415400 7.142800
7.427200 6.905600
7.439100 6.699000
7.451000 6.714700
7.462800 6.640100
7.474700 6.639800
7.486500 6.929000
7.498400 7.610100
7.510200 7.507900
7.522100 7.517300
7.534000 7.660100
7.545800 7.799400
7.557700 8.090400
7.569500 8.271300
7.581400 8.060000
7.593200 7.926200
7.605100 7.866300
7.617000 7.823900
7.628800 7.799300
7.640700 7.791900
7.652500 7.934000
7.664400 7.639900
7.676200 7.308100
7.688100 7.298400
7.700000 7.371800
7.711800 7.329400
7.723700 7.412100
7.735500 7.567500
7.747400 7.693500
7.759200 7.557300
7.771100 7.295700
7.783000 7.159300
7.794800 6.789900
7.806700 6.521700
7.818500 6.107000
7.830400 5.905600
7.842200 5.807100
7.854100 5.740300
7.866000 5.698300
7.877800 5.677000
7.889700 5.683900
7.901500 5.764800
7.913400 5.944400
7.925200 6.190400
7.937100 6.474000
7.949000 6.788000
7.960800 7.179500
7.972700 7.582600
7.984500 7.908600
7.996400 8.096300
8.008200 7.857900
8.020100 7.679900
8.032000 7.275100
8.043800 6.802200
8.055700 6.602300
8.067500 6.465100
8.079400 6.354300
8.091200 6.347800
8.103100 6.365300
8.115000 6.340800
8.126800 6.236900
8.138700 6.124600
8.150500 6.007600
8.162400 5.865400
8.174200 5.778100
8.186100 5.593900
8.198000 5.426000
8.209800 5.279800
8.221700 5.114200
8.233500 4.922800
8.245400 4.729100
8.257200 4.642200
8.269100 4.553300
8.281000 4.514200
8.292800 4.522600
8.304700 4.455700
8.316500 4.401000
8.328400 4.382900
8.340200 4.363600
8.352100 4.489800
8.364000 4.677600
8.375800 4.765500
8.387700 4.825100
8.399500 4.879700
8.411400 4.872400
8.423200 4.975000
8.435100 5.147900
8.447000 5.371000
8.458800 5.591000
8.470700 5.846200
8.482500 6.176600
8.494400 6.226700
8.506200 5.778300
8.518100 5.610000
8.530000 5.259000
8.541800 5.160600
8.553700 5.050600
8.565500 4.942000
8.577400 4.716600
8.589200 4.608300
8.601100 4.547500
8.613000 4.582600
8.624800 4.693800
8.636700 4.880600
8.648500 5.166500
8.660400 5.464300
8.672200 5.853000
8.684100 6.437300
8.696000 6.706400
8.707800 6.915100
8.719700 7.190800
8.731500 7.125700
8.743400 6.959400
8.755200 6.981300
8.767100 6.797300
8.779000 6.631900
8.790800 6.534600
8.802700 6.585700
8.814500 6.509000
8.826400 6.374500
8.838200 6.200900
8.850100 6.141200
8.862000 6.229700
8.873800 6.402300
8.885700 6.678400
8.897500 6.839900
8.909400 6.875500
8.921200 7.007800
8.933100 7.181900
8.945000 6.886300
8.956800 6.581100
8.968700 6.267000
8.980500 6.083000
8.992400 6.184100
9.004200 6.275600
9.016100 6.460800
9.027900 6.478500
9.039800 6.650000
9.051700 6.548300
9.063500 6.666100
9.075400 6.824100
9.087200 7.241700
9.099100 7.221600
9.110900 7.339700
9.122800 7.488100
9.134700 7.382300
9.146500 7.485400
9.158400 7.644100
9.170200 7.243400
9.182100 6.750900
9.193900 6.561600
9.205800 6.342600
9.217700 6.128000
9.229500 6.031500
9.241400 6.002100
9.253200 5.942000
9.265100 5.825200
9.276900 5.910100
9.288800 6.097000
9.300700 6.253200
9.312500 6.320000
9.324400 6.224200
9.336200 6.209900
9.348100 6.202100
9.359900 6.221700
9.371800 6.210100
9.383700 6.008800
9.395500 5.555200
9.407400 5.376700
9.419200 5.313300
9.431100 5.273900
9.442900 5.247700
9.454800 5.254700
9.466700 5.140900
9.478500 5.039200
9.490400 4.992800
9.502200 4.859000
9.514100 4.746200
9.525900 4.671300
9.537800 4.712700
9.549700 4.721700
9.561500 4.872600
9.573400 5.003400
9.585200 4.944700
9.597100 4.886500
9.608900 4.785600
9.620800 4.661400
9.632700 4.773000
9.644500 4.893600
9.656400 5.018200
9.668200 5.106400
9.680100 5.320700
9.691900 5.775300
9.703800 5.718000
9.715700 5.444900
9.727500 5.387600
9.739400 5.401300
9.751200 5.449000
9.763100 5.502100
9.774900 5.535500
9.786800 5.726600
9.798700 5.488000
9.810500 5.486300
9.822400 5.330100
9.834200 5.285100
9.846100 5.299400
9.857900 5.305100
9.869800 5.278600
9.881700 5.246000
9.893500 5.203100
9.905400 5.146000
9.917200 5.144500
9.929100 5.167800
9.940900 5.214700
9.952800 5.222600
9.964700 5.116400
9.976500 4.939700
9.988400 4.775000
10.000200 4.666100
10.012100 4.493400
10.023900 4.329900
10.035800 4.249700
10.047700 4.246300
10.059500 4.236600
10.071400 4.287000
10.083200 4.387500
10.095100 4.522200
10.106900 4.709800
10.118800 5.081800
10.130700 5.212700
10.142500 5.221800
10.154400 5.205200
10.166200 5.228500
10.178100 5.366400
10.189900 5.332900
10.201800 5.249900
10.213700 5.289400
10.225500 5.359500
10.237400 5.562900
10.249200 5.642200
10.261100 5.676900
10.272900 5.639200
10.284800 5.598900
10.296700 5.557100
10.308500 5.384600
10.320400 5.257100
10.332200 5.177800
10.344100 5.131000
10.355900 5.107800
10.367800 5.104700
10.379700 5.116300
10.391500 5.193000
10.403400 5.341700
10.415200 5.441100
10.427100 5.478000
10.438900 5.492400
10.450800 5.501300
10.462700 5.550700
10.474500 5.438500
10.486400 5.273600
10.498200 5.089400
10.510100 4.877800
10.521900 4.701300
10.533800 4.592800
10.545700 4.543900
10.557500 4.548400
10.569400 4.599400
10.581200 4.699200
10.593100 4.834200
10.604900 4.999200
10.616800 5.025300
10.628600 5.097900
10.640500 5.078300
10.652400 4.962000
10.664200 4.905200
10.676100 4.874200
10.687900 4.863000
10.699800 4.918600
10.711600 4.957100
10.723500 4.922300
10.735400 4.903800
10.747200 4.858500
10.759100 4.806300
10.770900 4.740200
10.782800 4.698800
10.794600 4.604100
10.806500 4.535400
10.818400 4.465300
10.830200 4.454000
10.842100 4.504100
10.853900 4.586800
10.865800 4.598900
10.877600 4.492100
10.889500 4.389300
10.901400 4.282200
10.913200 4.206200
10.925100 4.124800
10.936900 4.076200
10.948800 4.074400
10.960600 3.941900
10.972500 3.904800
10.984400 3.839600
10.996200 3.721700
11.008100 3.707000
11.019900 3.713600
11.031800 3.625000
11.043600 3.547400
11.055500 3.481100
11.067400 3.440000
11.079200 3.443900
11.091100 3.460000
11.102900 3.464100
11.114800 3.414200
11.126600 3.305100
11.138500 3.170500
11.150400 3.014200
11.162200 2.873200
11.174100 2.708100
11.185900 2.549300
11.197800 2.410400
11.209600 2.245200
11.221500 2.114900
11.233400 2.039300
11.245200 1.913700
11.257100 1.752600
11.268900 1.637400
11.280800 1.554500
11.292600 1.480400
11.304500 1.405100
11.316400 1.329100
11.328200 1.263500
11.340100 1.191200
11.351900 1.177500
11.363800 1.186300
11.375600 1.094300
11.387500 0.996500
11.399400 0.925000
11.411200 0.793500
11.423100 0.635900
11.434900 0.481400
11.446800 0.391600
11.458600 0.341700
11.470500 0.303800
11.482400 0.267400
11.494200 0.234000
11.506100 0.204600
11.517900 0.176400
11.529800 0.148000
11.541600 0.121100
11.553500 0.096500
11.565400 0.075200
11.577200 0.057200
11.589100 0.042600
11.600900 0.031300
11.612800 0.022900
11.624600 0.016000
11.636500 0.010300
11.648400 0.005900
11.660200 0.002700
11.672100 0.000700
11.683900 0.000000
11.695800 0.000000
11.707600 0.000000
11.719500 0.000000
11.731400 0.000000
11.743200 0.000000
11.755100 0.000000
11.766900 0.000000
11.778800 0.000000
11.790600 0.000000
11.802500 0.000000
11.814400 0.000000
11.826200 0.000000
11.838100 0.000000
11.849900 0.000000
11.861800 0.000000
11.873600 0.000000
11.885500 0.000000
11.897400 0.000000
11.909200 0.000000
11.921100 0.000000
11.932900 0.000000
11.944800 0.000000
11.956600 0.000000
11.968500 0.000000
11.980400 0.000000
11.992200 0.000000
12.004100 0.000000
12.015900 0.000000
12.027800 0.000000
12.039600 0.000000
12.051500 0.000000
12.063400 0.000000
12.075200 0.000000
12.087100 0.000000
12.098900 0.000000
12.110800 0.000000
12.122600 0.000000
12.134500 0.000000
12.146400 0.000000
12.158200 0.000000
12.170100 0.000000
12.181900 0.000000
12.193800 0.000000
12.205600 0.000000
12.217500 0.000000
12.229300 0.000000
12.241200 0.000000
12.253100 0.000000
12.264900 0.000000
12.276800 0.000000
12.288600 0.000000
12.300500 0.000000
12.312300 0.000000
12.324200 0.000000
12.336100 0.000000
12.347900 0.000000
12.359800 0.000000
12.371600 0.000000
12.383500 0.000000
12.395300 0.000000
12.407200 0.000000
12.419100 0.000000
12.430900 0.000000
12.442800 0.000000
12.454600 0.000000
12.466500 0.000000
12.478300 0.000000
12.490200 0.000000
12.502100 0.000000
12.513900 0.000000
12.525800 0.000000
12.537600 0.000000
12.549500 0.000000
12.561300 0.000000
12.573200 0.000000
12.585100 0.000000
12.596900 0.000000
12.608800 0.000000
12.620600 0.000000
12.632500 0.000000
12.644300 0.000000
12.656200 0.000000
12.668100 0.000000
12.679900 0.000000
12.691800 0.000000
12.703600 0.000000
12.715500 0.000000
12.727300 0.000000
12.739200 0.000000
12.751100 0.000000
12.762900 0.000000
e
