set title 'mp-1102681 - Density of States'
set xlabel 'Energy (eV)'
set ylabel 'DOS (states/eV)'
set grid
set xrange [-10:10]
set yrange [0:9.068]
set xzeroaxis lt -1
set terminal png size 800,600
set output 'mp-1102681_dos_gnuplot.png'
plot '-' using 1:2 with lines title 'DOS'
-18.422600 0.000000
-18.394100 0.000000
-18.365700 0.000000
-18.337200 0.000000
-18.308700 0.000000
-18.280300 0.000000
-18.251800 0.000000
-18.223400 0.000000
-18.194900 0.000000
-18.166500 0.000000
-18.138000 0.000000
-18.109500 0.000000
-18.081100 0.000000
-18.052600 0.000000
-18.024200 0.000000
-17.995700 0.000000
-17.967200 0.000000
-17.938800 0.000000
-17.910300 0.000000
-17.881900 0.000000
-17.853400 0.000000
-17.824900 0.000000
-17.796500 0.000000
-17.768000 0.000000
-17.739600 0.000000
-17.711100 0.000000
-17.682600 0.000000
-17.654200 0.000000
-17.625700 0.000000
-17.597300 0.000000
-17.568800 0.000000
-17.540300 0.000000
-17.511900 0.000000
-17.483400 0.000000
-17.455000 0.000000
-17.426500 0.000000
-17.398000 0.000000
-17.369600 0.000000
-17.341100 0.000000
-17.312700 0.000000
-17.284200 0.000000
-17.255800 0.000000
-17.227300 0.000000
-17.198800 0.000000
-17.170400 0.000000
-17.141900 0.000000
-17.113500 0.000000
-17.085000 0.000000
-17.056500 0.000000
-17.028100 0.000000
-16.999600 0.000000
-16.971200 0.000000
-16.942700 0.000000
-16.914200 0.000000
-16.885800 0.000000
-16.857300 0.000000
-16.828900 0.000000
-16.800400 0.000000
-16.771900 0.000000
-16.743500 0.000000
-16.715000 0.000000
-16.686600 0.000000
-16.658100 0.000000
-16.629600 0.000000
-16.601200 0.000000
-16.572700 0.000000
-16.544300 0.000000
-16.515800 0.000000
-16.487400 0.000000
-16.458900 0.000000
-16.430400 0.000000
-16.402000 0.000000
-16.373500 0.000000
-16.345100 0.000000
-16.316600 0.000000
-16.288100 0.000000
-16.259700 0.000000
-16.231200 0.000000
-16.202800 0.000000
-16.174300 0.000000
-16.145800 0.000000
-16.117400 0.000000
-16.088900 0.000000
-16.060500 0.000000
-16.032000 0.000000
-16.003500 0.000000
-15.975100 0.000000
-15.946600 0.000000
-15.918200 0.000000
-15.889700 0.000000
-15.861200 0.000000
-15.832800 0.000100
-15.804300 0.013200
-15.775900 0.048500
-15.747400 0.105900
-15.718900 0.183800
-15.690500 0.252500
-15.662000 0.307500
-15.633600 0.351000
-15.605100 0.402700
-15.576700 0.393300
-15.548200 0.427200
-15.519700 0.460300
-15.491300 0.492400
-15.462800 0.523700
-15.434400 0.542000
-15.405900 0.537300
-15.377400 0.565600
-15.349000 0.589700
-15.320500 0.606400
-15.292100 0.624400
-15.263600 0.643900
-15.235100 0.664700
-15.206700 0.687000
-15.178200 0.710700
-15.149800 0.736000
-15.121300 0.762800
-15.092800 0.791100
-15.064400 0.818200
-15.035900 0.841200
-15.007500 0.890600
-14.979000 0.937600
-14.950500 0.953400
-14.922100 0.960200
-14.893600 0.978800
-14.865200 0.998400
-14.836700 1.001700
-14.808300 1.003800
-14.779800 1.004400
-14.751300 1.003700
-14.722900 1.001700
-14.694400 0.999300
-14.666000 0.996600
-14.637500 0.995200
-14.609000 0.999800
-14.580600 1.000300
-14.552100 0.996800
-14.523700 0.989200
-14.495200 0.996800
-14.466700 1.038300
-14.438300 1.099900
-14.409800 1.181600
-14.381400 1.270600
-14.352900 1.296400
-14.324400 1.338200
-14.296000 1.357100
-14.267500 1.350400
-14.239100 1.340900
-14.210600 1.366200
-14.182100 1.371500
-14.153700 1.374000
-14.125200 1.379300
-14.096800 1.385600
-14.068300 1.402400
-14.039800 1.500100
-14.011400 1.575100
-13.982900 1.625300
-13.954500 1.670500
-13.926000 1.706900
-13.897600 1.733300
-13.869100 1.746000
-13.840600 1.739000
-13.812200 1.745800
-13.783700 1.768500
-13.755300 1.797500
-13.726800 1.831500
-13.698300 1.877700
-13.669900 1.934700
-13.641400 1.990500
-13.613000 1.990700
-13.584500 1.909900
-13.556000 1.888200
-13.527600 1.873100
-13.499100 1.813400
-13.470700 1.784200
-13.442200 1.753200
-13.413700 1.719800
-13.385300 1.684400
-13.356800 1.647400
-13.328400 1.608700
-13.299900 1.568400
-13.271400 1.526400
-13.243000 1.644900
-13.214500 1.481200
-13.186100 1.510800
-13.157600 1.518800
-13.129200 1.584500
-13.100700 1.591500
-13.072200 1.602200
-13.043800 1.614300
-13.015300 1.632300
-12.986900 1.658600
-12.958400 1.723200
-12.929900 1.829000
-12.901500 1.874900
-12.873000 1.963400
-12.844600 2.029000
-12.816100 2.044400
-12.787600 2.202100
-12.759200 2.582100
-12.730700 2.554200
-12.702300 2.693200
-12.673800 2.974300
-12.645300 3.105100
-12.616900 3.267300
-12.588400 3.355300
-12.560000 3.737000
-12.531500 4.146200
-12.503000 3.982000
-12.474600 4.001600
-12.446100 3.984500
-12.417700 4.338200
-12.389200 4.019500
-12.360700 3.542000
-12.332300 3.484700
-12.303800 3.460500
-12.275400 3.527300
-12.246900 3.748500
-12.218500 3.976200
-12.190000 3.833300
-12.161500 3.713800
-12.133100 5.186500
-12.104600 5.345900
-12.076200 5.618000
-12.047700 3.291400
-12.019200 2.869700
-11.990800 2.669800
-11.962300 2.487300
-11.933900 2.333700
-11.905400 2.200700
-11.876900 2.090400
-11.848500 2.001600
-11.820000 1.897600
-11.791600 1.803600
-11.763100 1.853500
-11.734600 1.934100
-11.706200 2.094800
-11.677700 2.179300
-11.649300 2.150800
-11.620800 2.003600
-11.592300 1.848300
-11.563900 1.761200
-11.535400 1.697500
-11.507000 1.726400
-11.478500 2.114100
-11.450100 2.407900
-11.421600 2.458500
-11.393100 2.617900
-11.364700 2.546800
-11.336200 1.426800
-11.307800 0.137800
-11.279300 0.167100
-11.250800 0.194600
-11.222400 0.220500
-11.193900 0.244500
-11.165500 0.266800
-11.137000 0.287400
-11.108500 0.310700
-11.080100 0.337300
-11.051600 0.349000
-11.023200 0.350400
-10.994700 0.356300
-10.966200 0.366600
-10.937800 0.381200
-10.909300 0.398800
-10.880900 0.418100
-10.852400 0.439100
-10.823900 0.461800
-10.795500 0.486300
-10.767000 0.512500
-10.738600 0.540400
-10.710100 0.570100
-10.681600 0.601500
-10.653200 0.634500
-10.624700 0.669300
-10.596300 0.712600
-10.567800 0.774200
-10.539400 0.906700
-10.510900 0.963400
-10.482400 1.014700
-10.454000 1.060600
-10.425500 1.098600
-10.397100 1.125900
-10.368600 1.138900
-10.340100 1.147500
-10.311700 1.155500
-10.283200 1.163000
-10.254800 1.170000
-10.226300 1.176500
-10.197800 1.333900
-10.169400 1.405900
-10.140900 0.840500
-10.112500 0.820100
-10.084000 0.798300
-10.055500 0.777100
-10.027100 0.756700
-9.998600 0.737100
-9.970200 0.718300
-9.941700 0.700100
-9.913200 0.682800
-9.884800 0.666200
-9.856300 0.650400
-9.827900 0.635300
-9.799400 0.621000
-9.770900 1.067400
-9.742500 1.191700
-9.714000 1.144900
-9.685600 1.206300
-9.657100 1.278000
-9.628700 1.371600
-9.600200 1.509800
-9.571700 1.683400
-9.543300 1.857300
-9.514800 2.030700
-9.486400 2.096900
-9.457900 1.980400
-9.429400 1.697700
-9.401000 1.646900
-9.372500 1.599200
-9.344100 1.554600
-9.315600 1.553000
-9.287100 1.527100
-9.258700 1.505900
-9.230200 1.489400
-9.201800 1.478700
-9.173300 1.472600
-9.144800 1.469300
-9.116400 1.460900
-9.087900 1.457200
-9.059500 1.460900
-9.031000 1.468600
-9.002500 1.481800
-8.974100 1.498900
-8.945600 1.519900
-8.917200 1.545300
-8.888700 1.760500
-8.860300 1.937800
-8.831800 1.935800
-8.803300 1.914700
-8.774900 1.914000
-8.746400 1.910600
-8.718000 1.901700
-8.689500 1.887200
-8.661000 1.812400
-8.632600 1.814600
-8.604100 1.817200
-8.575700 1.820200
-8.547200 1.823500
-8.518700 1.827400
-8.490300 1.832300
-8.461800 1.838200
-8.433400 1.845100
-8.404900 1.853200
-8.376400 1.888500
-8.348000 1.927600
-8.319500 1.942700
-8.291100 1.929000
-8.262600 1.874900
-8.234100 1.857300
-8.205700 1.853900
-8.177200 1.861100
-8.148800 1.867700
-8.120300 1.799700
-8.091800 1.730600
-8.063400 1.717300
-8.034900 1.685700
-8.006500 1.738000
-7.978000 1.860600
-7.949600 1.921400
-7.921100 1.973700
-7.892600 2.015800
-7.864200 1.953700
-7.835700 1.852000
-7.807300 1.749100
-7.778800 1.650600
-7.750300 1.556100
-7.721900 1.462400
-7.693400 1.375200
-7.665000 1.292800
-7.636500 1.215200
-7.608000 1.145500
-7.579600 1.081200
-7.551100 1.024500
-7.522700 0.969600
-7.494200 0.923900
-7.465700 0.910000
-7.437300 1.082900
-7.408800 1.073700
-7.380400 1.083400
-7.351900 1.194500
-7.323400 1.186300
-7.295000 1.236900
-7.266500 1.307900
-7.238100 1.380600
-7.209600 1.454900
-7.181200 1.467300
-7.152700 1.534400
-7.124200 1.633100
-7.095800 1.732300
-7.067300 1.832900
-7.038900 1.931900
-7.010400 1.948000
-6.981900 1.946500
-6.953500 1.994400
-6.925000 1.962600
-6.896600 1.965900
-6.868100 1.970200
-6.839600 1.977400
-6.811200 1.988700
-6.782700 2.001700
-6.754300 2.026400
-6.725800 2.044100
-6.697300 2.050200
-6.668900 1.896400
-6.640400 1.877400
-6.612000 1.866800
-6.583500 1.873400
-6.555000 1.897400
-6.526600 1.869200
-6.498100 1.916100
-6.469700 2.023500
-6.441200 2.116800
-6.412700 2.180700
-6.384300 2.277000
-6.355800 2.430900
-6.327400 2.538700
-6.298900 2.408000
-6.270500 2.246400
-6.242000 2.233200
-6.213500 2.195400
-6.185100 2.108000
-6.156600 2.032600
-6.128200 1.968500
-6.099700 1.933300
-6.071200 1.919800
-6.042800 1.874400
-6.014300 1.833600
-5.985900 1.796800
-5.957400 1.764200
-5.928900 1.735600
-5.900500 1.710900
-5.872000 1.691300
-5.843600 1.658900
-5.815100 1.622100
-5.786600 1.582400
-5.758200 1.539700
-5.729700 1.493900
-5.701300 1.460000
-5.672800 1.444700
-5.644300 1.429400
-5.615900 1.413200
-5.587400 1.395200
-5.559000 1.376700
-5.530500 1.360900
-5.502100 1.348200
-5.473600 1.338500
-5.445100 1.331700
-5.416700 1.342500
-5.388200 1.388300
-5.359800 1.441400
-5.331300 1.466800
-5.302800 1.518500
-5.274400 1.572300
-5.245900 1.619500
-5.217500 1.680800
-5.189000 1.711000
-5.160500 1.723300
-5.132100 1.736100
-5.103600 1.744500
-5.075200 1.769100
-5.046700 1.788900
-5.018200 1.984300
-4.989800 2.369200
-4.961300 2.510100
-4.932900 2.546900
-4.904400 2.205100
-4.875900 1.850200
-4.847500 1.686200
-4.819000 1.558600
-4.790600 1.386800
-4.762100 1.385500
-4.733600 1.243900
-4.705200 1.114400
-4.676700 1.036900
-4.648300 0.987400
-4.619800 0.952700
-4.591400 0.932600
-4.562900 0.971800
-4.534400 1.060000
-4.506000 1.153900
-4.477500 1.356500
-4.449100 1.609300
-4.420600 1.531500
-4.392100 1.565000
-4.363700 1.616500
-4.335200 1.627200
-4.306800 1.607900
-4.278300 1.576500
-4.249800 1.538000
-4.221400 1.504000
-4.192900 1.477500
-4.164500 1.454200
-4.136000 1.443300
-4.107500 1.439300
-4.079100 1.437700
-4.050600 1.443000
-4.022200 1.461700
-3.993700 1.488000
-3.965200 1.520200
-3.936800 1.558200
-3.908300 1.641800
-3.879900 1.711900
-3.851400 1.651600
-3.823000 1.691200
-3.794500 1.824700
-3.766000 1.851600
-3.737600 1.878600
-3.709100 1.902100
-3.680700 1.921800
-3.652200 1.949500
-3.623700 1.981200
-3.595300 2.017500
-3.566800 2.056900
-3.538400 2.194500
-3.509900 2.393800
-3.481400 2.376900
-3.453000 2.738700
-3.424500 2.714900
-3.396100 2.641700
-3.367600 2.546300
-3.339100 2.421000
-3.310700 2.323700
-3.282200 2.244600
-3.253800 2.246700
-3.225300 2.284800
-3.196800 2.412600
-3.168400 2.449500
-3.139900 2.507700
-3.111500 3.292600
-3.083000 3.847700
-3.054500 3.949400
-3.026100 4.032200
-2.997600 4.038700
-2.969200 3.963100
-2.940700 3.919000
-2.912300 3.900100
-2.883800 3.900400
-2.855300 3.015200
-2.826900 2.811700
-2.798400 2.660800
-2.770000 2.608800
-2.741500 2.603000
-2.713000 2.602900
-2.684600 2.586600
-2.656100 2.559400
-2.627700 2.563800
-2.599200 2.662900
-2.570700 2.651700
-2.542300 2.646300
-2.513800 2.792300
-2.485400 2.503200
-2.456900 2.486300
-2.428400 2.470600
-2.400000 2.541800
-2.371500 2.719300
-2.343100 2.877700
-2.314600 3.176500
-2.286100 3.243400
-2.257700 3.346000
-2.229200 3.498500
-2.200800 3.556900
-2.172300 3.528400
-2.143800 3.287400
-2.115400 2.840400
-2.086900 3.077200
-2.058500 2.696500
-2.030000 2.163600
-2.001600 1.885800
-1.973100 1.676000
-1.944600 1.526500
-1.916200 1.400500
-1.887700 1.307000
-1.859300 1.235100
-1.830800 1.184900
-1.802300 1.168500
-1.773900 1.248500
-1.745400 1.448200
-1.717000 1.897900
-1.688500 3.215100
-1.660000 3.593900
-1.631600 3.928900
-1.603100 4.185700
-1.574700 4.361100
-1.546200 4.430400
-1.517700 4.281800
-1.489300 4.645400
-1.460800 4.618200
-1.432400 4.156200
-1.403900 3.390000
-1.375400 2.699200
-1.347000 2.257100
-1.318500 2.324800
-1.290100 2.428600
-1.261600 2.607800
-1.233200 2.902200
-1.204700 3.108400
-1.176200 3.467700
-1.147800 4.010700
-1.119300 4.132300
-1.090900 3.912800
-1.062400 4.001900
-1.033900 3.998700
-1.005500 3.923300
-0.977000 4.049200
-0.948600 4.128400
-0.920100 4.058900
-0.891600 4.237500
-0.863200 4.137500
-0.834700 3.823900
-0.806300 3.470500
-0.777800 3.229100
-0.749300 3.152000
-0.720900 3.215600
-0.692400 3.422400
-0.664000 4.262200
-0.635500 4.428800
-0.607000 4.597000
-0.578600 5.476100
-0.550100 4.518100
-0.521700 4.533200
-0.493200 4.558300
-0.464700 4.611400
-0.436300 4.787400
-0.407800 4.307500
-0.379400 3.951300
-0.350900 3.743800
-0.322500 3.549700
-0.294000 3.464400
-0.265500 3.554200
-0.237100 3.349300
-0.208600 2.854100
-0.180200 2.874400
-0.151700 2.951900
-0.123200 3.046500
-0.094800 3.204800
-0.066300 3.217000
-0.037900 3.497200
-0.009400 4.189000
0.019100 4.843700
0.047500 5.228800
0.076000 5.731500
0.104400 6.038500
0.132900 5.631300
0.161400 5.726600
0.189800 5.768000
0.218300 5.055100
0.246700 4.544600
0.275200 3.632300
0.303700 3.305700
0.332100 3.267400
0.360600 3.301500
0.389000 3.383500
0.417500 3.473900
0.445900 3.618300
0.474400 3.726800
0.502900 3.898600
0.531300 4.082100
0.559800 4.356500
0.588200 5.436800
0.616700 4.910800
0.645200 4.759400
0.673600 4.792600
0.702100 4.842300
0.730500 5.236300
0.759000 5.054300
0.787500 4.147700
0.815900 3.500500
0.844400 2.902500
0.872800 2.595400
0.901300 2.385600
0.929800 2.265400
0.958200 2.334600
0.986700 2.475800
1.015100 2.782100
1.043600 3.027400
1.072100 3.298900
1.100500 3.614700
1.129000 3.964300
1.157400 6.444800
1.185900 5.493200
1.214400 4.579600
1.242800 3.844700
1.271300 3.292300
1.299700 2.853200
1.328200 2.535400
1.356600 2.335400
1.385100 2.483400
1.413600 2.758100
1.442000 3.064600
1.470500 3.398500
1.498900 3.697000
1.527400 4.002600
1.555900 5.029000
1.584300 5.243300
1.612800 5.579800
1.641200 5.976400
1.669700 5.022700
1.698200 4.329300
1.726600 3.731800
1.755100 3.357600
1.783500 3.112200
1.812000 3.025100
1.840500 3.582500
1.868900 4.010100
1.897400 4.545500
1.925800 5.055300
1.954300 5.169400
1.982800 4.677300
2.011200 4.227900
2.039700 4.025400
2.068100 3.848100
2.096600 3.517200
2.125000 3.702900
2.153500 3.964200
2.182000 3.306500
2.210400 2.638200
2.238900 2.082600
2.267300 1.752000
2.295800 1.462600
2.324300 1.214300
2.352700 1.002200
2.381200 0.806700
2.409600 0.629500
2.438100 0.590600
2.466600 0.245300
2.495000 0.090900
2.523500 0.013600
2.551900 0.000000
2.580400 0.000000
2.608900 0.000000
2.637300 0.000000
2.665800 0.000000
2.694200 0.000000
2.722700 0.000000
2.751200 0.000000
2.779600 0.000000
2.808100 0.000000
2.836500 0.000000
2.865000 0.000000
2.893500 0.000000
2.921900 0.000000
2.950400 0.000000
2.978800 0.000000
3.007300 0.000000
3.035700 0.000000
3.064200 0.000000
3.092700 0.000000
3.121100 0.000000
3.149600 0.000000
3.178000 0.000000
3.206500 0.000000
3.235000 0.000000
3.263400 0.000000
3.291900 0.000000
3.320300 0.000000
3.348800 0.000000
3.377300 0.000000
3.405700 0.000000
3.434200 0.000000
3.462600 0.000000
3.491100 0.000000
3.519600 0.000000
3.548000 0.022800
3.576500 0.095300
3.604900 0.208500
3.633400 0.256500
3.661900 0.297200
3.690300 0.330700
3.718800 0.357000
3.747200 0.400400
3.775700 0.452400
3.804100 0.503300
3.832600 0.553100
3.861100 0.601300
3.889500 0.646800
3.918000 0.689400
3.946400 0.731900
3.974900 0.793000
4.003400 0.809300
4.031800 0.863600
4.060300 0.902800
4.088700 0.945400
4.117200 0.991500
4.145700 1.041600
4.174100 1.103300
4.202600 1.171400
4.231000 1.245900
4.259500 1.321200
4.288000 1.431500
4.316400 1.550200
4.344900 1.679700
4.373300 1.818300
4.401800 1.982500
4.430300 2.186000
4.458700 2.792500
4.487200 3.321400
4.515600 3.922800
4.544100 4.477200
4.572600 6.341400
4.601000 5.331200
4.629500 4.683300
4.657900 4.041000
4.686400 3.593000
4.714800 3.348900
4.743300 3.111400
4.771800 2.885400
4.800200 2.602000
4.828700 2.290300
4.857100 1.986900
4.885600 1.975000
4.914100 1.758100
4.942500 1.736300
4.971000 1.719400
4.999400 1.701500
5.027900 1.760200
5.056400 1.795400
5.084800 1.888900
5.113300 2.053300
5.141700 2.192100
5.170200 2.394200
5.198700 2.622100
5.227100 2.865800
5.255600 3.069800
5.284000 3.240100
5.312500 3.330900
5.341000 3.430100
5.369400 3.689100
5.397900 3.792700
5.426300 3.877300
5.454800 3.842500
5.483200 4.030900
5.511700 4.328600
5.540200 4.739100
5.568600 4.665000
5.597100 4.275200
5.625500 4.525200
5.654000 4.310900
5.682500 3.990400
5.710900 3.832900
5.739400 3.612400
5.767800 3.968300
5.796300 4.474900
5.824800 4.087000
5.853200 4.283800
5.881700 4.277300
5.910100 4.378500
5.938600 4.550500
5.967100 5.617100
5.995500 6.106100
6.024000 7.586600
6.052400 8.243500
6.080900 6.866000
6.109400 6.277000
6.137800 6.028100
6.166300 5.712100
6.194700 5.431300
6.223200 4.396700
6.251700 3.567900
6.280100 2.683800
6.308600 1.930800
6.337000 1.063700
6.365500 0.938500
6.393900 0.892400
6.422400 0.839700
6.450900 0.780200
6.479300 0.705500
6.507800 0.656600
6.536200 0.660000
6.564700 0.714000
6.593200 0.802700
6.621600 0.996300
6.650100 1.358300
6.678500 1.832000
6.707000 2.417500
6.735500 3.617000
6.763900 3.843200
6.792400 4.180300
6.820800 4.368900
6.849300 3.121200
6.877800 2.541700
6.906200 2.690200
6.934700 2.976300
6.963100 3.146100
6.991600 3.237400
7.020100 3.128800
7.048500 3.003600
7.077000 2.855700
7.105400 2.671900
7.133900 2.702200
7.162400 2.656700
7.190800 2.799000
7.219300 3.029500
7.247700 3.296800
7.276200 3.543900
7.304600 3.733900
7.333100 3.999200
7.361600 4.317800
7.390000 4.738900
7.418500 4.742900
7.446900 4.518600
7.475400 4.330800
7.503900 4.220200
7.532300 4.119200
7.560800 4.026000
7.589200 3.943800
7.617700 3.861500
7.646200 3.767800
7.674600 3.677900
7.703100 3.626000
7.731500 3.605000
7.760000 3.565900
7.788500 3.499200
7.816900 3.310200
7.845400 3.247400
7.873800 3.182100
7.902300 3.113800
7.930800 3.038500
7.959200 2.980000
7.987700 2.932400
8.016100 2.889800
8.044600 2.856400
8.073000 2.838800
8.101500 2.828300
8.130000 2.825700
8.158400 2.815500
8.186900 2.996300
8.215300 3.183700
8.243800 3.423400
8.272300 3.738900
8.300700 4.159200
8.329200 4.300000
8.357600 3.046600
8.386100 2.460900
8.414600 2.174600
8.443000 2.106000
8.471500 2.039900
8.499900 1.977400
8.528400 1.960300
8.556900 1.976000
8.585300 1.882000
8.613800 1.966100
8.642200 2.053400
8.670700 2.076400
8.699200 2.211400
8.727600 2.403400
8.756100 2.413700
8.784500 2.348700
8.813000 2.214800
8.841500 1.880000
8.869900 1.866000
8.898400 1.946300
8.926800 1.941600
8.955300 1.871400
8.983700 1.784500
9.012200 1.725600
9.040700 1.645400
9.069100 1.567400
9.097600 1.491700
9.126000 1.423100
9.154500 1.409800
9.183000 1.464100
9.211400 1.559100
9.239900 1.660300
9.268300 1.727000
9.296800 1.460500
9.325300 1.187900
9.353700 1.031700
9.382200 0.894600
9.410600 0.776400
9.439100 0.677300
9.467600 0.714600
9.496000 0.445000
9.524500 0.125500
9.552900 0.000000
9.581400 0.000000
9.609900 0.000000
9.638300 0.000000
9.666800 0.000000
9.695200 0.000000
9.723700 0.000000
9.752100 0.000000
9.780600 0.000000
9.809100 0.000000
9.837500 0.000000
9.866000 0.000000
9.894400 0.000000
9.922900 0.000000
9.951400 0.000000
9.979800 0.000000
10.008300 0.000000
10.036700 0.000000
10.065200 0.000000
10.093700 0.000000
10.122100 0.000000
10.150600 0.000000
10.179000 0.000000
10.207500 0.000000
10.236000 0.000000
10.264400 0.000000
10.292900 0.000000
10.321300 0.000000
10.349800 0.000000
10.378300 0.000000
10.406700 0.000000
10.435200 0.000000
10.463600 0.000000
10.492100 0.000000
10.520600 0.000000
10.549000 0.000000
10.577500 0.000000
10.605900 0.000000
10.634400 0.000000
10.662800 0.000000
10.691300 0.000000
10.719800 0.000000
10.748200 0.000000
10.776700 0.000000
10.805100 0.000000
10.833600 0.000000
10.862100 0.000000
10.890500 0.000000
10.919000 0.000000
10.947400 0.000000
10.975900 0.000000
11.004400 0.000000
11.032800 0.000000
11.061300 0.000000
11.089700 0.000000
11.118200 0.000000
11.146700 0.000000
11.175100 0.000000
11.203600 0.000000
11.232000 0.000000
11.260500 0.000000
11.289000 0.000000
11.317400 0.000000
11.345900 0.000000
11.374300 0.000000
11.402800 0.000000
11.431200 0.000000
11.459700 0.000000
11.488200 0.000000
11.516600 0.000000
11.545100 0.000000
11.573500 0.000000
11.602000 0.000000
11.630500 0.000000
11.658900 0.000000
11.687400 0.000000
11.715800 0.000000
11.744300 0.000000
11.772800 0.000000
11.801200 0.000000
11.829700 0.000000
11.858100 0.000000
11.886600 0.000000
11.915100 0.000000
11.943500 0.000000
11.972000 0.000000
12.000400 0.000000
12.028900 0.000000
12.057400 0.000000
12.085800 0.000000
12.114300 0.000000
12.142700 0.000000
12.171200 0.000000
12.199700 0.000000
12.228100 0.000000
12.256600 0.000000
12.285000 0.000000
12.313500 0.000000
12.341900 0.000000
12.370400 0.000000
12.398900 0.000000
12.427300 0.000000
12.455800 0.000000
12.484200 0.000000
12.512700 0.000000
12.541200 0.000000
12.569600 0.000000
12.598100 0.000000
12.626500 0.000000
12.655000 0.000000
12.683500 0.000000
12.711900 0.000000
12.740400 0.000000
12.768800 0.000000
12.797300 0.000000
12.825800 0.000000
12.854200 0.000000
12.882700 0.000000
12.911100 0.000000
12.939600 0.000000
12.968100 0.000000
12.996500 0.000000
13.025000 0.000000
13.053400 0.000000
13.081900 0.000000
13.110300 0.000000
13.138800 0.000000
13.167300 0.000000
13.195700 0.000000
13.224200 0.000000
13.252600 0.000000
13.281100 0.007500
13.309600 0.187800
13.338000 0.625700
13.366500 1.502700
13.394900 2.116600
13.423400 2.752300
13.451900 3.380400
13.480300 3.121400
13.508800 3.103300
13.537200 3.136500
13.565700 3.187500
13.594200 3.255000
13.622600 3.316600
13.651100 3.412300
13.679500 3.616700
13.708000 3.692200
13.736500 3.744900
13.764900 3.801100
13.793400 3.696100
13.821800 3.398300
13.850300 3.366400
13.878800 3.739500
13.907200 3.670900
13.935700 3.505400
13.964100 3.473500
13.992600 3.192300
14.021000 3.120900
14.049500 3.172700
14.078000 3.359900
14.106400 3.579200
14.134900 3.728900
14.163300 3.884300
14.191800 3.982800
14.220300 4.030900
14.248700 3.888200
14.277200 3.971900
14.305600 4.029400
14.334100 4.151600
14.362600 4.225100
14.391000 4.315300
14.419500 4.405400
14.447900 4.462900
14.476400 4.490600
14.504900 4.538600
14.533300 4.583900
14.561800 5.513300
14.590200 5.984100
14.618700 5.581300
14.647200 5.130800
14.675600 5.134100
14.704100 6.280800
14.732500 7.692100
14.761000 6.379600
14.789500 5.529600
14.817900 5.127400
14.846400 4.629500
14.874800 5.206800
14.903300 3.923300
14.931700 3.591300
14.960200 3.083500
14.988700 2.916600
15.017100 2.677500
15.045600 2.674500
15.074000 3.606400
15.102500 7.782500
15.131000 6.787600
15.159400 5.383000
15.187900 4.906500
15.216300 3.673200
15.244800 3.030700
15.273300 2.574700
15.301700 2.496000
15.330200 2.633500
15.358600 3.987700
15.387100 9.016000
15.415600 10.331400
15.444000 9.822800
15.472500 8.323700
15.500900 6.210300
15.529400 5.101800
15.557900 4.653000
15.586300 4.456000
15.614800 4.233300
15.643200 4.778600
15.671700 4.860300
15.700100 4.963600
15.728600 5.050600
15.757100 5.137300
15.785500 5.276600
15.814000 5.275000
15.842400 5.115800
15.870900 4.947900
15.899400 4.755500
15.927800 4.512400
15.956300 4.322400
15.984700 3.912200
16.013200 3.446200
16.041700 2.765100
16.070100 2.809100
16.098600 2.932100
16.127000 2.569200
16.155500 2.461700
16.184000 2.313700
16.212400 2.286300
16.240900 2.267700
16.269300 2.254700
16.297800 2.263200
16.326300 2.283900
16.354700 2.398500
16.383200 2.618500
16.411600 2.720200
16.440100 2.738200
16.468600 2.456700
16.497000 2.520500
16.525500 2.555300
16.553900 2.618900
16.582400 2.862500
16.610800 2.824700
16.639300 3.126700
16.667800 3.284000
16.696200 3.386500
16.724700 4.231100
16.753100 4.362000
16.781600 4.541800
16.810100 4.281700
16.838500 3.963400
16.867000 3.333700
16.895400 2.565400
16.923900 2.955900
16.952400 3.666400
16.980800 3.565300
17.009300 3.758600
17.037700 3.965800
17.066200 4.400800
17.094700 4.722300
17.123100 5.096700
17.151600 5.362000
17.180000 5.469600
17.208500 5.417900
17.237000 5.035100
17.265400 4.743300
17.293900 4.592100
17.322300 3.918700
17.350800 3.411600
17.379200 3.065900
17.407700 3.179100
17.436200 3.463600
17.464600 3.890100
17.493100 5.022200
17.521500 5.332100
17.550000 5.286500
17.578500 5.166900
17.606900 4.733400
17.635400 4.411600
17.663800 4.392300
17.692300 4.541300
17.720800 4.608300
17.749200 4.249200
17.777700 3.874000
17.806100 3.684500
17.834600 3.459700
17.863100 3.885000
17.891500 2.315800
17.920000 2.565600
17.948400 3.162500
17.976900 3.530600
18.005400 3.738500
18.033800 3.733000
18.062300 3.666800
18.090700 3.994700
18.119200 4.064000
18.147700 4.700300
18.176100 3.843900
18.204600 3.827500
18.233000 3.835100
18.261500 3.868000
18.289900 4.371700
18.318400 4.527200
18.346900 4.496100
18.375300 4.386600
18.403800 4.039700
18.432200 3.262800
18.460700 3.191900
18.489200 3.600300
18.517600 4.426800
18.546100 5.187900
18.574500 5.863400
18.603000 5.419200
18.631500 4.758300
18.659900 4.196300
18.688400 3.731600
18.716800 3.304400
18.745300 3.018400
18.773800 2.671000
18.802200 2.318300
18.830700 2.430200
18.859100 2.924200
18.887600 3.381200
18.916100 3.745700
18.944500 4.299400
18.973000 5.057200
19.001400 5.053000
19.029900 5.100300
19.058300 5.388800
19.086800 4.415000
19.115300 4.454200
19.143700 4.370200
19.172200 4.184400
19.200600 3.959800
19.229100 3.724600
19.257600 3.601500
19.286000 3.554600
19.314500 3.597800
19.342900 3.566100
19.371400 3.617900
19.399900 3.616700
19.428300 3.476800
19.456800 3.687000
19.485200 3.972600
19.513700 4.485800
19.542200 5.040800
19.570600 5.562900
19.599100 6.191600
19.627500 7.281200
19.656000 6.615700
19.684500 5.937800
19.712900 4.944700
19.741400 4.680000
19.769800 4.581300
19.798300 4.503300
19.826800 4.404100
19.855200 4.477700
19.883700 4.507700
19.912100 4.424300
19.940600 4.380000
19.969000 4.488400
19.997500 4.468100
20.026000 5.024100
20.054400 5.564700
20.082900 6.234500
20.111300 6.312900
20.139800 6.403500
20.168300 7.245600
20.196700 7.050200
20.225200 4.791500
20.253600 4.682100
20.282100 4.306900
20.310600 3.775500
20.339000 3.367100
20.367500 3.143600
20.395900 3.511900
20.424400 3.389200
20.452900 3.243300
20.481300 3.243300
20.509800 3.206900
20.538200 3.226200
20.566700 3.438400
20.595200 3.562000
20.623600 3.723300
20.652100 4.076100
20.680500 4.169300
20.709000 4.549900
20.737400 4.732500
20.765900 4.030700
20.794400 3.812600
20.822800 3.795700
20.851300 3.784600
20.879700 3.986100
20.908200 4.178500
20.936700 4.475700
20.965100 4.758800
20.993600 4.654400
21.022000 4.238200
21.050500 4.254400
21.079000 4.233900
21.107400 4.063200
21.135900 3.984800
21.164300 3.665300
21.192800 3.504800
21.221300 3.613700
21.249700 3.295300
21.278200 3.117000
21.306600 2.749100
21.335100 2.835100
21.363600 3.298500
21.392000 3.323500
21.420500 3.172900
21.448900 3.182900
21.477400 3.182500
21.505900 3.843300
21.534300 3.949400
21.562800 3.943900
21.591200 3.881600
21.619700 3.897900
21.648100 3.557000
21.676600 3.200500
21.705100 2.868200
21.733500 2.567000
21.762000 2.308900
21.790400 2.166100
21.818900 2.378800
21.847400 2.503600
21.875800 2.623600
21.904300 2.808000
21.932700 3.140000
21.961200 3.410800
21.989700 4.295700
22.018100 4.198000
22.046600 4.331300
22.075000 4.648500
22.103500 4.459300
22.132000 4.444200
22.160400 4.321300
22.188900 4.013200
22.217300 3.928200
22.245800 3.835800
22.274300 3.738300
22.302700 3.631400
22.331200 3.556800
22.359600 3.318400
22.388100 3.116700
22.416600 2.851700
22.445000 2.740700
22.473500 2.767700
22.501900 2.882900
22.530400 3.071300
22.558800 3.425500
22.587300 3.880200
22.615800 4.091000
22.644200 4.152800
22.672700 4.527100
22.701100 4.874600
22.729600 5.430700
22.758100 5.644500
22.786500 5.600200
22.815000 4.717800
22.843400 4.039200
22.871900 3.649400
22.900400 3.575000
22.928800 3.498400
22.957300 3.252500
22.985700 4.118900
23.014200 4.042100
23.042700 4.234800
23.071100 3.694800
23.099600 4.639300
23.128000 3.909600
23.156500 3.676100
23.185000 3.428400
23.213400 3.132800
23.241900 3.034800
23.270300 3.696600
23.298800 4.472900
23.327200 4.877100
23.355700 5.203600
23.384200 5.667700
23.412600 5.359200
23.441100 4.031300
23.469500 2.810200
23.498000 2.703200
23.526500 2.641900
23.554900 2.610500
23.583400 2.555800
23.611800 2.669200
23.640300 2.806300
23.668800 3.007100
23.697200 3.270400
23.725700 3.584500
23.754100 4.011700
23.782600 4.544000
23.811100 4.836900
23.839500 5.115900
23.868000 6.038700
23.896400 4.018400
23.924900 3.543900
23.953400 3.260300
23.981800 3.072500
24.010300 2.902000
24.038700 2.803600
24.067200 2.737700
24.095700 2.753600
24.124100 2.806200
24.152600 2.835100
24.181000 2.878600
24.209500 3.015500
24.237900 3.138300
24.266400 3.224500
24.294900 3.583800
24.323300 4.592800
24.351800 4.395400
24.380200 4.029800
24.408700 3.900100
24.437200 3.949900
24.465600 3.737500
24.494100 3.845800
24.522500 3.345300
24.551000 3.020300
24.579500 2.987800
24.607900 2.636800
24.636400 2.551700
24.664800 2.847600
24.693300 3.053100
24.721800 3.016400
24.750200 2.890000
24.778700 2.932500
24.807100 3.048700
24.835600 4.560900
24.864100 5.107800
24.892500 3.139800
24.921000 3.090400
24.949400 3.398400
24.977900 3.820500
25.006300 3.499300
25.034800 3.306000
25.063300 3.202300
25.091700 3.164900
25.120200 2.892600
25.148600 2.861700
25.177100 2.847000
25.205600 2.886100
25.234000 3.028800
25.262500 3.023100
25.290900 2.777500
25.319400 2.759500
25.347900 2.526000
25.376300 2.548700
25.404800 2.598300
25.433200 2.671400
25.461700 2.719300
25.490200 2.807100
25.518600 3.101300
25.547100 3.275900
25.575500 3.474800
25.604000 3.625000
25.632500 3.638000
25.660900 3.546500
25.689400 3.391800
25.717800 3.171700
25.746300 2.969800
25.774800 2.793500
25.803200 2.494000
25.831700 2.391600
25.860100 2.313000
25.888600 2.278500
25.917000 2.333100
25.945500 2.408700
25.974000 2.458100
26.002400 2.437700
26.030900 2.405000
26.059300 2.360800
26.087800 2.247100
26.116300 2.144200
26.144700 2.083100
26.173200 2.074300
26.201600 2.110100
26.230100 2.347100
26.258600 2.733400
26.287000 2.799400
26.315500 2.550500
26.343900 2.292800
26.372400 2.116900
26.400900 1.985500
26.429300 1.898500
26.457800 1.848200
26.486200 1.852400
26.514700 1.966100
26.543200 2.358600
26.571600 3.681700
26.600100 4.146600
26.628500 4.627500
26.657000 4.592200
26.685400 4.157500
26.713900 3.343100
26.742400 3.012600
26.770800 2.637500
26.799300 2.378300
26.827700 2.211600
26.856200 2.016500
26.884700 1.842900
26.913100 1.680000
26.941600 1.530000
26.970000 1.395800
26.998500 1.278300
27.027000 1.196000
27.055400 1.119300
27.083900 1.051800
27.112300 1.059700
27.140800 0.835800
27.169300 0.759900
27.197700 0.692400
27.226200 0.654300
27.254600 0.680900
27.283100 0.731300
27.311600 0.760000
27.340000 0.804500
27.368500 0.891100
27.396900 0.978000
27.425400 1.071600
27.453900 1.175600
27.482300 2.078400
27.510800 2.470200
27.539200 2.990300
27.567700 3.809400
27.596100 6.917400
27.624600 8.889200
27.653100 7.184400
27.681500 6.016700
27.710000 5.893900
27.738400 5.009400
27.766900 3.839000
27.795400 3.086400
27.823800 2.475100
27.852300 2.189000
27.880700 1.837800
27.909200 1.460100
27.937700 2.307700
27.966100 2.420300
27.994600 2.750000
28.023000 3.147100
28.051500 3.537500
28.080000 4.028500
28.108400 6.144700
28.136900 9.562600
28.165300 10.495800
28.193800 8.434400
28.222300 6.070600
28.250700 3.720600
28.279200 2.293500
28.307600 1.608100
28.336100 1.537300
28.364500 1.463000
28.393000 1.714800
28.421500 2.389300
28.449900 5.229100
28.478400 7.193300
28.506800 7.405800
28.535300 7.532900
28.563800 7.648000
28.592200 5.375000
28.620700 4.920400
28.649100 5.946800
28.677600 3.685600
28.706100 2.976600
28.734500 2.459100
28.763000 2.067800
28.791400 1.811800
28.819900 1.677600
28.848400 1.570100
28.876800 1.668500
28.905300 1.899400
28.933700 2.218500
28.962200 2.515400
28.990700 2.989500
29.019100 3.565200
29.047600 3.403000
29.076000 3.479500
29.104500 3.472900
29.133000 3.523100
29.161400 3.767800
29.189900 3.687800
29.218300 3.530300
29.246800 3.479700
29.275200 3.657800
29.303700 4.106600
29.332200 4.518800
29.360600 5.208800
29.389100 4.187400
29.417500 3.127000
29.446000 2.267400
29.474500 1.619700
29.502900 1.076700
29.531400 0.929800
29.559800 1.019000
29.588300 1.332600
29.616800 2.085600
29.645200 3.893600
29.673700 4.869300
29.702100 4.170800
29.730600 4.067300
29.759100 4.337100
29.787500 3.934400
29.816000 3.827500
29.844400 3.880100
29.872900 3.752500
29.901400 3.633400
29.929800 3.644100
29.958300 3.568900
29.986700 3.447800
30.015200 3.206300
30.043600 3.010200
30.072100 2.935600
30.100600 3.446900
30.129000 4.292800
30.157500 5.614500
30.185900 6.015100
30.214400 5.369100
30.242900 4.702600
30.271300 4.439400
30.299800 4.105700
30.328200 3.815100
30.356700 3.269000
30.385200 2.838900
30.413600 2.347900
30.442100 2.169000
30.470500 2.058300
30.499000 1.963600
30.527500 1.881800
30.555900 1.806000
30.584400 1.736100
30.612800 1.672100
30.641300 1.614200
30.669800 1.580100
30.698200 1.565100
30.726700 1.515900
30.755100 1.460900
30.783600 1.430300
30.812100 1.372600
30.840500 1.303100
30.869000 1.262500
30.897400 1.200700
30.925900 1.123500
30.954300 1.165300
30.982800 1.476300
31.011300 1.424200
31.039700 1.647900
31.068200 2.035900
31.096600 2.089700
31.125100 1.938600
31.153600 2.019700
31.182000 2.093100
31.210500 2.158700
31.238900 2.216800
31.267400 2.312000
31.295900 2.405600
31.324300 2.497700
31.352800 2.587200
31.381200 2.656000
31.409700 2.675000
31.438200 2.648600
31.466600 2.613400
31.495100 2.568600
31.523500 2.558700
31.552000 2.541500
31.580500 2.608300
31.608900 2.765600
31.637400 2.915700
31.665800 2.967800
31.694300 3.102200
31.722800 3.196500
31.751200 3.190300
31.779700 3.064400
31.808100 2.655800
31.836600 2.364200
31.865000 2.218900
31.893500 2.127900
31.922000 2.084200
31.950400 2.067100
31.978900 2.060400
32.007300 2.023300
32.035800 1.966500
32.064300 1.955500
32.092700 1.946500
32.121200 1.939600
32.149600 1.939600
32.178100 1.941100
32.206600 1.946000
32.235000 1.963900
32.263500 1.994300
32.291900 2.029400
32.320400 2.069800
32.348900 2.097000
32.377300 2.039100
32.405800 1.985000
32.434200 1.934900
32.462700 1.888300
32.491200 1.846200
32.519600 1.813900
32.548100 1.786200
32.576500 1.768000
32.605000 1.782500
32.633400 1.799100
32.661900 1.957200
32.690400 1.923900
32.718800 1.999300
32.747300 2.100000
32.775700 2.217600
32.804200 2.233600
32.832700 2.405300
32.861100 2.593400
32.889600 2.802100
32.918000 2.874100
32.946500 3.115100
32.975000 3.148900
33.003400 3.081000
33.031900 3.037500
33.060300 3.140800
33.088800 3.315800
33.117300 2.328400
33.145700 2.258400
33.174200 2.173700
33.202600 2.177700
33.231100 2.253600
33.259600 2.383900
33.288000 2.544800
33.316500 2.729700
33.344900 2.856700
33.373400 2.932200
33.401900 3.453200
33.430300 2.791700
33.458800 2.662100
33.487200 2.644500
33.515700 2.603800
33.544100 2.579000
33.572600 2.557300
33.601100 2.533700
33.629500 2.508100
33.658000 2.480200
33.686400 2.578200
33.714900 2.779600
33.743400 2.828700
33.771800 3.010700
33.800300 2.955100
33.828700 2.800500
33.857200 2.648600
33.885700 2.490000
33.914100 2.324200
33.942600 2.074100
33.971000 1.939100
33.999500 1.803200
34.028000 1.603400
34.056400 1.518000
34.084900 1.458500
34.113300 1.430500
34.141800 1.273400
34.170300 1.262300
34.198700 1.201800
34.227200 1.129400
34.255600 1.077400
34.284100 1.006800
34.312500 0.811500
34.341000 0.704300
34.369500 0.601400
34.397900 0.502900
34.426400 0.408600
34.454800 0.314700
34.483300 0.218100
34.511800 0.168600
34.540200 0.156700
34.568700 0.145500
34.597100 0.135200
34.625600 0.125600
34.654100 0.114900
34.682500 0.107000
34.711000 0.099900
34.739400 0.093800
34.767900 0.088700
34.796400 0.084200
34.824800 0.079700
34.853300 0.075100
34.881700 0.070300
34.910200 0.065300
34.938700 0.060200
34.967100 0.054800
34.995600 0.049300
35.024000 0.043700
35.052500 0.037800
35.081000 0.032400
35.109400 0.030200
35.137900 0.028100
35.166300 0.026100
35.194800 0.024100
35.223200 0.022200
35.251700 0.020400
35.280200 0.018700
35.308600 0.017000
35.337100 0.015500
35.365500 0.014000
35.394000 0.012500
35.422500 0.011200
35.450900 0.009900
35.479400 0.008700
35.507800 0.007600
35.536300 0.006600
35.564800 0.005600
35.593200 0.004700
35.621700 0.003900
35.650100 0.003200
35.678600 0.002500
35.707100 0.001900
35.735500 0.001400
35.764000 0.001000
35.792400 0.000600
35.820900 0.000400
35.849400 0.000200
35.877800 0.000000
35.906300 0.000000
35.934700 0.000000
35.963200 0.000000
35.991600 0.000000
36.020100 0.000000
36.048600 0.000000
36.077000 0.000000
36.105500 0.000000
36.133900 0.000000
36.162400 0.000000
36.190900 0.000000
36.219300 0.000000
36.247800 0.000000
36.276200 0.000000
36.304700 0.000000
36.333200 0.000000
36.361600 0.000000
36.390100 0.000000
36.418500 0.000000
36.447000 0.000000
36.475500 0.000000
36.503900 0.000000
36.532400 0.000000
36.560800 0.000000
36.589300 0.000000
36.617800 0.000000
36.646200 0.000000
36.674700 0.000000
36.703100 0.000000
36.731600 0.000000
36.760100 0.000000
36.788500 0.000000
36.817000 0.000000
36.845400 0.000000
36.873900 0.000000
36.902300 0.000000
36.930800 0.000000
36.959300 0.000000
36.987700 0.000000
37.016200 0.000000
37.044600 0.000000
37.073100 0.000000
37.101600 0.000000
37.130000 0.000000
37.158500 0.000000
37.186900 0.000000
37.215400 0.000000
37.243900 0.000000
37.272300 0.000000
37.300800 0.000000
37.329200 0.000000
37.357700 0.000000
37.386200 0.000000
37.414600 0.000000
37.443100 0.000000
37.471500 0.000000
37.500000 0.000000
37.528500 0.000000
37.556900 0.000000
37.585400 0.000000
37.613800 0.000000
37.642300 0.000000
37.670700 0.000000
37.699200 0.000000
37.727700 0.000000
37.756100 0.000000
37.784600 0.000000
37.813000 0.000000
37.841500 0.000000
37.870000 0.000000
37.898400 0.000000
37.926900 0.000000
37.955300 0.000000
37.983800 0.000000
38.012300 0.000000
38.040700 0.000000
38.069200 0.000000
38.097600 0.000000
38.126100 0.000000
38.154600 0.000000
38.183000 0.000000
38.211500 0.000000
38.239900 0.000000
38.268400 0.000000
38.296900 0.000000
38.325300 0.000000
38.353800 0.000000
38.382200 0.000000
38.410700 0.000000
38.439200 0.000000
38.467600 0.000000
38.496100 0.000000
e
