set title 'mp-1183200 - Density of States'
set xlabel 'Energy (eV)'
set ylabel 'DOS (states/eV)'
set grid
set xrange [-10:10]
set yrange [0:2.422]
set xzeroaxis lt -1
set terminal png size 800,600
set output 'mp-1183200_dos_gnuplot.png'
plot '-' using 1:2 with lines title 'DOS'
-16.026900 0.000000
-15.999900 0.000000
-15.972900 0.000000
-15.945900 0.000000
-15.918900 0.000000
-15.891900 0.000000
-15.864900 0.000000
-15.838000 0.000000
-15.811000 0.000000
-15.784000 0.000000
-15.757000 0.000000
-15.730000 0.000000
-15.703000 0.000000
-15.676100 0.000000
-15.649100 0.000000
-15.622100 0.000000
-15.595100 0.000000
-15.568100 0.000000
-15.541100 0.000000
-15.514100 0.000000
-15.487200 0.000000
-15.460200 0.000000
-15.433200 0.000000
-15.406200 0.000000
-15.379200 0.000000
-15.352200 0.000000
-15.325300 0.000000
-15.298300 0.000000
-15.271300 0.000000
-15.244300 0.000000
-15.217300 0.000000
-15.190300 0.000000
-15.163300 0.000000
-15.136400 0.000000
-15.109400 0.000000
-15.082400 0.000000
-15.055400 0.000000
-15.028400 0.000000
-15.001400 0.000000
-14.974400 0.000000
-14.947500 0.000000
-14.920500 0.000000
-14.893500 0.000000
-14.866500 0.000000
-14.839500 0.000000
-14.812500 0.000000
-14.785600 0.000000
-14.758600 0.000000
-14.731600 0.000000
-14.704600 0.000000
-14.677600 0.000000
-14.650600 0.000000
-14.623600 0.000000
-14.596700 0.000000
-14.569700 0.000000
-14.542700 0.000000
-14.515700 0.000000
-14.488700 0.000000
-14.461700 0.000000
-14.434800 0.000000
-14.407800 0.000000
-14.380800 0.000000
-14.353800 0.000000
-14.326800 0.000000
-14.299800 0.000000
-14.272800 0.000000
-14.245900 0.000000
-14.218900 0.000000
-14.191900 0.000000
-14.164900 0.000000
-14.137900 0.000000
-14.110900 0.000000
-14.083900 0.000000
-14.057000 0.000000
-14.030000 0.000000
-14.003000 0.000000
-13.976000 0.000000
-13.949000 0.000000
-13.922000 0.000000
-13.895100 0.000000
-13.868100 0.000000
-13.841100 0.000000
-13.814100 0.000000
-13.787100 0.000000
-13.760100 0.000000
-13.733100 0.000000
-13.706200 0.000000
-13.679200 0.000000
-13.652200 0.000000
-13.625200 0.000000
-13.598200 0.000000
-13.571200 168.892400
-13.544300 266.903800
-13.517300 0.000000
-13.490300 0.000000
-13.463300 0.000000
-13.436300 0.000000
-13.409300 0.000000
-13.382300 0.000000
-13.355400 0.000000
-13.328400 0.000000
-13.301400 0.000000
-13.274400 0.000000
-13.247400 0.000000
-13.220400 0.000000
-13.193500 0.000000
-13.166500 0.000000
-13.139500 0.000000
-13.112500 0.000000
-13.085500 0.000000
-13.058500 0.000000
-13.031500 0.000000
-13.004600 0.000000
-12.977600 0.000000
-12.950600 0.000000
-12.923600 0.000000
-12.896600 0.000000
-12.869600 0.000000
-12.842600 0.000000
-12.815700 0.000000
-12.788700 0.000000
-12.761700 0.000000
-12.734700 0.000000
-12.707700 0.000000
-12.680700 0.000000
-12.653800 0.000000
-12.626800 0.000000
-12.599800 0.000000
-12.572800 0.000000
-12.545800 0.000000
-12.518800 0.000000
-12.491800 0.000000
-12.464900 0.000000
-12.437900 0.000000
-12.410900 0.000000
-12.383900 0.000000
-12.356900 0.000000
-12.329900 0.000000
-12.303000 0.000000
-12.276000 0.000000
-12.249000 0.000000
-12.222000 0.000000
-12.195000 0.000000
-12.168000 0.000000
-12.141000 0.000000
-12.114100 0.000000
-12.087100 0.000000
-12.060100 0.000000
-12.033100 0.000000
-12.006100 0.000000
-11.979100 0.000000
-11.952100 0.000000
-11.925200 0.000000
-11.898200 0.000000
-11.871200 0.000000
-11.844200 0.000000
-11.817200 0.000000
-11.790200 0.000000
-11.763300 0.000000
-11.736300 0.000000
-11.709300 0.000000
-11.682300 0.000000
-11.655300 0.000000
-11.628300 0.000000
-11.601300 0.000000
-11.574400 0.000000
-11.547400 0.000000
-11.520400 0.000000
-11.493400 0.000000
-11.466400 0.000000
-11.439400 0.000000
-11.412500 0.000000
-11.385500 0.000000
-11.358500 0.000000
-11.331500 0.000000
-11.304500 0.000000
-11.277500 0.000000
-11.250500 0.000000
-11.223600 0.000000
-11.196600 0.000000
-11.169600 0.000000
-11.142600 0.000000
-11.115600 0.000000
-11.088600 0.000000
-11.061600 0.000000
-11.034700 0.000000
-11.007700 0.000000
-10.980700 0.000000
-10.953700 0.000000
-10.926700 0.000000
-10.899700 0.000000
-10.872800 0.000000
-10.845800 0.000000
-10.818800 0.000000
-10.791800 0.000000
-10.764800 0.000000
-10.737800 0.000000
-10.710800 0.000000
-10.683900 0.000000
-10.656900 0.000000
-10.629900 0.000000
-10.602900 0.000000
-10.575900 0.000000
-10.548900 0.000000
-10.522000 0.000000
-10.495000 0.000000
-10.468000 0.000000
-10.441000 0.000000
-10.414000 0.000000
-10.387000 0.000000
-10.360000 0.000000
-10.333100 0.000000
-10.306100 0.000000
-10.279100 0.000000
-10.252100 0.000000
-10.225100 0.000000
-10.198100 0.000000
-10.171200 0.000000
-10.144200 0.000000
-10.117200 0.000000
-10.090200 0.000000
-10.063200 0.000000
-10.036200 0.000000
-10.009200 0.000000
-9.982300 0.000000
-9.955300 0.000000
-9.928300 0.000000
-9.901300 0.000000
-9.874300 0.000000
-9.847300 0.000000
-9.820300 0.000000
-9.793400 0.000000
-9.766400 0.000000
-9.739400 0.000000
-9.712400 0.000000
-9.685400 0.000000
-9.658400 0.000000
-9.631500 0.000000
-9.604500 0.000000
-9.577500 0.000000
-9.550500 0.000000
-9.523500 0.000000
-9.496500 0.000000
-9.469500 0.000000
-9.442600 0.000000
-9.415600 0.000000
-9.388600 0.000000
-9.361600 0.000000
-9.334600 0.000000
-9.307600 0.000000
-9.280700 0.000000
-9.253700 0.000000
-9.226700 0.000000
-9.199700 0.000000
-9.172700 0.000000
-9.145700 0.000000
-9.118700 0.000000
-9.091800 0.000000
-9.064800 0.000000
-9.037800 0.000000
-9.010800 0.000000
-8.983800 0.000000
-8.956800 0.000000
-8.929800 0.000000
-8.902900 0.000000
-8.875900 0.000000
-8.848900 0.000000
-8.821900 0.000000
-8.794900 0.000000
-8.767900 0.000000
-8.741000 0.000000
-8.714000 0.000000
-8.687000 0.000000
-8.660000 0.000000
-8.633000 0.000000
-8.606000 0.000000
-8.579000 0.000000
-8.552100 0.000000
-8.525100 0.000000
-8.498100 0.000000
-8.471100 0.000000
-8.444100 0.000000
-8.417100 0.000000
-8.390200 0.000000
-8.363200 0.000000
-8.336200 0.000000
-8.309200 0.000000
-8.282200 0.000000
-8.255200 0.000000
-8.228200 0.000000
-8.201300 0.000000
-8.174300 0.000000
-8.147300 0.000000
-8.120300 0.000000
-8.093300 0.000000
-8.066300 0.000000
-8.039400 0.000000
-8.012400 0.000000
-7.985400 0.000000
-7.958400 0.000000
-7.931400 0.000000
-7.904400 0.000000
-7.877400 0.000000
-7.850500 0.000000
-7.823500 0.000000
-7.796500 0.000000
-7.769500 0.000000
-7.742500 0.000000
-7.715500 0.000000
-7.688500 0.000000
-7.661600 0.000000
-7.634600 0.000000
-7.607600 0.000000
-7.580600 0.000000
-7.553600 0.000000
-7.526600 0.000000
-7.499700 0.000000
-7.472700 0.000000
-7.445700 0.000000
-7.418700 0.000000
-7.391700 0.000000
-7.364700 0.000000
-7.337700 0.000000
-7.310800 0.000000
-7.283800 0.000000
-7.256800 0.000000
-7.229800 0.000000
-7.202800 0.000000
-7.175800 0.000000
-7.148900 0.000000
-7.121900 0.000000
-7.094900 0.000000
-7.067900 0.000000
-7.040900 0.000000
-7.013900 0.000000
-6.986900 0.000000
-6.960000 0.000000
-6.933000 0.000000
-6.906000 0.000000
-6.879000 0.000000
-6.852000 0.000000
-6.825000 0.000000
-6.798000 0.000000
-6.771100 0.000000
-6.744100 0.000000
-6.717100 0.000000
-6.690100 0.000000
-6.663100 0.000000
-6.636100 0.000000
-6.609200 0.000000
-6.582200 0.000000
-6.555200 0.000000
-6.528200 0.000000
-6.501200 0.000000
-6.474200 0.000000
-6.447200 0.000000
-6.420300 0.000000
-6.393300 0.000000
-6.366300 0.000000
-6.339300 0.000000
-6.312300 0.000000
-6.285300 0.000000
-6.258400 0.000000
-6.231400 0.000000
-6.204400 0.000000
-6.177400 0.000000
-6.150400 0.000000
-6.123400 0.000000
-6.096400 0.000000
-6.069500 0.000000
-6.042500 0.000000
-6.015500 0.000000
-5.988500 0.000000
-5.961500 0.000000
-5.934500 0.000000
-5.907500 0.000000
-5.880600 0.000000
-5.853600 0.000000
-5.826600 0.000000
-5.799600 0.000000
-5.772600 0.000000
-5.745600 0.000000
-5.718700 0.000000
-5.691700 0.000000
-5.664700 0.000000
-5.637700 0.000000
-5.610700 0.000000
-5.583700 0.000000
-5.556700 0.000000
-5.529800 0.000000
-5.502800 0.000000
-5.475800 0.000000
-5.448800 0.000000
-5.421800 0.000000
-5.394800 0.000000
-5.367900 0.000000
-5.340900 0.000000
-5.313900 0.000000
-5.286900 0.000000
-5.259900 0.000000
-5.232900 0.000000
-5.205900 0.000000
-5.179000 0.000000
-5.152000 0.000000
-5.125000 0.000000
-5.098000 0.000000
-5.071000 0.000000
-5.044000 0.000000
-5.017100 0.000000
-4.990100 0.000000
-4.963100 0.000000
-4.936100 0.000000
-4.909100 0.000000
-4.882100 0.000000
-4.855100 0.000000
-4.828200 0.000000
-4.801200 0.000000
-4.774200 0.000000
-4.747200 0.000000
-4.720200 0.000000
-4.693200 0.000000
-4.666200 0.000000
-4.639300 0.000000
-4.612300 0.000000
-4.585300 0.000000
-4.558300 0.000000
-4.531300 0.000000
-4.504300 0.000000
-4.477400 0.000000
-4.450400 0.000000
-4.423400 0.000000
-4.396400 0.000000
-4.369400 0.000000
-4.342400 0.000000
-4.315400 0.000000
-4.288500 0.000000
-4.261500 0.000000
-4.234500 0.000000
-4.207500 0.000000
-4.180500 0.000000
-4.153500 0.000000
-4.126600 0.000000
-4.099600 0.000000
-4.072600 0.000000
-4.045600 0.000000
-4.018600 0.000000
-3.991600 0.000000
-3.964600 0.000000
-3.937700 0.000000
-3.910700 0.000000
-3.883700 0.000000
-3.856700 0.000000
-3.829700 0.000000
-3.802700 0.000000
-3.775700 0.000000
-3.748800 0.000000
-3.721800 0.000000
-3.694800 0.000000
-3.667800 0.000000
-3.640800 0.000000
-3.613800 0.000000
-3.586900 0.000000
-3.559900 0.000000
-3.532900 0.000000
-3.505900 0.000000
-3.478900 0.000000
-3.451900 0.000000
-3.424900 0.000000
-3.398000 0.000000
-3.371000 0.000000
-3.344000 0.000000
-3.317000 0.000000
-3.290000 0.000000
-3.263000 0.000000
-3.236100 0.000000
-3.209100 0.010600
-3.182100 0.054000
-3.155100 0.125300
-3.128100 0.157500
-3.101100 0.168100
-3.074100 0.187200
-3.047200 0.210000
-3.020200 0.234000
-2.993200 0.251100
-2.966200 0.273400
-2.939200 0.291100
-2.912200 0.300100
-2.885200 0.307000
-2.858300 0.321200
-2.831300 0.335700
-2.804300 0.349900
-2.777300 0.362100
-2.750300 0.372100
-2.723300 0.381700
-2.696400 0.393400
-2.669400 0.406800
-2.642400 0.421300
-2.615400 0.433800
-2.588400 0.443400
-2.561400 0.453000
-2.534400 0.462300
-2.507500 0.471500
-2.480500 0.480800
-2.453500 0.488300
-2.426500 0.496900
-2.399500 0.505600
-2.372500 0.514200
-2.345600 0.524600
-2.318600 0.534600
-2.291600 0.544800
-2.264600 0.555600
-2.237600 0.567000
-2.210600 0.578600
-2.183600 0.590100
-2.156700 0.599900
-2.129700 0.608100
-2.102700 0.617100
-2.075700 0.625400
-2.048700 0.634000
-2.021700 0.642900
-1.994800 0.652100
-1.967800 0.661800
-1.940800 0.672400
-1.913800 0.683400
-1.886800 0.694800
-1.859800 0.706500
-1.832800 0.719600
-1.805900 0.733400
-1.778900 0.747700
-1.751900 0.762300
-1.724900 0.777300
-1.697900 0.793000
-1.670900 0.817800
-1.643900 0.840000
-1.617000 0.858800
-1.590000 0.878200
-1.563000 0.915100
-1.536000 0.916400
-1.509000 0.922700
-1.482000 0.933300
-1.455100 0.941600
-1.428100 0.952400
-1.401100 0.964700
-1.374100 0.978700
-1.347100 1.008000
-1.320100 1.057500
-1.293100 1.093700
-1.266200 1.130000
-1.239200 1.157600
-1.212200 1.177600
-1.185200 1.192200
-1.158200 1.188000
-1.131200 1.159600
-1.104300 1.145800
-1.077300 1.144700
-1.050300 1.172600
-1.023300 1.207200
-0.996300 1.131100
-0.969300 1.088100
-0.942300 1.037300
-0.915400 0.975000
-0.888400 0.890400
-0.861400 0.821000
-0.834400 0.776200
-0.807400 0.749800
-0.780400 0.724400
-0.753400 0.696300
-0.726500 0.665500
-0.699500 0.632000
-0.672500 0.591200
-0.645500 0.573800
-0.618500 0.558500
-0.591500 0.545100
-0.564600 0.533800
-0.537600 0.516100
-0.510600 0.498800
-0.483600 0.482200
-0.456600 0.466500
-0.429600 0.451500
-0.402600 0.437400
-0.375700 0.424000
-0.348700 0.419800
-0.321700 0.429300
-0.294700 0.433100
-0.267700 0.432600
-0.240700 0.432100
-0.213800 0.423000
-0.186800 0.411900
-0.159800 0.498000
-0.132800 0.440000
-0.105800 0.438400
-0.078800 0.421200
-0.051800 0.400900
-0.024900 0.384400
0.002100 0.391600
0.029100 0.424200
0.056100 0.401000
0.083100 0.370900
0.110100 0.379600
0.137000 0.418700
0.164000 0.455900
0.191000 0.491000
0.218000 0.524900
0.245000 0.560300
0.272000 0.603500
0.299000 0.652200
0.325900 0.706200
0.352900 0.746100
0.379900 0.785400
0.406900 0.864400
0.433900 0.956800
0.460900 1.036400
0.487900 1.085300
0.514800 1.070300
0.541800 1.049200
0.568800 1.027200
0.595800 1.012200
0.622800 1.001100
0.649800 0.996300
0.676700 0.989700
0.703700 0.979700
0.730700 0.970900
0.757700 0.962600
0.784700 0.957600
0.811700 0.954100
0.838700 0.954100
0.865600 0.962100
0.892600 0.976500
0.919600 0.986900
0.946600 0.998700
0.973600 1.011200
1.000600 1.024400
1.027500 1.038800
1.054500 1.063200
1.081500 1.092300
1.108500 1.114000
1.135500 1.132300
1.162500 1.149500
1.189500 1.171500
1.216400 1.200700
1.243400 1.249600
1.270400 1.324600
1.297400 1.370500
1.324400 1.384300
1.351400 1.367900
1.378400 1.343700
1.405300 1.317900
1.432300 1.323300
1.459300 1.331500
1.486300 1.263600
1.513300 1.144700
1.540300 1.132500
1.567200 1.131800
1.594200 1.017600
1.621200 1.014700
1.648200 1.015800
1.675200 1.018800
1.702200 1.039500
1.729200 1.042200
1.756100 1.050400
1.783100 1.057500
1.810100 1.069000
1.837100 1.077300
1.864100 1.083800
1.891100 1.090000
1.918000 1.097700
1.945000 1.104500
1.972000 1.111500
1.999000 1.119500
2.026000 1.129500
2.053000 1.147200
2.080000 1.150300
2.106900 1.149700
2.133900 1.148100
2.160900 1.155100
2.187900 1.167200
2.214900 1.181300
2.241900 1.193700
2.268900 1.205400
2.295800 1.186300
2.322800 1.190400
2.349800 1.194600
2.376800 1.197500
2.403800 1.203700
2.430800 1.196200
2.457700 1.204600
2.484700 1.225700
2.511700 1.235800
2.538700 1.220500
2.565700 1.233600
2.592700 1.248800
2.619700 1.271700
2.646600 1.251500
2.673600 1.266200
2.700600 1.278300
2.727600 1.288300
2.754600 1.295900
2.781600 1.304000
2.808500 1.325000
2.835500 1.329100
2.862500 1.334700
2.889500 1.338800
2.916500 1.345500
2.943500 1.372100
2.970500 1.373700
2.997400 1.386000
3.024400 1.391100
3.051400 1.383000
3.078400 1.373300
3.105400 1.403100
3.132400 1.394800
3.159300 1.384000
3.186300 1.369500
3.213300 1.367700
3.240300 1.368300
3.267300 1.372600
3.294300 1.358700
3.321300 1.374300
3.348200 1.386400
3.375200 1.395300
3.402200 1.401000
3.429200 1.403500
3.456200 1.403500
3.483200 1.437400
3.510200 1.363800
3.537100 1.390000
3.564100 1.431100
3.591100 1.385700
3.618100 1.369300
3.645100 1.348700
3.672100 1.331900
3.699000 1.320600
3.726000 1.306700
3.753000 1.290300
3.780000 1.270200
3.807000 1.386000
3.834000 1.222000
3.861000 1.231400
3.887900 1.249200
3.914900 1.260400
3.941900 1.298700
3.968900 1.347500
3.995900 1.402100
4.022900 1.444800
4.049800 1.440500
4.076800 1.415300
4.103800 1.392000
4.130800 1.384400
4.157800 1.376400
4.184800 1.356300
4.211800 1.353200
4.238700 1.356000
4.265700 1.365800
4.292700 1.383400
4.319700 1.409600
4.346700 1.476100
4.373700 1.511400
4.400700 1.550300
4.427600 1.593200
4.454600 1.633800
4.481600 1.666600
4.508600 1.702700
4.535600 1.704500
4.562600 1.722400
4.589500 1.731600
4.616500 1.695700
4.643500 1.657200
4.670500 1.621900
4.697500 1.596400
4.724500 1.583400
4.751500 1.562600
4.778400 1.565200
4.805400 1.563700
4.832400 1.558000
4.859400 1.595500
4.886400 1.592600
4.913400 1.567900
4.940300 1.675100
4.967300 1.392900
4.994300 1.374100
5.021300 1.358500
5.048300 1.354800
5.075300 1.349500
5.102300 1.402400
5.129200 1.452000
5.156200 1.501400
5.183200 1.513900
5.210200 1.540800
5.237200 1.558300
5.264200 1.570800
5.291200 1.577300
5.318100 1.572600
5.345100 1.563300
5.372100 1.551300
5.399100 1.539400
5.426100 1.527300
5.453100 1.517600
5.480000 1.510500
5.507000 1.509100
5.534000 1.481200
5.561000 1.484400
5.588000 1.499700
5.615000 1.503400
5.642000 1.491200
5.668900 1.485800
5.695900 1.490600
5.722900 1.503800
5.749900 1.543400
5.776900 1.488400
5.803900 1.475200
5.830800 1.472900
5.857800 1.479400
5.884800 1.493400
5.911800 1.507900
5.938800 1.519100
5.965800 1.529200
5.992800 1.537600
6.019700 1.549900
6.046700 1.556500
6.073700 1.575700
6.100700 1.606500
6.127700 1.641400
6.154700 1.669300
6.181600 1.689600
6.208600 1.721500
6.235600 1.773200
6.262600 1.809900
6.289600 1.744300
6.316600 1.705900
6.343600 1.702600
6.370500 1.721500
6.397500 1.686800
6.424500 1.689200
6.451500 1.686300
6.478500 1.687700
6.505500 1.715500
6.532500 1.723300
6.559400 1.723300
6.586400 1.678400
6.613400 1.660300
6.640400 1.646800
6.667400 1.627900
6.694400 1.616100
6.721300 1.635400
6.748300 1.642500
6.775300 1.662500
6.802300 1.696000
6.829300 1.753800
6.856300 1.763600
6.883300 1.752000
6.910200 1.745400
6.937200 1.757800
6.964200 1.768400
6.991200 1.804300
7.018200 1.829500
7.045200 1.837300
7.072100 1.830600
7.099100 1.826600
7.126100 1.810100
7.153100 1.799800
7.180100 1.806400
7.207100 1.835600
7.234100 1.838100
7.261000 1.830100
7.288000 1.832000
7.315000 1.837600
7.342000 1.842200
7.369000 1.817600
7.396000 1.785000
7.423000 1.773600
7.449900 1.759500
7.476900 1.739400
7.503900 1.677200
7.530900 1.633600
7.557900 1.611800
7.584900 1.587900
7.611800 1.568700
7.638800 1.533500
7.665800 1.474900
7.692800 1.442700
7.719800 1.448800
7.746800 1.477800
7.773800 1.499300
7.800700 1.522000
7.827700 1.551600
7.854700 1.612100
7.881700 1.694200
7.908700 1.724500
7.935700 1.751900
7.962600 1.760700
7.989600 1.799600
8.016600 1.849600
8.043600 1.897800
8.070600 1.941000
8.097600 1.976400
8.124600 1.999300
8.151500 2.002200
8.178500 1.999600
8.205500 1.996900
8.232500 2.045300
8.259500 2.065200
8.286500 2.091500
8.313400 2.084500
8.340400 2.064900
8.367400 2.033400
8.394400 2.014800
8.421400 1.999400
8.448400 1.946800
8.475400 1.939900
8.502300 1.928600
8.529300 1.899400
8.556300 1.883800
8.583300 1.871200
8.610300 1.850800
8.637300 1.787300
8.664300 1.741700
8.691200 1.741500
8.718200 1.670100
8.745200 1.648800
8.772200 1.631200
8.799200 1.618100
8.826200 1.610800
8.853100 1.614300
8.880100 1.627200
8.907100 1.685300
8.934100 1.762300
8.961100 1.743800
8.988100 1.767800
9.015100 1.802100
9.042000 1.834600
9.069000 1.860500
9.096000 1.894100
9.123000 1.936600
9.150000 1.980500
9.177000 2.037000
9.203900 2.122600
9.230900 2.134100
9.257900 2.154300
9.284900 2.196700
9.311900 2.202100
9.338900 2.193800
9.365900 2.186100
9.392800 2.193400
9.419800 2.197000
9.446800 2.169000
9.473800 2.138200
9.500800 2.177800
9.527800 2.152200
9.554800 2.127900
9.581700 2.104500
9.608700 2.084600
9.635700 2.053700
9.662700 1.997700
9.689700 1.934000
9.716700 1.868500
9.743600 1.804900
9.770600 1.747200
9.797600 1.715800
9.824600 1.694700
9.851600 1.681100
9.878600 1.677600
9.905600 1.694400
9.932500 1.718200
9.959500 1.754400
9.986500 1.802100
10.013500 1.858600
10.040500 1.927700
10.067500 2.003300
10.094400 2.064300
10.121400 2.100100
10.148400 2.110100
10.175400 2.152100
10.202400 2.105100
10.229400 2.014600
10.256400 1.981600
10.283300 1.973200
10.310300 1.968000
10.337300 2.013300
10.364300 2.066900
10.391300 2.122800
10.418300 2.165300
10.445300 2.210700
10.472200 2.244100
10.499200 2.211100
10.526200 2.261300
10.553200 2.318900
10.580200 2.316400
10.607200 2.312300
10.634100 2.304800
10.661100 2.299400
10.688100 2.295200
10.715100 2.291000
10.742100 2.293200
10.769100 2.304300
10.796100 2.316700
10.823000 2.328200
10.850000 2.340400
10.877000 2.352500
10.904000 2.362200
10.931000 2.373700
10.958000 2.376800
10.984900 2.379700
11.011900 2.374900
11.038900 2.364000
11.065900 2.351900
11.092900 2.333000
11.119900 2.285100
11.146900 2.217800
11.173800 2.100600
11.200800 2.088300
11.227800 2.091400
11.254800 2.056200
11.281800 2.042700
11.308800 2.039100
11.335700 2.042100
11.362700 2.051400
11.389700 2.066300
11.416700 2.094500
11.443700 2.128200
11.470700 2.183000
11.497700 2.246200
11.524600 2.312100
11.551600 2.388400
11.578600 2.455400
11.605600 2.514300
11.632600 2.540000
11.659600 2.505600
11.686600 2.490200
11.713500 2.479300
11.740500 2.508700
11.767500 2.500800
11.794500 2.495500
11.821500 2.474400
11.848500 2.451200
11.875400 2.427200
11.902400 2.406600
11.929400 2.402100
11.956400 2.388800
11.983400 2.378400
12.010400 2.391700
12.037400 2.428600
12.064300 2.489600
12.091300 2.484900
12.118300 2.441500
12.145300 2.399300
12.172300 2.369000
12.199300 2.340700
12.226200 2.330700
12.253200 2.341700
12.280200 2.328200
12.307200 2.310700
12.334200 2.288100
12.361200 2.273500
12.388200 2.271400
12.415100 2.281000
12.442100 2.305300
12.469100 2.337200
12.496100 2.365700
12.523100 2.386000
12.550100 2.355900
12.577100 2.355300
12.604000 2.374500
12.631000 2.409700
12.658000 2.455000
12.685000 2.463400
12.712000 2.441200
12.739000 2.446500
12.765900 2.425400
12.792900 2.405800
12.819900 2.378400
12.846900 2.347900
12.873900 2.321300
12.900900 2.297400
12.927900 2.276500
12.954800 2.259200
12.981800 2.236300
13.008800 2.215500
13.035800 2.191200
13.062800 2.164700
13.089800 2.175500
13.116700 2.252200
13.143700 2.230400
13.170700 2.253200
13.197700 2.270900
13.224700 2.307200
13.251700 2.322600
13.278700 2.311100
13.305600 2.262100
13.332600 2.258800
13.359600 2.243100
13.386600 2.331400
13.413600 2.280000
13.440600 2.273700
13.467600 2.286800
13.494500 2.282800
13.521500 2.288200
13.548500 2.288100
13.575500 2.298500
13.602500 2.318900
13.629500 2.270500
13.656400 2.164700
13.683400 2.182900
13.710400 2.242000
13.737400 2.249600
13.764400 2.294200
13.791400 2.311300
13.818400 2.320700
13.845300 2.330700
13.872300 2.344500
13.899300 2.343800
13.926300 2.340900
13.953300 2.334000
13.980300 2.421800
14.007200 2.318900
14.034200 2.305700
14.061200 2.299900
14.088200 2.268100
14.115200 2.264100
14.142200 2.265600
14.169200 2.299200
14.196100 2.395100
14.223100 2.295000
14.250100 2.261800
14.277100 2.235400
14.304100 2.213400
14.331100 2.197800
14.358000 2.185300
14.385000 2.171400
14.412000 2.151900
14.439000 2.128300
14.466000 2.106200
14.493000 2.120600
14.520000 2.055300
14.546900 2.095300
14.573900 2.168700
14.600900 2.121400
14.627900 2.096100
14.654900 2.076800
14.681900 2.064700
14.708900 2.072000
14.735800 2.092200
14.762800 2.107300
14.789800 2.124700
14.816800 2.149800
14.843800 2.213000
14.870800 2.270100
14.897700 2.337600
14.924700 2.421400
14.951700 2.403500
14.978700 2.271100
15.005700 2.208000
15.032700 2.154600
15.059700 2.145700
15.086600 2.175300
15.113600 2.174800
15.140600 2.181800
15.167600 2.191400
15.194600 2.206100
15.221600 2.203900
15.248500 2.218200
15.275500 2.516700
15.302500 2.233300
15.329500 2.238800
15.356500 2.272200
15.383500 2.306600
15.410500 2.347200
15.437400 2.401900
15.464400 2.375100
15.491400 2.325500
15.518400 2.301600
15.545400 2.274000
15.572400 2.244400
15.599400 2.263800
15.626300 2.218900
15.653300 2.168100
15.680300 2.116200
15.707300 2.072000
15.734300 2.033400
15.761300 2.003100
15.788200 2.022400
15.815200 2.061400
15.842200 2.112000
15.869200 2.144800
15.896200 2.152100
15.923200 2.179700
15.950200 2.211400
15.977100 2.252800
16.004100 2.295600
16.031100 2.353700
16.058100 2.424500
16.085100 2.517100
16.112100 2.650100
16.139000 2.716500
16.166000 2.743600
16.193000 2.772000
16.220000 2.878800
16.247000 2.943800
16.274000 2.934000
16.301000 2.928000
16.327900 2.938700
16.354900 2.927700
16.381900 2.891200
16.408900 2.836000
16.435900 2.790000
16.462900 2.657500
16.489800 2.550100
16.516800 2.469200
16.543800 2.378500
16.570800 2.347100
16.597800 2.332300
16.624800 2.287500
16.651800 2.315000
16.678700 2.370100
16.705700 2.411900
16.732700 2.419800
16.759700 2.405100
16.786700 2.382800
16.813700 2.303200
16.840700 2.262100
16.867600 2.252900
16.894600 2.237300
16.921600 2.247600
16.948600 2.262300
16.975600 2.288500
17.002600 2.313000
17.029500 2.319800
17.056500 2.349400
17.083500 2.387600
17.110500 2.433000
17.137500 2.486100
17.164500 2.540100
17.191500 2.589700
17.218400 2.596700
17.245400 2.663100
17.272400 2.694000
17.299400 2.699800
17.326400 2.696100
17.353400 2.743900
17.380300 2.663500
17.407300 2.633500
17.434300 2.652000
17.461300 2.660700
17.488300 2.671400
17.515300 2.690800
17.542300 2.703900
17.569200 2.684000
17.596200 2.710500
17.623200 2.761300
17.650200 2.784000
17.677200 2.784200
17.704200 2.767400
17.731200 2.800200
17.758100 2.877300
17.785100 2.896700
17.812100 2.860900
17.839100 2.797900
17.866100 2.698300
17.893100 2.670200
17.920000 2.621600
17.947000 2.585900
17.974000 2.573600
18.001000 2.596900
18.028000 2.675000
18.055000 2.670900
18.082000 2.707100
18.108900 2.777500
18.135900 2.832400
18.162900 2.873100
18.189900 2.891000
18.216900 2.994400
18.243900 2.967000
18.270800 2.919800
18.297800 2.917000
18.324800 2.911000
18.351800 2.936400
18.378800 2.929400
18.405800 3.103200
18.432800 2.850100
18.459700 2.852700
18.486700 2.860600
18.513700 2.885200
18.540700 2.970100
18.567700 3.070100
18.594700 3.070900
18.621700 3.055800
18.648600 3.036200
18.675600 3.036400
18.702600 3.068800
18.729600 3.033700
18.756600 3.000100
18.783600 2.944900
18.810500 2.877600
18.837500 2.876500
18.864500 2.896600
18.891500 2.886700
18.918500 2.889900
18.945500 2.893700
18.972500 2.877800
18.999400 2.780000
19.026400 2.712800
19.053400 2.707600
19.080400 2.727500
19.107400 2.731000
19.134400 2.680400
19.161300 2.635600
19.188300 2.621000
19.215300 2.620300
19.242300 2.692500
19.269300 2.880300
19.296300 2.767700
19.323300 2.760600
19.350200 2.811500
19.377200 2.882300
19.404200 2.925100
19.431200 2.967200
19.458200 2.989600
19.485200 2.954700
19.512100 2.868500
19.539100 2.790200
19.566100 2.725200
19.593100 2.672600
19.620100 2.632100
19.647100 2.598600
19.674100 2.651000
19.701000 2.599000
19.728000 2.532700
19.755000 2.481500
19.782000 2.448000
19.809000 2.435400
19.836000 2.552400
19.863000 2.578000
19.889900 2.492000
19.916900 2.304400
19.943900 2.194100
19.970900 2.116000
19.997900 2.066300
20.024900 2.040200
20.051800 2.063900
20.078800 2.085500
20.105800 2.123200
20.132800 2.186100
20.159800 2.229200
20.186800 2.318200
20.213800 2.380200
20.240700 2.397100
20.267700 2.426700
20.294700 2.467200
20.321700 2.523700
20.348700 2.561300
20.375700 2.586000
20.402600 2.605300
20.429600 2.612800
20.456600 2.618300
20.483600 2.610600
20.510600 2.609700
20.537600 2.736600
20.564600 2.784300
20.591500 2.842900
20.618500 2.939000
20.645500 3.020700
20.672500 3.007100
20.699500 2.938600
20.726500 2.870100
20.753500 2.742100
20.780400 2.699000
20.807400 2.708900
20.834400 2.728700
20.861400 2.765500
20.888400 2.806300
20.915400 2.856200
20.942300 2.939000
20.969300 3.033600
20.996300 3.196900
21.023300 3.391800
21.050300 3.075200
21.077300 3.111300
21.104300 3.107900
21.131200 3.075200
21.158200 3.052700
21.185200 3.042700
21.212200 3.043800
21.239200 3.064200
21.266200 3.107400
21.293100 3.258200
21.320100 3.305800
21.347100 3.374900
21.374100 3.420800
21.401100 3.415300
21.428100 3.307200
21.455100 3.186700
21.482000 3.068500
21.509000 3.018000
21.536000 2.988300
21.563000 2.980000
21.590000 2.984400
21.617000 2.932400
21.644000 2.908100
21.670900 2.881000
21.697900 2.723500
21.724900 2.668200
21.751900 2.639400
21.778900 2.573800
21.805900 2.544400
21.832800 2.509300
21.859800 2.532100
21.886800 2.541100
21.913800 2.566900
21.940800 2.658200
21.967800 2.692000
21.994800 2.723800
22.021700 2.758100
22.048700 2.812800
22.075700 2.898700
22.102700 2.971000
22.129700 2.995700
22.156700 3.058900
22.183600 3.194200
22.210600 3.304200
22.237600 3.239400
22.264600 3.180600
22.291600 3.101600
22.318600 2.995200
22.345600 2.858000
22.372500 2.765200
22.399500 2.717500
22.426500 2.706200
22.453500 2.702300
22.480500 2.708800
22.507500 2.730800
22.534400 2.740100
22.561400 2.746500
22.588400 2.740800
22.615400 2.707200
22.642400 2.740300
22.669400 2.907500
22.696400 2.948000
22.723300 3.050800
22.750300 3.165200
22.777300 3.310100
22.804300 3.535700
22.831300 3.608500
22.858300 3.650400
22.885300 3.667500
22.912200 3.694600
22.939200 3.713900
22.966200 3.684300
22.993200 3.536900
23.020200 3.408100
23.047200 3.303500
23.074100 3.234300
23.101100 3.181000
23.128100 3.156700
23.155100 3.139100
23.182100 3.156600
23.209100 3.182500
23.236100 3.114600
23.263000 3.090000
23.290000 3.115100
23.317000 3.153000
23.344000 3.223300
23.371000 3.278700
23.398000 3.306400
23.424900 3.346300
23.451900 3.464600
23.478900 3.391800
23.505900 3.403100
23.532900 3.410600
23.559900 3.411300
23.586900 3.452100
23.613800 3.395800
23.640800 3.328900
23.667800 3.278600
23.694800 3.194900
23.721800 3.038900
23.748800 2.964500
23.775800 2.928300
23.802700 2.916600
23.829700 2.910100
23.856700 2.888600
23.883700 2.882700
23.910700 2.892100
23.937700 2.899700
23.964600 2.897500
23.991600 2.867000
24.018600 2.883500
24.045600 2.845900
24.072600 2.850000
24.099600 2.878300
24.126600 2.896100
24.153500 2.891900
24.180500 2.865300
24.207500 2.820600
24.234500 2.820200
24.261500 2.761600
24.288500 2.734900
24.315400 2.720200
24.342400 2.704100
24.369400 2.679100
24.396400 2.663600
24.423400 2.731600
24.450400 2.757800
24.477400 2.755600
24.504300 2.789100
24.531300 2.881700
24.558300 2.992500
24.585300 3.029600
24.612300 3.224400
24.639300 3.297500
24.666200 3.375800
24.693200 3.423700
24.720200 3.293900
24.747200 2.957200
24.774200 2.840900
24.801200 2.764600
24.828200 2.726600
24.855100 2.676700
24.882100 2.636200
24.909100 2.582000
24.936100 2.516200
24.963100 2.458600
24.990100 2.397800
25.017100 2.367600
25.044000 2.374700
25.071000 2.470800
25.098000 2.654300
25.125000 2.658900
25.152000 2.601500
25.179000 2.491100
25.205900 2.434100
25.232900 2.437100
25.259900 2.365900
25.286900 2.282900
25.313900 2.282800
25.340900 2.336100
25.367900 2.396900
25.394800 2.467100
25.421800 2.532700
25.448800 2.616200
25.475800 2.681900
25.502800 2.737200
25.529800 2.759700
25.556700 2.771200
25.583700 2.782100
25.610700 2.809800
25.637700 2.836600
25.664700 2.864700
25.691700 2.906000
25.718700 2.957800
25.745600 3.004000
25.772600 3.082400
25.799600 3.232000
25.826600 3.459000
25.853600 3.812000
25.880600 3.885600
25.907600 3.889200
25.934500 3.941100
25.961500 3.988900
25.988500 4.068700
26.015500 3.856200
26.042500 3.623500
26.069500 3.652600
26.096400 3.584800
26.123400 3.681400
26.150400 3.620300
26.177400 3.622300
26.204400 3.623100
26.231400 3.613700
26.258400 3.594500
26.285300 3.502600
26.312300 3.416800
26.339300 3.332900
26.366300 3.381300
26.393300 3.671200
26.420300 3.668900
26.447200 3.662500
26.474200 3.642300
26.501200 3.848600
26.528200 3.450800
26.555200 3.430600
26.582200 3.434700
26.609200 3.419400
26.636100 3.397100
26.663100 3.391100
26.690100 3.443400
26.717100 3.465000
26.744100 3.478200
26.771100 3.399300
26.798100 3.360500
26.825000 3.386000
26.852000 3.366300
26.879000 3.359000
26.906000 3.336800
26.933000 3.296400
26.960000 3.228500
26.986900 3.165900
27.013900 3.115900
27.040900 3.075300
27.067900 3.044400
27.094900 2.991400
27.121900 2.944300
27.148900 2.932900
27.175800 2.948700
27.202800 3.058600
27.229800 2.987500
27.256800 3.015500
27.283800 3.078700
27.310800 3.128700
27.337700 3.189900
27.364700 3.242300
27.391700 3.302700
27.418700 3.369700
27.445700 3.420000
27.472700 3.465300
27.499700 3.457100
27.526600 3.400100
27.553600 3.341200
27.580600 3.293500
27.607600 3.265200
27.634600 3.137700
27.661600 3.017900
27.688500 2.922400
27.715500 2.842600
27.742500 2.783500
27.769500 2.751500
27.796500 2.741000
27.823500 2.773400
27.850500 2.790800
27.877400 2.833600
27.904400 2.862000
27.931400 2.958900
27.958400 3.050300
27.985400 3.117600
28.012400 3.096000
28.039400 3.086700
28.066300 3.004700
28.093300 2.897600
28.120300 2.769800
28.147300 2.670500
28.174300 2.612000
28.201300 2.597300
28.228200 2.532000
28.255200 2.501600
28.282200 2.501200
28.309200 2.529600
28.336200 2.565800
28.363200 2.633600
28.390200 2.714600
28.417100 2.813200
28.444100 3.010100
28.471100 3.184300
28.498100 3.375100
28.525100 3.477900
28.552100 3.546200
28.579000 3.604300
28.606000 3.616100
28.633000 3.592300
28.660000 3.557300
28.687000 3.472200
28.714000 3.482900
28.741000 3.370200
28.767900 3.345300
28.794900 3.340000
28.821900 3.369900
28.848900 3.432900
28.875900 3.395100
28.902900 3.415400
28.929900 3.445100
28.956800 3.484600
28.983800 3.531300
29.010800 3.590100
29.037800 3.559800
29.064800 3.525000
29.091800 3.426300
29.118700 3.465600
29.145700 3.432600
29.172700 3.363100
29.199700 3.327900
29.226700 3.275300
29.253700 3.218600
29.280700 3.214600
29.307600 3.260900
29.334600 3.331000
29.361600 3.784100
29.388600 3.771800
29.415600 3.777900
29.442600 3.790200
29.469500 3.916100
29.496500 3.644200
29.523500 3.797000
29.550500 3.872900
29.577500 3.654800
29.604500 3.517700
29.631500 3.463000
29.658400 3.438500
29.685400 3.487700
29.712400 3.504400
29.739400 3.452900
29.766400 3.395200
29.793400 3.279300
29.820400 3.233200
29.847300 3.244800
29.874300 3.308000
29.901300 3.423200
29.928300 3.393700
29.955300 3.465200
29.982300 3.441800
30.009200 3.430000
30.036200 3.431200
30.063200 3.437600
30.090200 3.431300
30.117200 3.442300
30.144200 3.479600
30.171200 3.451700
30.198100 3.424400
30.225100 3.482200
30.252100 3.645400
30.279100 3.641100
30.306100 3.650800
30.333100 3.658200
30.360000 3.614900
30.387000 3.580000
30.414000 3.597600
30.441000 3.632600
30.468000 3.617600
30.495000 3.611800
30.522000 3.604600
30.548900 3.599700
30.575900 3.587200
30.602900 3.587800
30.629900 3.604500
30.656900 3.636500
30.683900 3.590400
30.710800 3.460900
30.737800 3.425700
30.764800 3.398700
30.791800 3.368300
30.818800 3.336900
30.845800 3.342900
30.872800 3.229500
30.899700 3.220100
30.926700 3.266200
30.953700 3.532700
30.980700 3.499200
31.007700 3.431500
31.034700 3.456800
31.061700 3.511700
31.088600 3.614700
31.115600 3.747100
31.142600 3.796900
31.169600 3.712900
31.196600 3.582000
31.223600 3.620400
31.250500 3.586700
31.277500 3.514800
31.304500 3.437700
31.331500 3.378900
31.358500 3.265600
31.385500 3.187100
31.412500 3.110500
31.439400 3.032800
31.466400 2.958400
31.493400 2.916600
31.520400 2.904100
31.547400 2.959400
31.574400 3.058000
31.601300 3.126200
31.628300 3.145100
31.655300 3.168000
31.682300 3.183200
31.709300 3.227100
31.736300 3.160100
31.763300 3.035400
31.790200 2.903100
31.817200 2.787300
31.844200 2.681500
31.871200 2.609600
31.898200 2.581900
31.925200 2.591100
31.952200 2.638600
31.979100 2.758000
32.006100 2.847500
32.033100 2.990100
32.060100 3.139100
32.087100 3.439800
32.114100 3.703300
32.141000 4.001600
32.168000 4.082700
32.195000 3.991100
32.222000 3.845400
32.249000 3.746000
32.276000 3.653800
32.303000 3.741600
32.329900 3.652700
32.356900 3.669200
32.383900 3.517800
32.410900 3.312900
32.437900 3.090400
32.464900 2.847100
32.491800 2.638600
32.518800 2.572300
32.545800 2.606100
32.572800 2.507900
32.599800 2.486300
32.626800 2.454500
32.653800 2.429800
32.680700 2.418100
32.707700 2.449700
32.734700 2.510700
32.761700 2.502100
32.788700 2.589300
32.815700 2.595500
32.842600 2.632500
32.869600 2.689800
32.896600 2.810100
32.923600 2.868900
32.950600 2.866400
32.977600 2.878700
33.004600 2.755700
33.031500 2.682700
33.058500 2.607100
33.085500 2.571100
33.112500 2.575900
33.139500 2.596100
33.166500 2.620700
33.193500 2.645900
33.220400 2.662900
33.247400 2.681200
33.274400 2.681200
33.301400 2.680900
33.328400 2.677300
33.355400 2.731000
33.382300 2.722900
33.409300 2.762800
33.436300 2.699100
33.463300 2.662200
33.490300 2.655900
33.517300 2.656800
33.544300 2.691700
33.571200 2.697300
33.598200 2.738500
33.625200 2.805000
33.652200 2.727600
33.679200 2.646700
33.706200 2.629200
33.733100 2.629100
33.760100 2.664000
33.787100 2.680300
33.814100 2.596800
33.841100 2.565300
33.868100 2.567100
33.895100 2.430400
33.922000 2.432300
33.949000 2.477200
33.976000 2.432500
34.003000 2.272300
34.030000 2.229700
34.057000 2.257600
34.084000 2.236400
34.110900 2.251800
34.137900 2.247200
34.164900 2.171000
34.191900 2.111200
34.218900 2.072400
34.245900 2.052800
34.272800 2.034900
34.299800 2.012700
34.326800 1.977200
34.353800 1.967900
34.380800 1.979300
34.407800 1.926000
34.434800 1.856000
34.461700 1.792600
34.488700 1.721100
34.515700 1.654000
34.542700 1.607700
34.569700 1.560900
34.596700 1.481600
34.623600 1.448800
34.650600 1.337900
34.677600 1.218500
34.704600 1.175700
34.731600 1.183700
34.758600 1.183600
34.785600 1.155500
34.812500 1.060200
34.839500 1.082600
34.866500 1.243200
34.893500 0.963200
34.920500 0.893500
34.947500 0.828500
34.974500 0.767900
35.001400 0.714500
35.028400 0.661900
35.055400 0.619800
35.082400 0.578800
35.109400 0.537100
35.136400 0.494400
35.163300 0.451900
35.190300 0.413800
35.217300 0.377100
35.244300 0.342800
35.271300 0.309100
35.298300 0.268200
35.325300 0.222200
35.352200 0.175400
35.379200 0.136600
35.406200 0.105700
35.433200 0.053300
35.460200 0.017800
35.487200 0.000700
35.514100 0.000000
35.541100 0.000000
35.568100 0.000000
35.595100 0.000000
35.622100 0.000000
35.649100 0.000000
35.676100 0.000000
35.703000 0.000000
35.730000 0.000000
35.757000 0.000000
35.784000 0.000000
35.811000 0.000000
35.838000 0.000000
35.864900 0.000000
35.891900 0.000000
35.918900 0.000000
35.945900 0.000000
35.972900 0.000000
35.999900 0.000000
36.026900 0.000000
36.053800 0.000000
36.080800 0.000000
36.107800 0.000000
36.134800 0.000000
36.161800 0.000000
36.188800 0.000000
36.215800 0.000000
36.242700 0.000000
36.269700 0.000000
36.296700 0.000000
36.323700 0.000000
36.350700 0.000000
36.377700 0.000000
36.404600 0.000000
36.431600 0.000000
36.458600 0.000000
36.485600 0.000000
36.512600 0.000000
36.539600 0.000000
36.566600 0.000000
36.593500 0.000000
36.620500 0.000000
36.647500 0.000000
36.674500 0.000000
36.701500 0.000000
36.728500 0.000000
36.755400 0.000000
36.782400 0.000000
36.809400 0.000000
36.836400 0.000000
36.863400 0.000000
36.890400 0.000000
36.917400 0.000000
36.944300 0.000000
36.971300 0.000000
36.998300 0.000000
37.025300 0.000000
37.052300 0.000000
37.079300 0.000000
37.106300 0.000000
37.133200 0.000000
37.160200 0.000000
37.187200 0.000000
37.214200 0.000000
37.241200 0.000000
37.268200 0.000000
37.295100 0.000000
37.322100 0.000000
37.349100 0.000000
37.376100 0.000000
37.403100 0.000000
37.430100 0.000000
37.457100 0.000000
37.484000 0.000000
37.511000 0.000000
37.538000 0.000000
37.565000 0.000000
37.592000 0.000000
37.619000 0.000000
37.645900 0.000000
37.672900 0.000000
37.699900 0.000000
37.726900 0.000000
37.753900 0.000000
37.780900 0.000000
37.807900 0.000000
37.834800 0.000000
37.861800 0.000000
37.888800 0.000000
37.915800 0.000000
37.942800 0.000000
e
