set title 'mp-1010048 - Density of States'
set xlabel 'Energy (eV)'
set ylabel 'DOS (states/eV)'
set grid
set xrange [-10:10]
set yrange [0:2.470]
set xzeroaxis lt -1
set terminal png size 800,600
set output 'mp-1010048_dos_gnuplot.png'
plot '-' using 1:2 with lines title 'DOS'
-20.384600 0.000000
-20.337400 0.000000
-20.290100 0.000000
-20.242900 0.000000
-20.195700 0.000000
-20.148400 0.000000
-20.101200 0.000000
-20.053900 0.000000
-20.006700 0.000000
-19.959400 0.000000
-19.912200 0.000000
-19.865000 0.000000
-19.817700 0.000000
-19.770500 0.000000
-19.723200 0.000000
-19.676000 0.000000
-19.628800 0.000000
-19.581500 0.000000
-19.534300 0.000000
-19.487000 0.000000
-19.439800 0.000000
-19.392500 0.000000
-19.345300 0.000000
-19.298100 0.000000
-19.250800 0.000000
-19.203600 0.000000
-19.156300 0.000000
-19.109100 0.000000
-19.061800 0.000000
-19.014600 0.000000
-18.967400 0.000000
-18.920100 0.000000
-18.872900 0.000000
-18.825600 0.000000
-18.778400 0.000000
-18.731100 0.000000
-18.683900 0.000000
-18.636700 0.000000
-18.589400 0.000000
-18.542200 0.000000
-18.494900 0.000000
-18.447700 0.000000
-18.400500 0.000000
-18.353200 0.000000
-18.306000 0.000000
-18.258700 0.000000
-18.211500 0.000000
-18.164200 0.000000
-18.117000 0.000000
-18.069800 0.000000
-18.022500 0.000000
-17.975300 0.000000
-17.928000 0.000000
-17.880800 0.000000
-17.833500 0.000000
-17.786300 0.000000
-17.739100 0.000000
-17.691800 0.000000
-17.644600 0.000000
-17.597300 0.000000
-17.550100 0.000000
-17.502800 0.000000
-17.455600 0.000000
-17.408400 0.000000
-17.361100 0.000000
-17.313900 0.000000
-17.266600 0.000000
-17.219400 0.000000
-17.172100 0.000000
-17.124900 0.000000
-17.077700 0.000000
-17.030400 0.000000
-16.983200 0.000000
-16.935900 0.000000
-16.888700 0.000000
-16.841500 0.000000
-16.794200 0.000000
-16.747000 0.000000
-16.699700 0.000000
-16.652500 0.000000
-16.605200 0.000000
-16.558000 0.000000
-16.510800 0.000000
-16.463500 0.000000
-16.416300 0.000000
-16.369000 0.000000
-16.321800 0.000000
-16.274500 0.000000
-16.227300 0.000000
-16.180100 0.000000
-16.132800 0.000000
-16.085600 0.007900
-16.038300 0.446500
-15.991100 0.588000
-15.943800 0.539100
-15.896600 0.620000
-15.849400 0.605100
-15.802100 0.572500
-15.754900 0.594600
-15.707600 0.616700
-15.660400 0.642200
-15.613200 0.630400
-15.565900 0.630000
-15.518700 0.641700
-15.471400 0.653400
-15.424200 0.670600
-15.376900 0.689900
-15.329700 0.698400
-15.282500 0.709600
-15.235200 0.723900
-15.188000 0.739600
-15.140700 0.756700
-15.093500 0.774300
-15.046200 0.801200
-14.999000 0.846100
-14.951800 0.875200
-14.904500 0.904900
-14.857300 0.933700
-14.810000 0.959300
-14.762800 1.101000
-14.715500 1.229400
-14.668300 1.315400
-14.621100 2.003400
-14.573800 1.233800
-14.526600 1.146100
-14.479300 1.058400
-14.432100 0.895500
-14.384800 0.862700
-14.337600 0.823100
-14.290400 0.781700
-14.243100 0.740300
-14.195900 0.678100
-14.148600 0.656600
-14.101400 0.634900
-14.054200 0.612000
-14.006900 0.588700
-13.959700 0.565400
-13.912400 0.537800
-13.865200 0.519400
-13.817900 0.501000
-13.770700 0.485900
-13.723500 0.471600
-13.676200 0.457300
-13.629000 0.456000
-13.581700 0.431300
-13.534500 0.409200
-13.487200 0.395500
-13.440000 0.381900
-13.392800 0.368300
-13.345500 0.393000
-13.298300 0.322200
-13.251000 0.251400
-13.203800 0.000000
-13.156500 0.000000
-13.109300 0.000000
-13.062100 0.000000
-13.014800 0.000000
-12.967600 0.000000
-12.920300 0.000000
-12.873100 0.000000
-12.825900 0.000000
-12.778600 0.000000
-12.731400 0.000000
-12.684100 0.000000
-12.636900 0.000000
-12.589600 0.000000
-12.542400 0.000000
-12.495200 0.000000
-12.447900 0.000000
-12.400700 0.000000
-12.353400 0.000000
-12.306200 0.000000
-12.258900 0.000000
-12.211700 0.000000
-12.164500 0.000000
-12.117200 0.000000
-12.070000 0.000000
-12.022700 0.000000
-11.975500 0.000000
-11.928200 0.000000
-11.881000 0.000000
-11.833800 0.000000
-11.786500 0.000000
-11.739300 0.000000
-11.692000 0.000000
-11.644800 0.000000
-11.597500 0.000000
-11.550300 0.000000
-11.503100 0.000000
-11.455800 0.000000
-11.408600 0.000000
-11.361300 0.000000
-11.314100 0.000000
-11.266900 0.000000
-11.219600 0.000000
-11.172400 0.000000
-11.125100 0.000000
-11.077900 0.000000
-11.030600 0.000000
-10.983400 0.000000
-10.936200 0.000000
-10.888900 0.000000
-10.841700 0.000000
-10.794400 0.000000
-10.747200 0.000000
-10.699900 0.000000
-10.652700 0.000000
-10.605500 0.000000
-10.558200 0.000000
-10.511000 0.000000
-10.463700 0.000000
-10.416500 0.000000
-10.369200 0.000000
-10.322000 0.000000
-10.274800 0.000000
-10.227500 0.000000
-10.180300 0.000000
-10.133000 0.000000
-10.085800 0.000000
-10.038600 0.000000
-9.991300 0.000000
-9.944100 0.000000
-9.896800 0.000000
-9.849600 0.000000
-9.802300 0.000000
-9.755100 0.000000
-9.707900 0.000000
-9.660600 0.000000
-9.613400 0.000000
-9.566100 0.000000
-9.518900 0.000000
-9.471600 0.000000
-9.424400 0.000000
-9.377200 0.000000
-9.329900 0.000000
-9.282700 0.000000
-9.235400 0.000000
-9.188200 0.000000
-9.140900 0.000000
-9.093700 0.000000
-9.046500 0.000000
-8.999200 0.000000
-8.952000 0.000000
-8.904700 0.000000
-8.857500 0.000000
-8.810200 0.000000
-8.763000 0.000000
-8.715800 0.000000
-8.668500 0.000000
-8.621300 0.000000
-8.574000 0.000000
-8.526800 0.000000
-8.479600 0.000000
-8.432300 0.000000
-8.385100 0.000000
-8.337800 0.000000
-8.290600 0.000000
-8.243300 0.000000
-8.196100 0.000000
-8.148900 0.000000
-8.101600 0.000000
-8.054400 0.000000
-8.007100 0.000000
-7.959900 0.000000
-7.912600 0.000000
-7.865400 0.000000
-7.818200 0.000000
-7.770900 0.000000
-7.723700 0.000000
-7.676400 0.000000
-7.629200 0.000000
-7.581900 0.000000
-7.534700 0.000000
-7.487500 0.000000
-7.440200 0.000000
-7.393000 0.000000
-7.345700 0.000000
-7.298500 0.000000
-7.251300 0.000000
-7.204000 0.000000
-7.156800 0.000000
-7.109500 0.000000
-7.062300 0.000000
-7.015000 0.000000
-6.967800 0.000000
-6.920600 0.000000
-6.873300 0.000000
-6.826100 0.000000
-6.778800 0.000000
-6.731600 0.000000
-6.684300 0.000000
-6.637100 0.000000
-6.589900 0.000000
-6.542600 0.000000
-6.495400 0.000000
-6.448100 0.000000
-6.400900 0.000000
-6.353600 0.000000
-6.306400 0.000000
-6.259200 0.000000
-6.211900 0.000000
-6.164700 0.000000
-6.117400 0.000000
-6.070200 0.000000
-6.022900 0.000000
-5.975700 0.000000
-5.928500 0.000000
-5.881200 0.000000
-5.834000 0.000000
-5.786700 0.000000
-5.739500 0.000000
-5.692300 0.000000
-5.645000 0.853500
-5.597800 0.457900
-5.550500 0.513800
-5.503300 0.569700
-5.456000 0.520100
-5.408800 0.556100
-5.361600 0.592000
-5.314300 0.627900
-5.267100 0.631200
-5.219800 0.610900
-5.172600 0.595800
-5.125300 0.598700
-5.078100 0.601600
-5.030900 0.610800
-4.983600 0.615800
-4.936400 0.626700
-4.889100 0.637700
-4.841900 0.648900
-4.794600 0.662900
-4.747400 0.677000
-4.700200 0.711300
-4.652900 0.730700
-4.605700 0.750000
-4.558400 0.769500
-4.511200 0.789300
-4.464000 0.809200
-4.416700 1.074200
-4.369500 1.029200
-4.322200 1.068400
-4.275000 0.864100
-4.227700 0.815400
-4.180500 0.767100
-4.133300 0.718700
-4.086000 0.670400
-4.038800 0.646100
-3.991500 0.685700
-3.944300 0.738900
-3.897000 0.792300
-3.849800 0.565400
-3.802600 0.561500
-3.755300 0.692900
-3.708100 0.721400
-3.660800 0.726000
-3.613600 0.735200
-3.566300 0.744800
-3.519100 0.746400
-3.471900 0.782600
-3.424600 0.830700
-3.377400 0.970500
-3.330100 1.244800
-3.282900 1.237600
-3.235600 1.105800
-3.188400 1.081200
-3.141200 1.043900
-3.093900 1.011800
-3.046700 1.034000
-2.999400 1.121900
-2.952200 1.095700
-2.905000 1.047200
-2.857700 0.987600
-2.810500 0.935300
-2.763200 0.882700
-2.716000 0.869700
-2.668700 0.900800
-2.621500 0.926500
-2.574300 1.002700
-2.527000 1.066500
-2.479800 1.136500
-2.432500 1.117700
-2.385300 1.232100
-2.338000 1.311700
-2.290800 1.379400
-2.243600 1.458300
-2.196300 1.533900
-2.149100 1.626000
-2.101800 1.706200
-2.054600 1.713000
-2.007300 1.777900
-1.960100 2.245700
-1.912900 2.151900
-1.865600 1.641500
-1.818400 1.468500
-1.771100 1.270400
-1.723900 1.208900
-1.676600 1.164200
-1.629400 1.101500
-1.582200 0.901700
-1.534900 0.831400
-1.487700 0.783100
-1.440400 0.850000
-1.393200 0.929400
-1.346000 1.090500
-1.298700 1.308100
-1.251500 1.267500
-1.204200 1.222800
-1.157000 1.178500
-1.109700 1.136500
-1.062500 1.117400
-1.015300 1.054700
-0.968000 0.981500
-0.920800 0.866200
-0.873500 0.854600
-0.826300 0.919600
-0.779000 0.957300
-0.731800 0.763100
-0.684600 0.421700
-0.637300 0.453300
-0.590100 0.496500
-0.542800 0.539800
-0.495600 0.448200
-0.448300 0.450800
-0.401100 0.453300
-0.353900 0.455800
-0.306600 0.458400
-0.259400 0.461000
-0.212100 0.463700
-0.164900 0.466400
-0.117700 0.469100
-0.070400 0.471800
-0.023200 0.475000
0.024100 0.478400
0.071300 0.481800
0.118600 0.485200
0.165800 0.490200
0.213000 0.665100
0.260300 0.565100
0.307500 0.687800
0.354800 0.794500
0.402000 0.690000
0.449300 0.717600
0.496500 0.745300
0.543700 0.771700
0.591000 0.795600
0.638200 0.819400
0.685500 1.046900
0.732700 0.702100
0.780000 0.650700
0.827200 0.611000
0.874400 0.584900
0.921700 0.558700
0.968900 0.538600
1.016200 0.525900
1.063400 0.513200
1.110700 0.503800
1.157900 0.514900
1.205100 0.575800
1.252400 0.533200
1.299600 0.490500
1.346900 0.445800
1.394100 0.392000
1.441300 0.338200
1.488600 0.284400
1.535800 0.193900
1.583100 0.097000
1.630300 0.000000
1.677600 0.000000
1.724800 0.000000
1.772000 0.000000
1.819300 0.000000
1.866500 0.000000
1.913800 0.000000
1.961000 0.000000
2.008300 0.000000
2.055500 0.000000
2.102700 0.000000
2.150000 0.000000
2.197200 0.000000
2.244500 0.000000
2.291700 0.000000
2.339000 0.000000
2.386200 0.000000
2.433400 0.000000
2.480700 0.000000
2.527900 0.000000
2.575200 0.000000
2.622400 0.000000
2.669600 0.000000
2.716900 0.000000
2.764100 0.000000
2.811400 0.000000
2.858600 0.000000
2.905900 0.000000
2.953100 0.000000
3.000300 0.000000
3.047600 0.000000
3.094800 0.000000
3.142100 0.000000
3.189300 0.000000
3.236600 0.000000
3.283800 0.000000
3.331000 0.000000
3.378300 0.000000
3.425500 0.000000
3.472800 0.000000
3.520000 0.000000
3.567300 0.000000
3.614500 0.000000
3.661700 0.000000
3.709000 0.000000
3.756200 0.000000
3.803500 0.000000
3.850700 0.000000
3.898000 0.000000
3.945200 0.000000
3.992400 0.000000
4.039700 0.000000
4.086900 0.000000
4.134200 0.000000
4.181400 0.000000
4.228600 0.000000
4.275900 0.000000
4.323100 0.000000
4.370400 0.000000
4.417600 0.000000
4.464900 0.000000
4.512100 0.000000
4.559300 0.000000
4.606600 0.000000
4.653800 0.000000
4.701100 0.000900
4.748300 0.010300
4.795600 0.030000
4.842800 0.040500
4.890000 0.045000
4.937300 0.052100
4.984500 0.060700
5.031800 0.068500
5.079000 0.075900
5.126300 0.080900
5.173500 0.083300
5.220700 0.089800
5.268000 0.095700
5.315200 0.101800
5.362500 0.107600
5.409700 0.112500
5.456900 0.117800
5.504200 0.123400
5.551400 0.128100
5.598700 0.132800
5.645900 0.832200
5.693200 0.234000
5.740400 0.247900
5.787600 0.261900
5.834900 0.275500
5.882100 0.290200
5.929400 0.304600
5.976600 0.319400
6.023900 0.334400
6.071100 0.333000
6.118300 0.317700
6.165600 0.323600
6.212800 0.329700
6.260100 0.336000
6.307300 0.342900
6.354600 0.350700
6.401800 0.359400
6.449000 0.368300
6.496300 0.378000
6.543500 0.515300
6.590800 0.610100
6.638000 0.659900
6.685300 0.733100
6.732500 0.816300
6.779700 0.933800
6.827000 1.125200
6.874200 1.210400
6.921500 1.180700
6.968700 1.156900
7.015900 1.157400
7.063200 1.152100
7.110400 1.129000
7.157700 1.101300
7.204900 1.086600
7.252200 1.082900
7.299400 1.081800
7.346600 1.070000
7.393900 1.073700
7.441100 1.077100
7.488400 1.080400
7.535600 1.088700
7.582900 1.099500
7.630100 1.112600
7.677300 1.114100
7.724600 1.145300
7.771800 1.048500
7.819100 0.953300
7.866300 0.786400
7.913600 0.664300
7.960800 0.560800
8.008000 0.562000
8.055300 0.708000
8.102500 0.740300
8.149800 0.767900
8.197000 0.795300
8.244200 0.809200
8.291500 0.831400
8.338700 1.168900
8.386000 1.066600
8.433200 0.956500
8.480500 0.880400
8.527700 0.900000
8.574900 0.712800
8.622200 0.648900
8.669400 0.651900
8.716700 0.650500
8.763900 0.650800
8.811200 0.653800
8.858400 0.659400
8.905600 0.691000
8.952900 0.735900
9.000100 0.708200
9.047400 0.662700
9.094600 0.627600
9.141900 0.592000
9.189100 0.554200
9.236300 0.527600
9.283600 0.499000
9.330800 0.464800
9.378100 0.463700
9.425300 0.617900
9.472600 0.473700
9.519800 0.502600
9.567000 0.536600
9.614300 0.567400
9.661500 0.587700
9.708800 0.620400
9.756000 0.674200
9.803200 0.776900
9.850500 0.864700
9.897700 0.993100
9.945000 1.121000
9.992200 1.064800
10.039500 1.095600
10.086700 1.123900
10.133900 1.128200
10.181200 1.143800
10.228400 1.130000
10.275700 1.110700
10.322900 1.103100
10.370200 1.131000
10.417400 1.106700
10.464600 1.097400
10.511900 1.090100
10.559100 1.099700
10.606400 1.099100
10.653600 1.108300
10.700900 1.121300
10.748100 1.129800
10.795300 1.128000
10.842600 1.123600
10.889800 1.178000
10.937100 1.196000
10.984300 1.213200
11.031500 1.226800
11.078800 1.278000
11.126000 1.239600
11.173300 1.224300
11.220500 1.207400
11.267800 1.189400
11.315000 1.204100
11.362200 1.236900
11.409500 1.273700
11.456700 1.362800
11.504000 1.447900
11.551200 1.416300
11.598500 1.397900
11.645700 1.394800
11.692900 1.426200
11.740200 1.561500
11.787400 1.667100
11.834700 1.673800
11.881900 1.675100
11.929200 1.667200
11.976400 1.643900
12.023600 1.567600
12.070900 1.382100
12.118100 1.199400
12.165400 1.079300
12.212600 1.049100
12.259900 0.985100
12.307100 0.966200
12.354300 1.024300
12.401600 1.131700
12.448800 1.196300
12.496100 1.284600
12.543300 1.346600
12.590500 1.365500
12.637800 1.367500
12.685000 1.371700
12.732300 1.356100
12.779500 1.298300
12.826800 1.258900
12.874000 1.261800
12.921200 1.265800
12.968500 1.297100
13.015700 1.346900
13.063000 1.385800
13.110200 1.431600
13.157500 1.444500
13.204700 1.445000
13.251900 1.391800
13.299200 1.301800
13.346400 1.126600
13.393700 0.982200
13.440900 0.867100
13.488200 0.798800
13.535400 0.739600
13.582600 0.708200
13.629900 0.711900
13.677100 1.012200
13.724400 1.043900
13.771600 0.894700
13.818800 0.891600
13.866100 0.912000
13.913300 0.934400
13.960600 0.954200
14.007800 0.967100
14.055100 1.014200
14.102300 1.117600
14.149500 1.098700
14.196800 1.096800
14.244000 1.068800
14.291300 1.057900
14.338500 1.047100
14.385800 1.162300
14.433000 1.230800
14.480200 1.256900
14.527500 1.296300
14.574700 1.309500
14.622000 1.327200
14.669200 1.291100
14.716500 1.290600
14.763700 1.300800
14.810900 1.323000
14.858200 1.363200
14.905400 1.329900
14.952700 1.274300
14.999900 1.191800
15.047200 1.115900
15.094400 1.037500
15.141600 0.982000
15.188900 0.932300
15.236100 0.903300
15.283400 0.941900
15.330600 0.948200
15.377800 0.960700
15.425100 0.989800
15.472300 1.034200
15.519600 1.075700
15.566800 1.128500
15.614100 1.208500
15.661300 1.242300
15.708500 1.279700
15.755800 1.259900
15.803000 1.270000
15.850300 1.222100
15.897500 1.190800
15.944800 1.172300
15.992000 1.159400
16.039200 1.130600
16.086500 1.166000
16.133700 1.184100
16.181000 1.192500
16.228200 1.198100
16.275500 1.209700
16.322700 1.225600
16.369900 1.240700
16.417200 1.279100
16.464400 1.269100
16.511700 1.279600
16.558900 1.293300
16.606100 1.336600
16.653400 1.372600
16.700600 1.372700
16.747900 1.407300
16.795100 1.458300
16.842400 1.541200
16.889600 1.523600
16.936800 1.512600
16.984100 1.443000
17.031300 1.356400
17.078600 1.287800
17.125800 1.245400
17.173100 1.186800
17.220300 1.141200
17.267500 1.107600
17.314800 1.080200
17.362000 1.069000
17.409300 1.073400
17.456500 1.064400
17.503800 1.031000
17.551000 1.017900
17.598200 1.026500
17.645500 1.014100
17.692700 1.010800
17.740000 1.122200
17.787200 1.116900
17.834500 1.169000
17.881700 1.180000
17.928900 1.223800
17.976200 1.283600
18.023400 1.346400
18.070700 1.359300
18.117900 1.361100
18.165100 1.417800
18.212400 1.396100
18.259600 1.325100
18.306900 1.230700
18.354100 1.153600
18.401400 1.111700
18.448600 1.096700
18.495800 1.080300
18.543100 1.075900
18.590300 1.091700
18.637600 1.115000
18.684800 1.146500
18.732100 1.198600
18.779300 1.224800
18.826500 1.259600
18.873800 1.326700
18.921000 1.258400
18.968300 1.153400
19.015500 1.081800
19.062800 1.048700
19.110000 1.021500
19.157200 0.994200
19.204500 0.980200
19.251700 0.975600
19.299000 0.976600
19.346200 0.980500
19.393400 0.983500
19.440700 0.971800
19.487900 0.944300
19.535200 0.919900
19.582400 0.913500
19.629700 0.915000
19.676900 0.925200
19.724100 0.944500
19.771400 0.966300
19.818600 0.995800
19.865900 1.027100
19.913100 1.063300
19.960400 1.113800
20.007600 1.123200
20.054800 1.141000
20.102100 1.150600
20.149300 1.109400
20.196600 1.083400
20.243800 1.085300
20.291100 1.090000
20.338300 1.097000
20.385500 1.135900
20.432800 1.125100
20.480000 1.139500
20.527300 1.224600
20.574500 1.226800
20.621800 1.209400
20.669000 1.185200
20.716200 1.139300
20.763500 1.089300
20.810700 1.068200
20.858000 1.068500
20.905200 1.052100
20.952400 1.059000
20.999700 1.079400
21.046900 1.122700
21.094200 1.176200
21.141400 1.218300
21.188700 1.266400
21.235900 1.365800
21.283100 1.338100
21.330400 1.336000
21.377600 1.362400
21.424900 1.376700
21.472100 1.407300
21.519400 1.449000
21.566600 1.511300
21.613800 1.580000
21.661100 1.649100
21.708300 1.675200
21.755600 1.665400
21.802800 1.631200
21.850100 1.588000
21.897300 1.548400
21.944500 1.447700
21.991800 1.353200
22.039000 1.277800
22.086300 1.202400
22.133500 1.134600
22.180700 1.090300
22.228000 1.057600
22.275200 1.050600
22.322500 1.068000
22.369700 1.087300
22.417000 1.090800
22.464200 1.121600
22.511400 1.150000
22.558700 1.143600
22.605900 1.151300
22.653200 1.195100
22.700400 1.244200
22.747700 1.275600
22.794900 1.301900
22.842100 1.327200
22.889400 1.347600
22.936600 1.370000
22.983900 1.422200
23.031100 1.487700
23.078400 1.567400
23.125600 1.564100
23.172800 1.595400
23.220100 1.565400
23.267300 1.560300
23.314600 1.545000
23.361800 1.522200
23.409100 1.463100
23.456300 1.421900
23.503500 1.438900
23.550800 1.503900
23.598000 1.538400
23.645300 1.460600
23.692500 1.443600
23.739700 1.422600
23.787000 1.419400
23.834200 1.377100
23.881500 1.320400
23.928700 1.240600
23.976000 1.146700
24.023200 1.085100
24.070400 1.058500
24.117700 1.084100
24.164900 1.082800
24.212200 1.109100
24.259400 1.184900
24.306700 1.302200
24.353900 1.354400
24.401100 1.399400
24.448400 1.475100
24.495600 1.414400
24.542900 1.385700
24.590100 1.380200
24.637400 1.361500
24.684600 1.344200
24.731800 1.310100
24.779100 1.280900
24.826300 1.228800
24.873600 1.218900
24.920800 1.227900
24.968000 1.229400
25.015300 1.227900
25.062500 1.232100
25.109800 1.254300
25.157000 1.301900
25.204300 1.392100
25.251500 1.434700
25.298700 1.407900
25.346000 1.427300
25.393200 1.429900
25.440500 1.446500
25.487700 1.482500
25.535000 1.579500
25.582200 1.626800
25.629400 1.657700
25.676700 1.721000
25.723900 1.769600
25.771200 1.830000
25.818400 1.771600
25.865700 1.682000
25.912900 1.629900
25.960100 1.534600
26.007400 1.436800
26.054600 1.360300
26.101900 1.305100
26.149100 1.285100
26.196400 1.262000
26.243600 1.240000
26.290800 1.275000
26.338100 1.307300
26.385300 1.285700
26.432600 1.285600
26.479800 1.244900
26.527000 1.252800
26.574300 1.238400
26.621500 1.230500
26.668800 1.235300
26.716000 1.235600
26.763300 1.262200
26.810500 1.278000
26.857700 1.347900
26.905000 1.434800
26.952200 1.439000
26.999500 1.477800
27.046700 1.546200
27.094000 1.617600
27.141200 1.676500
27.188400 1.720000
27.235700 1.740700
27.282900 1.762000
27.330200 1.723600
27.377400 1.677900
27.424700 1.557700
27.471900 1.501600
27.519100 1.467900
27.566400 1.459300
27.613600 1.482100
27.660900 1.538200
27.708100 1.496400
27.755300 1.456900
27.802600 1.457000
27.849800 1.498700
27.897100 1.528400
27.944300 1.537500
27.991600 1.490500
28.038800 1.469500
28.086000 1.465800
28.133300 1.474700
28.180500 1.467200
28.227800 1.468400
28.275000 1.427500
28.322300 1.416400
28.369500 1.407100
28.416700 1.402700
28.464000 1.425900
28.511200 1.434600
28.558500 1.422700
28.605700 1.402100
28.653000 1.384000
28.700200 1.366800
28.747400 1.363100
28.794700 1.341600
28.841900 1.333700
28.889200 1.288800
28.936400 1.284700
28.983700 1.286200
29.030900 1.293600
29.078100 1.308400
29.125400 1.313500
29.172600 1.330900
29.219900 1.356500
29.267100 1.394800
29.314300 1.423800
29.361600 1.458600
29.408800 1.552800
29.456100 1.616500
29.503300 1.716300
29.550600 1.684000
29.597800 1.636800
29.645000 1.634900
29.692300 1.621200
29.739500 1.650100
29.786800 1.689300
29.834000 1.616000
29.881300 1.538500
29.928500 1.479700
29.975700 1.451200
30.023000 1.432900
30.070200 1.460400
30.117500 1.467400
30.164700 1.510200
30.212000 1.502900
30.259200 1.517900
30.306400 1.531100
30.353700 1.539000
30.400900 1.540900
30.448200 1.536200
30.495400 1.548400
30.542600 1.582200
30.589900 1.583900
30.637100 1.555700
30.684400 1.545700
30.731600 1.460400
30.778900 1.419100
30.826100 1.398100
30.873300 1.382500
30.920600 1.378600
30.967800 1.350500
31.015100 1.280700
31.062300 1.263100
31.109600 1.263600
31.156800 1.290000
31.204000 1.329200
31.251300 1.365700
31.298500 1.382500
31.345800 1.363700
31.393000 1.406400
31.440300 1.461700
31.487500 1.535000
31.534700 1.565800
31.582000 1.554600
31.629200 1.553200
31.676500 1.546500
31.723700 1.557700
31.771000 1.575000
31.818200 1.581000
31.865400 1.588100
31.912700 1.591600
31.959900 1.587300
32.007200 1.622800
32.054400 1.670500
32.101600 1.677500
32.148900 1.673200
32.196100 1.672400
32.243400 1.667500
32.290600 1.666300
32.337900 1.661000
32.385100 1.664800
32.432300 1.667100
32.479600 1.682600
32.526800 1.687000
32.574100 1.695500
32.621300 1.712300
32.668600 1.710200
32.715800 1.664800
32.763000 1.595600
32.810300 1.557500
32.857500 1.521900
32.904800 1.518600
32.952000 1.481300
32.999300 1.517500
33.046500 1.558500
33.093700 1.585500
33.141000 1.597500
33.188200 1.587100
33.235500 1.576300
33.282700 1.562400
33.329900 1.547400
33.377200 1.520100
33.424400 1.487800
33.471700 1.427400
33.518900 1.388500
33.566200 1.374900
33.613400 1.394000
33.660600 1.392900
33.707900 1.411100
33.755100 1.444500
33.802400 1.454500
33.849600 1.438000
33.896900 1.432800
33.944100 1.454900
33.991300 1.466000
34.038600 1.502100
34.085800 1.565300
34.133100 1.665700
34.180300 1.656600
34.227600 1.668500
34.274800 1.707700
34.322000 1.718400
34.369300 1.728500
34.416500 1.748700
34.463800 1.715700
34.511000 1.643800
34.558300 1.555200
34.605500 1.493000
34.652700 1.451100
34.700000 1.442400
34.747200 1.442700
34.794500 1.447500
34.841700 1.469500
34.888900 1.506100
34.936200 1.544800
34.983400 1.560000
35.030700 1.562500
35.077900 1.554400
35.125200 1.561100
35.172400 1.584000
35.219600 1.646100
35.266900 1.651900
35.314100 1.649800
35.361400 1.647200
35.408600 1.615900
35.455900 1.632000
35.503100 1.652000
35.550300 1.683700
35.597600 1.721400
35.644800 1.780000
35.692100 1.791700
35.739300 1.762900
35.786600 1.721000
35.833800 1.732500
35.881000 1.709800
35.928300 1.684200
35.975500 1.660100
36.022800 1.638700
36.070000 1.629000
36.117200 1.618700
36.164500 1.568800
36.211700 1.482600
36.259000 1.467200
36.306200 1.521700
36.353500 1.538000
36.400700 1.522900
36.447900 1.496200
36.495200 1.533600
36.542400 1.578700
36.589700 1.570200
36.636900 1.589700
36.684200 1.723600
36.731400 1.685300
36.778600 1.750600
36.825900 1.759900
36.873100 1.737200
36.920400 1.700600
36.967600 1.682800
37.014900 1.669000
37.062100 1.643700
37.109300 1.645500
37.156600 1.634700
37.203800 1.634100
37.251100 1.618000
37.298300 1.667300
37.345600 1.619500
37.392800 1.634400
37.440000 1.658700
37.487300 1.665300
37.534500 1.656300
37.581800 1.648300
37.629000 1.640000
37.676200 1.617400
37.723500 1.582700
37.770700 1.529300
37.818000 1.546300
37.865200 1.590400
37.912500 1.595000
37.959700 1.637600
38.006900 1.588400
38.054200 1.561100
38.101400 1.545300
38.148700 1.532400
38.195900 1.528400
38.243200 1.558300
38.290400 1.567200
38.337600 1.573200
38.384900 1.577600
38.432100 1.580600
38.479400 1.604300
38.526600 1.642100
38.573900 1.626300
38.621100 1.602500
38.668300 1.630200
38.715600 1.652100
38.762800 1.675300
38.810100 1.696100
38.857300 1.734900
38.904600 1.779900
38.951800 1.719300
38.999000 1.724800
39.046300 1.767200
39.093500 1.803100
39.140800 1.851400
39.188000 1.927000
39.235200 1.825400
39.282500 1.810500
39.329700 1.808900
39.377000 1.837200
39.424200 1.860800
39.471500 1.859500
39.518700 1.778800
39.565900 1.722000
39.613200 1.615800
39.660400 1.570800
39.707700 1.557600
39.754900 1.606100
39.802200 1.639600
39.849400 1.582900
39.896600 1.607200
39.943900 1.629600
39.991100 1.648700
40.038400 1.689100
40.085600 1.742700
40.132900 1.795800
40.180100 1.812000
40.227300 1.812100
40.274600 1.803200
40.321800 1.734500
40.369100 1.690100
40.416300 1.693000
40.463500 1.732300
40.510800 1.791100
40.558000 1.852700
40.605300 1.874900
40.652500 1.871300
40.699800 1.857400
40.747000 1.794900
40.794200 1.777800
40.841500 1.756200
40.888700 1.754600
40.936000 1.741100
40.983200 1.711100
41.030500 1.681100
41.077700 1.654200
41.124900 1.623800
41.172200 1.610000
41.219400 1.578800
41.266700 1.538900
41.313900 1.517900
41.361200 1.524400
41.408400 1.567800
41.455600 1.619600
41.502900 1.676100
41.550100 1.732500
41.597400 1.770700
41.644600 1.826300
41.691900 1.824100
41.739100 1.773900
41.786300 1.767500
41.833600 1.773800
41.880800 1.743800
41.928100 1.658200
41.975300 1.649100
42.022500 1.956500
42.069800 1.790800
42.117000 1.797000
42.164300 1.874200
42.211500 1.903100
42.258800 1.822700
42.306000 1.780500
42.353200 1.748200
42.400500 1.718800
42.447700 1.724700
42.495000 1.764100
42.542200 1.788200
42.589500 1.796100
42.636700 1.784000
42.683900 1.755300
42.731200 1.722800
42.778400 1.697600
42.825700 1.681300
42.872900 1.650200
42.920200 1.612300
42.967400 1.579500
43.014600 1.549400
43.061900 1.518000
43.109100 1.500900
43.156400 1.492500
43.203600 1.497200
43.250800 1.584900
43.298100 1.569200
43.345300 1.590200
43.392600 1.591000
43.439800 1.638200
43.487100 1.759000
43.534300 1.775200
43.581500 1.791500
43.628800 1.826700
43.676000 1.861300
43.723300 1.863500
43.770500 1.890400
43.817800 1.882600
43.865000 1.859600
43.912200 1.832300
43.959500 1.807700
44.006700 1.793400
44.054000 1.785600
44.101200 1.754300
44.148500 1.800500
44.195700 1.835000
44.242900 1.767200
44.290200 1.727600
44.337400 1.721800
44.384700 1.764100
44.431900 1.787800
44.479200 1.725600
44.526400 1.786700
44.573600 1.788900
44.620900 1.813500
44.668100 1.822300
44.715400 1.888000
44.762600 1.916200
44.809800 1.912700
44.857100 1.870000
44.904300 1.805800
44.951600 1.768800
44.998800 1.751200
45.046100 1.741200
45.093300 1.751500
45.140500 1.738900
45.187800 1.718200
45.235000 1.703200
45.282300 1.703200
45.329500 1.725700
45.376800 1.738400
45.424000 1.752400
45.471200 1.776800
45.518500 1.796300
45.565700 1.772400
45.613000 1.804300
45.660200 1.835800
45.707500 1.843600
45.754700 1.850400
45.801900 1.781400
45.849200 1.746500
45.896400 1.739100
45.943700 1.739700
45.990900 1.680500
46.038100 1.663500
46.085400 1.673400
46.132600 1.741300
46.179900 1.759300
46.227100 1.767900
46.274400 1.801000
46.321600 1.809000
46.368800 1.828100
46.416100 1.873000
46.463300 1.890700
46.510600 1.908500
46.557800 1.897000
46.605100 1.904200
46.652300 1.929700
46.699500 1.926400
46.746800 1.868400
46.794000 1.844200
46.841300 1.836000
46.888500 1.829500
46.935800 1.820400
46.983000 1.820200
47.030200 1.832900
47.077500 1.847400
47.124700 1.860600
47.172000 1.855200
47.219200 1.858000
47.266500 1.801200
47.313700 1.797700
47.360900 1.786100
47.408200 1.782500
47.455400 1.786800
47.502700 1.793000
47.549900 1.821200
47.597100 1.865300
47.644400 1.930500
47.691600 1.916600
47.738900 1.959600
47.786100 1.911900
47.833400 1.887300
47.880600 1.867700
47.927800 1.850600
47.975100 1.817600
48.022300 1.787200
48.069600 1.782200
48.116800 1.782000
48.164100 1.774200
48.211300 1.748500
48.258500 1.727900
48.305800 1.721000
48.353000 1.754700
48.400300 1.776100
48.447500 1.766100
48.494800 1.824600
48.542000 1.847500
48.589200 1.868900
48.636500 1.904700
48.683700 1.906300
48.731000 1.871300
48.778200 1.814900
48.825400 1.752600
48.872700 1.716600
48.919900 1.710100
48.967200 1.709600
49.014400 1.709900
49.061700 1.708900
49.108900 1.745700
49.156100 1.778900
49.203400 1.833500
49.250600 1.850200
49.297900 1.855300
49.345100 1.882100
49.392400 1.937600
49.439600 1.977900
49.486800 1.991400
49.534100 1.962800
49.581300 1.967800
49.628600 1.965600
49.675800 1.984100
49.723100 2.029400
49.770300 2.100900
49.817500 2.062200
49.864800 2.026100
49.912000 2.014300
49.959300 2.035900
50.006500 2.001200
50.053800 1.959100
50.101000 1.951300
50.148200 1.920700
50.195500 1.961400
50.242700 1.987300
50.290000 2.017400
50.337200 1.997900
50.384400 2.003000
50.431700 1.991200
50.478900 1.990600
50.526200 1.937600
50.573400 1.862000
50.620700 1.822800
50.667900 1.801100
50.715100 1.835900
50.762400 1.841400
50.809600 1.808800
50.856900 1.799900
50.904100 1.808900
50.951400 1.837800
50.998600 1.850100
51.045800 1.844800
51.093100 1.816400
51.140300 1.820100
51.187600 1.837700
51.234800 1.810600
51.282100 1.812500
51.329300 1.808800
51.376500 1.746300
51.423800 1.718900
51.471000 1.703200
51.518300 1.701800
51.565500 1.696700
51.612700 1.694500
51.660000 1.688400
51.707200 1.705000
51.754500 1.753700
51.801700 1.775400
51.849000 1.791900
51.896200 1.785300
51.943400 1.790100
51.990700 1.787000
52.037900 1.786600
52.085200 1.778700
52.132400 1.797000
52.179700 1.840900
52.226900 1.864800
52.274100 1.901400
52.321400 1.948700
52.368600 2.038900
52.415900 1.997500
52.463100 2.008800
52.510400 2.014100
52.557600 1.993000
52.604800 1.960800
52.652100 1.954600
52.699300 1.951100
52.746600 1.926000
52.793800 1.893900
52.841100 1.883800
52.888300 1.876800
52.935500 1.906200
52.982800 1.950400
53.030000 1.991000
53.077300 2.045300
53.124500 2.076600
53.171700 2.088300
53.219000 2.081700
53.266200 2.054900
53.313500 2.036400
53.360700 2.054100
53.408000 2.003100
53.455200 1.951800
53.502400 1.945600
53.549700 1.947700
53.596900 1.960700
53.644200 1.987100
53.691400 2.014800
53.738700 2.023200
53.785900 2.040500
53.833100 2.043000
53.880400 2.083500
53.927600 2.100500
53.974900 2.057800
54.022100 2.007900
54.069400 1.962300
54.116600 1.938200
54.163800 1.901500
54.211100 1.880100
54.258300 1.884400
54.305600 1.859300
54.352800 1.853800
54.400000 1.887300
54.447300 1.930900
54.494500 1.963100
54.541800 1.969200
54.589000 1.956200
54.636300 1.951100
54.683500 1.933200
54.730700 1.929900
54.778000 1.872900
54.825200 1.879800
54.872500 1.887200
54.919700 1.881900
54.967000 1.876300
55.014200 1.834900
55.061400 1.784500
55.108700 1.746200
55.155900 1.713400
55.203200 1.689400
55.250400 1.704600
55.297700 1.715600
55.344900 1.732700
55.392100 1.703600
55.439400 1.704600
55.486600 1.729200
55.533900 1.734500
55.581100 1.764000
55.628400 1.794100
55.675600 1.827800
55.722800 1.865300
55.770100 1.957600
55.817300 2.052100
55.864600 1.998500
55.911800 2.045200
55.959000 2.082300
56.006300 2.126200
56.053500 2.167300
56.100800 2.230200
56.148000 2.272700
56.195300 2.280000
56.242500 2.272600
56.289700 2.242500
56.337000 2.232500
56.384200 2.220300
56.431500 2.186700
56.478700 2.129900
56.526000 2.151600
56.573200 2.114000
56.620400 2.076700
56.667700 2.029800
56.714900 2.016600
56.762200 2.008400
56.809400 1.983200
56.856700 1.965500
56.903900 2.025300
56.951100 1.994200
56.998400 1.943800
57.045600 1.910100
57.092900 1.875500
57.140100 1.867500
57.187300 1.817700
57.234600 1.831500
57.281800 1.849800
57.329100 1.871900
57.376300 1.877600
57.423600 1.893200
57.470800 1.909400
57.518000 1.944000
57.565300 1.965000
57.612500 1.977200
57.659800 1.996700
57.707000 2.021000
57.754300 2.024200
57.801500 2.062100
57.848700 1.966300
57.896000 1.969800
57.943200 1.982000
57.990500 1.967300
58.037700 1.969500
58.085000 2.020600
58.132200 2.025600
58.179400 2.037000
58.226700 2.053500
58.273900 2.090400
58.321200 2.114200
58.368400 2.147400
58.415700 2.169500
58.462900 2.156000
58.510100 2.118300
58.557400 2.090400
58.604600 2.029900
58.651900 1.964000
58.699100 1.986100
58.746300 2.038200
58.793600 2.022300
58.840800 1.993200
58.888100 1.960300
58.935300 1.948500
58.982600 1.947000
59.029800 1.967400
59.077000 2.029200
59.124300 1.963600
59.171500 1.977700
59.218800 1.969800
59.266000 1.989400
59.313300 1.993700
59.360500 2.033300
59.407700 2.090600
59.455000 2.134300
59.502200 2.137700
59.549500 2.129100
59.596700 2.139700
59.644000 2.156100
59.691200 2.118500
59.738400 2.062900
59.785700 2.041400
59.832900 1.962200
59.880200 1.930600
59.927400 1.918900
59.974600 1.903500
60.021900 1.880300
60.069100 1.907400
60.116400 1.937700
60.163600 2.013700
60.210900 2.081800
60.258100 2.143900
60.305300 2.120400
60.352600 2.094600
60.399800 2.076500
60.447100 2.068800
60.494300 2.048000
60.541600 1.998500
60.588800 1.975400
60.636000 1.955900
60.683300 1.934500
60.730500 1.908900
60.777800 1.884500
60.825000 1.888900
60.872300 1.914600
60.919500 1.969600
60.966700 2.000100
61.014000 2.017500
61.061200 2.042300
61.108500 2.033100
61.155700 1.982800
61.203000 1.938900
61.250200 1.899800
61.297400 1.837700
61.344700 1.800900
61.391900 1.774700
61.439200 1.762100
61.486400 1.739200
61.533600 1.709900
61.580900 1.696700
61.628100 1.684300
61.675400 1.682700
61.722600 1.700500
61.769900 1.780500
61.817100 1.834200
61.864300 1.772200
61.911600 1.770400
61.958800 1.764600
62.006100 1.773000
62.053300 1.758400
62.100600 1.706100
62.147800 1.637600
62.195000 1.574600
62.242300 1.499400
62.289500 1.413300
62.336800 1.356200
62.384000 1.319500
62.431300 1.267200
62.478500 1.247400
62.525700 1.245600
62.573000 1.247300
62.620200 1.242400
62.667500 1.210100
62.714700 1.204000
62.761900 1.157600
62.809200 1.113100
62.856400 1.108100
62.903700 1.085400
62.950900 1.019700
62.998200 0.960400
63.045400 0.892100
63.092600 0.820200
63.139900 0.744100
63.187100 0.695600
63.234400 0.647600
63.281600 0.595000
63.328900 0.570100
63.376100 0.553600
63.423300 0.541300
63.470600 0.526500
63.517800 0.518000
63.565100 0.510800
63.612300 0.485500
63.659600 0.477000
63.706800 0.464300
63.754000 0.451900
63.801300 0.425300
63.848500 0.405900
63.895800 0.374100
63.943000 0.344900
63.990300 0.318000
64.037500 0.292700
64.084700 0.273200
64.132000 0.259700
64.179200 0.245100
64.226500 0.217600
64.273700 0.196800
64.320900 0.174000
64.368200 0.155600
64.415400 0.137700
64.462700 0.125700
64.509900 0.114300
64.557200 0.103700
64.604400 0.097100
64.651600 0.094500
64.698900 0.092300
64.746100 0.090300
64.793400 0.089200
64.840600 0.090400
64.887900 0.092600
64.935100 0.093300
64.982300 0.093400
65.029600 0.094200
65.076800 0.094700
65.124100 0.094300
65.171300 0.093500
65.218600 0.092900
65.265800 0.093500
65.313000 0.094200
65.360300 0.094800
65.407500 0.095100
65.454800 0.095400
65.502000 0.090000
65.549200 0.076700
65.596500 0.072800
65.643700 0.070200
65.691000 0.069700
65.738200 0.072700
65.785500 0.074600
65.832700 0.068100
65.879900 0.061500
65.927200 0.055000
65.974400 0.048300
66.021700 0.042000
66.068900 0.037500
66.116200 0.034400
66.163400 0.032000
66.210600 0.029800
66.257900 0.027600
66.305100 0.025600
66.352400 0.023700
66.399600 0.022000
66.446900 0.020400
66.494100 0.018900
66.541300 0.017500
66.588600 0.016200
66.635800 0.015500
66.683100 0.015100
66.730300 0.014800
66.777600 0.014400
66.824800 0.014100
66.872000 0.013800
66.919300 0.013500
66.966500 0.013100
67.013800 0.012800
67.061000 0.012500
67.108200 0.012200
67.155500 0.011900
67.202700 0.011600
67.250000 0.011300
67.297200 0.011100
67.344500 0.010800
67.391700 0.010500
67.438900 0.010300
67.486200 0.010000
67.533400 0.009800
67.580700 0.009500
67.627900 0.009300
67.675200 0.009100
67.722400 0.008800
67.769600 0.008600
67.816900 0.008400
67.864100 0.008200
67.911400 0.008000
67.958600 0.007800
68.005900 0.007600
68.053100 0.007500
68.100300 0.007300
68.147600 0.007100
68.194800 0.006900
68.242100 0.006700
68.289300 0.006500
68.336500 0.006300
68.383800 0.006200
68.431000 0.006000
68.478300 0.005800
68.525500 0.005700
68.572800 0.005500
68.620000 0.005300
68.667200 0.005100
68.714500 0.005000
68.761700 0.004800
68.809000 0.004700
68.856200 0.004500
68.903500 0.004300
68.950700 0.004200
68.997900 0.004000
69.045200 0.003900
69.092400 0.003700
69.139700 0.003600
69.186900 0.003500
69.234200 0.003400
69.281400 0.003600
69.328600 0.004000
69.375900 0.004200
69.423100 0.004300
69.470400 0.004400
69.517600 0.004300
69.564900 0.004300
69.612100 0.004100
69.659300 0.003900
69.706600 0.003600
69.753800 0.003200
69.801100 0.000500
69.848300 0.000000
69.895500 0.000000
69.942800 0.000000
69.990000 0.000000
70.037300 0.000000
70.084500 0.000000
70.131800 0.000000
70.179000 0.000000
70.226200 0.000000
70.273500 0.000000
70.320700 0.000000
70.368000 0.000000
70.415200 0.000000
70.462500 0.000000
70.509700 0.000000
70.556900 0.000000
70.604200 0.000000
70.651400 0.000000
70.698700 0.000000
70.745900 0.000000
70.793200 0.000000
70.840400 0.000000
70.887600 0.000000
70.934900 0.000000
70.982100 0.000000
71.029400 0.000000
71.076600 0.000000
71.123800 0.000000
71.171100 0.000000
71.218300 0.000000
71.265600 0.000000
71.312800 0.000000
71.360100 0.000000
71.407300 0.000000
71.454500 0.000000
71.501800 0.000000
71.549000 0.000000
71.596300 0.000000
71.643500 0.000000
71.690800 0.000000
71.738000 0.000000
71.785200 0.000000
71.832500 0.000000
71.879700 0.000000
71.927000 0.000000
71.974200 0.000000
72.021500 0.000000
72.068700 0.000000
72.115900 0.000000
72.163200 0.000000
72.210400 0.000000
72.257700 0.000000
72.304900 0.000000
72.352200 0.000000
72.399400 0.000000
72.446600 0.000000
72.493900 0.000000
72.541100 0.000000
72.588400 0.000000
72.635600 0.000000
72.682800 0.000000
72.730100 0.000000
72.777300 0.000000
72.824600 0.000000
72.871800 0.000000
72.919100 0.000000
72.966300 0.000000
73.013500 0.000000
73.060800 0.000000
73.108000 0.000000
73.155300 0.000000
73.202500 0.000000
73.249800 0.000000
73.297000 0.000000
73.344200 0.000000
73.391500 0.000000
73.438700 0.000000
73.486000 0.000000
73.533200 0.000000
73.580500 0.000000
73.627700 0.000000
73.674900 0.000000
73.722200 0.000000
73.769400 0.000000
73.816700 0.000000
73.863900 0.000000
73.911100 0.000000
73.958400 0.000000
74.005600 0.000000
74.052900 0.000000
74.100100 0.000000
e
