set title 'mp-1226072 - Density of States'
set xlabel 'Energy (eV)'
set ylabel 'DOS (states/eV)'
set grid
set xrange [-10:10]
set yrange [0:12.079]
set xzeroaxis lt -1
set terminal png size 800,600
set output 'mp-1226072_dos_gnuplot.png'
plot '-' using 1:2 with lines title 'DOS'
-8.014300 0.000000
-7.987800 0.000000
-7.961300 0.000000
-7.934800 0.000000
-7.908300 0.000000
-7.881800 0.000000
-7.855300 0.000000
-7.828800 0.000000
-7.802300 0.000000
-7.775800 0.000000
-7.749300 0.000000
-7.722800 0.000000
-7.696300 0.000000
-7.669800 0.000000
-7.643300 0.000000
-7.616800 0.000000
-7.590300 0.000000
-7.563800 0.000000
-7.537300 0.000000
-7.510800 0.000000
-7.484200 0.000000
-7.457700 0.000000
-7.431200 0.000000
-7.404700 0.000000
-7.378200 0.000000
-7.351700 0.000000
-7.325200 0.000000
-7.298700 0.000000
-7.272200 0.000000
-7.245700 0.000000
-7.219200 0.000000
-7.192700 0.000000
-7.166200 0.000000
-7.139700 0.000000
-7.113200 0.000000
-7.086700 0.000000
-7.060200 0.000000
-7.033700 0.000000
-7.007200 0.000000
-6.980700 0.000000
-6.954200 0.000000
-6.927700 0.000000
-6.901100 0.000000
-6.874600 0.000000
-6.848100 0.000000
-6.821600 0.000000
-6.795100 0.000000
-6.768600 0.000000
-6.742100 0.000000
-6.715600 0.000000
-6.689100 0.000000
-6.662600 0.000000
-6.636100 0.000000
-6.609600 0.000000
-6.583100 0.000000
-6.556600 0.000000
-6.530100 0.000000
-6.503600 0.000000
-6.477100 0.000000
-6.450600 0.000000
-6.424100 0.000000
-6.397600 0.000000
-6.371100 0.000000
-6.344600 0.000000
-6.318000 0.000000
-6.291500 0.000000
-6.265000 0.000000
-6.238500 0.000000
-6.212000 0.000000
-6.185500 0.000000
-6.159000 0.000000
-6.132500 0.000000
-6.106000 0.000000
-6.079500 0.000000
-6.053000 0.000000
-6.026500 0.000000
-6.000000 0.000000
-5.973500 0.000000
-5.947000 0.000000
-5.920500 0.000000
-5.894000 0.000000
-5.867500 0.000000
-5.841000 0.000000
-5.814500 0.000000
-5.788000 0.000000
-5.761500 0.000000
-5.734900 0.000000
-5.708400 0.000000
-5.681900 0.000000
-5.655400 0.000000
-5.628900 0.000000
-5.602400 0.000000
-5.575900 0.000000
-5.549400 0.027500
-5.522900 0.093900
-5.496400 0.139800
-5.469900 0.137900
-5.443400 0.120500
-5.416900 0.127700
-5.390400 0.134900
-5.363900 0.141900
-5.337400 0.142600
-5.310900 0.136100
-5.284400 0.129700
-5.257900 0.128900
-5.231400 0.131600
-5.204900 0.134400
-5.178400 0.137100
-5.151800 0.139900
-5.125300 0.142700
-5.098800 0.145400
-5.072300 0.141200
-5.045800 0.138000
-5.019300 0.138000
-4.992800 0.138100
-4.966300 0.138100
-4.939800 0.138800
-4.913300 0.140400
-4.886800 0.142000
-4.860300 0.143600
-4.833800 0.145300
-4.807300 0.146900
-4.780800 0.148500
-4.754300 0.149200
-4.727800 0.147500
-4.701300 0.145800
-4.674800 0.146000
-4.648300 0.146800
-4.621800 0.147700
-4.595300 0.148500
-4.568700 0.149300
-4.542200 0.150200
-4.515700 0.151100
-4.489200 0.152300
-4.462700 0.153500
-4.436200 0.154800
-4.409700 0.156000
-4.383200 0.157300
-4.356700 0.158500
-4.330200 0.158300
-4.303700 0.158400
-4.277200 0.158900
-4.250700 0.159500
-4.224200 0.160100
-4.197700 0.161100
-4.171200 0.162200
-4.144700 0.163300
-4.118200 0.164400
-4.091700 0.165500
-4.065200 0.166600
-4.038700 0.167700
-4.012200 0.168700
-3.985600 0.169900
-3.959100 0.171100
-3.932600 0.172300
-3.906100 0.173500
-3.879600 0.174800
-3.853100 0.176200
-3.826600 0.177600
-3.800100 0.179000
-3.773600 0.180400
-3.747100 0.181800
-3.720600 0.183100
-3.694100 0.184500
-3.667600 0.186000
-3.641100 0.187500
-3.614600 0.188900
-3.588100 0.190400
-3.561600 0.191800
-3.535100 0.193300
-3.508600 0.194700
-3.482100 0.196200
-3.455600 0.197700
-3.429100 0.199200
-3.402500 0.201300
-3.376000 0.205500
-3.349500 0.208400
-3.323000 0.211300
-3.296500 0.213800
-3.270000 0.216300
-3.243500 0.218700
-3.217000 0.221100
-3.190500 0.223600
-3.164000 0.226000
-3.137500 0.228400
-3.111000 0.230900
-3.084500 0.233300
-3.058000 0.235700
-3.031500 0.238100
-3.005000 0.240600
-2.978500 0.243000
-2.952000 0.245400
-2.925500 0.252000
-2.899000 0.260800
-2.872500 0.266500
-2.846000 0.272200
-2.819400 0.277900
-2.792900 0.283100
-2.766400 0.288400
-2.739900 0.293600
-2.713400 0.298800
-2.686900 0.304000
-2.660400 0.309800
-2.633900 0.318800
-2.607400 0.332900
-2.580900 0.351800
-2.554400 0.365800
-2.527900 0.377800
-2.501400 0.399600
-2.474900 0.423100
-2.448400 0.445100
-2.421900 0.467300
-2.395400 0.490200
-2.368900 0.512700
-2.342400 0.534500
-2.315900 0.560700
-2.289400 0.591200
-2.262900 0.623000
-2.236400 0.656400
-2.209800 0.717200
-2.183300 0.777900
-2.156800 0.889200
-2.130300 1.002300
-2.103800 0.891900
-2.077300 0.779700
-2.050800 0.684800
-2.024300 0.677700
-1.997800 0.673100
-1.971300 0.586000
-1.944800 0.605000
-1.918300 0.625900
-1.891800 0.635100
-1.865300 0.579300
-1.838800 0.550100
-1.812300 0.533700
-1.785800 0.517400
-1.759300 0.558000
-1.732800 0.553100
-1.706300 0.456000
-1.679800 0.128700
-1.653300 0.128900
-1.626700 0.128800
-1.600200 0.128800
-1.573700 0.129300
-1.547200 0.129900
-1.520700 0.130700
-1.494200 0.131500
-1.467700 0.132300
-1.441200 0.133200
-1.414700 0.134000
-1.388200 0.134800
-1.361700 0.135500
-1.335200 0.136100
-1.308700 0.136800
-1.282200 0.137400
-1.255700 0.138100
-1.229200 0.139100
-1.202700 0.140100
-1.176200 0.142100
-1.149700 0.146300
-1.123200 0.152300
-1.096700 0.156600
-1.070200 0.161100
-1.043600 0.166000
-1.017100 0.171100
-0.990600 0.176400
-0.964100 0.181800
-0.937600 0.187200
-0.911100 0.192300
-0.884600 0.196600
-0.858100 0.199900
-0.831600 0.203500
-0.805100 0.207500
-0.778600 0.211600
-0.752100 0.215800
-0.725600 0.220000
-0.699100 0.224300
-0.672600 0.228900
-0.646100 0.233600
-0.619600 0.238500
-0.593100 0.243400
-0.566600 0.248400
-0.540100 0.253400
-0.513600 0.258400
-0.487100 0.263600
-0.460500 0.268900
-0.434000 0.274400
-0.407500 0.280600
-0.381000 0.287600
-0.354500 0.295000
-0.328000 0.302200
-0.301500 0.309500
-0.275000 0.317000
-0.248500 0.324600
-0.222000 0.332500
-0.195500 0.340500
-0.169000 0.348500
-0.142500 0.356800
-0.116000 0.365500
-0.089500 0.376600
-0.063000 0.388600
-0.036500 0.399200
-0.010000 0.407500
0.016500 0.417800
0.043000 0.428000
0.069500 0.438900
0.096000 0.453200
0.122600 0.472000
0.149100 0.491000
0.175600 0.510900
0.202100 0.532400
0.228600 0.555600
0.255100 0.580500
0.281600 0.609500
0.308100 0.645600
0.334600 0.698700
0.361100 0.798300
0.387600 1.127500
0.414100 1.397600
0.440600 1.381600
0.467100 1.475000
0.493600 1.583900
0.520100 1.680000
0.546600 1.552500
0.573100 1.465500
0.599600 1.490600
0.626100 1.510000
0.652600 1.540500
0.679100 1.628700
0.705700 2.294200
0.732200 2.633000
0.758700 2.274100
0.785200 2.190800
0.811700 2.139900
0.838200 2.120000
0.864700 2.214200
0.891200 2.326000
0.917700 2.503600
0.944200 2.560000
0.970700 2.538600
0.997200 2.422900
1.023700 2.454000
1.050200 2.494700
1.076700 2.538200
1.103200 2.621300
1.129700 2.729400
1.156200 2.887700
1.182700 3.239700
1.209200 3.394800
1.235700 3.254800
1.262200 3.113500
1.288800 3.408300
1.315300 3.583000
1.341800 3.477000
1.368300 3.603300
1.394800 3.101500
1.421300 3.459600
1.447800 3.219500
1.474300 3.164000
1.500800 2.945900
1.527300 3.174400
1.553800 2.921600
1.580300 2.604100
1.606800 2.471500
1.633300 2.114000
1.659800 2.842400
1.686300 3.624800
1.712800 4.913000
1.739300 5.124300
1.765800 3.969900
1.792300 3.392200
1.818800 3.199100
1.845300 3.383700
1.871900 3.916100
1.898400 4.701500
1.924900 4.630500
1.951400 4.817300
1.977900 4.955800
2.004400 5.480100
2.030900 4.977800
2.057400 3.926800
2.083900 3.933400
2.110400 4.440800
2.136900 5.491100
2.163400 5.569600
2.189900 5.554400
2.216400 4.461900
2.242900 3.103400
2.269400 2.227100
2.295900 1.745500
2.322400 1.510800
2.348900 1.307100
2.375400 1.177000
2.401900 1.342000
2.428400 1.810400
2.455000 2.291300
2.481500 2.632200
2.508000 3.491900
2.534500 3.960100
2.561000 5.374700
2.587500 6.224700
2.614000 5.891200
2.640500 5.865200
2.667000 5.685500
2.693500 6.970200
2.720000 6.424200
2.746500 6.177100
2.773000 6.163900
2.799500 5.419200
2.826000 5.188000
2.852500 4.549200
2.879000 4.995200
2.905500 5.477200
2.932000 5.486200
2.958500 5.310400
2.985000 6.360900
3.011500 7.336400
3.038000 6.702000
3.064600 6.484800
3.091100 6.267000
3.117600 5.925400
3.144100 6.382500
3.170600 6.082300
3.197100 6.565500
3.223600 7.050800
3.250100 8.002200
3.276600 9.758000
3.303100 7.355800
3.329600 6.027400
3.356100 5.494500
3.382600 4.418900
3.409100 3.890600
3.435600 3.581600
3.462100 3.322200
3.488600 3.463300
3.515100 3.471300
3.541600 3.507400
3.568100 3.948500
3.594600 4.564600
3.621100 4.228000
3.647700 3.912500
3.674200 3.997200
3.700700 4.059700
3.727200 4.157600
3.753700 4.200600
3.780200 4.055700
3.806700 3.959700
3.833200 3.642500
3.859700 3.392300
3.886200 3.595100
3.912700 3.816800
3.939200 3.800900
3.965700 3.757100
3.992200 3.749100
4.018700 3.742400
4.045200 3.729700
4.071700 3.722300
4.098200 3.694700
4.124700 3.556500
4.151200 3.585400
4.177700 3.658800
4.204200 3.689000
4.230800 3.788800
4.257300 3.964200
4.283800 3.888200
4.310300 4.095700
4.336800 4.110500
4.363300 4.288300
4.389800 4.524100
4.416300 5.210300
4.442800 6.066600
4.469300 6.470600
4.495800 6.416500
4.522300 6.848000
4.548800 7.299500
4.575300 7.451000
4.601800 7.273000
4.628300 8.544900
4.654800 8.739700
4.681300 9.923900
4.707800 10.230900
4.734300 9.511000
4.760800 10.980600
4.787300 9.434300
4.813900 8.751100
4.840400 6.868600
4.866900 3.257500
4.893400 1.224800
4.919900 1.192100
4.946400 1.110900
4.972900 1.064100
4.999400 1.025600
5.025900 0.996200
5.052400 0.972100
5.078900 0.951000
5.105400 0.941200
5.131900 0.934600
5.158400 0.930700
5.184900 0.926300
5.211400 0.919200
5.237900 0.910300
5.264400 0.906100
5.290900 0.903000
5.317400 0.900700
5.343900 0.872300
5.370400 0.859400
5.397000 0.848500
5.423500 0.838800
5.450000 0.829500
5.476500 0.823800
5.503000 0.818000
5.529500 0.812300
5.556000 0.805800
5.582500 0.797000
5.609000 0.783200
5.635500 0.768300
5.662000 0.763400
5.688500 0.758200
5.715000 0.751000
5.741500 0.743600
5.768000 0.736200
5.794500 0.726300
5.821000 0.715800
5.847500 0.704100
5.874000 0.695700
5.900500 0.689200
5.927000 0.684700
5.953500 0.682300
5.980100 0.680000
6.006600 0.677800
6.033100 0.674900
6.059600 0.672300
6.086100 0.670200
6.112600 0.663700
6.139100 0.650900
6.165600 0.651000
6.192100 0.651400
6.218600 0.657700
6.245100 0.682700
6.271600 0.684500
6.298100 0.664600
6.324600 0.657800
6.351100 0.654900
6.377600 0.651200
6.404100 0.646300
6.430600 0.640300
6.457100 0.628600
6.483600 0.618700
6.510100 0.610200
6.536600 0.600900
6.563200 0.590900
6.589700 0.582000
6.616200 0.573200
6.642700 0.569200
6.669200 0.565400
6.695700 0.562200
6.722200 0.559200
6.748700 0.556400
6.775200 0.553800
6.801700 0.551300
6.828200 0.549100
6.854700 0.546300
6.881200 0.549200
6.907700 0.546600
6.934200 0.544900
6.960700 0.543200
6.987200 0.542000
7.013700 0.540200
7.040200 0.537600
7.066700 0.534000
7.093200 0.529200
7.119700 0.523700
7.146300 0.517200
7.172800 0.511700
7.199300 0.507000
7.225800 0.502700
7.252300 0.517800
7.278800 0.503500
7.305300 0.483800
7.331800 0.474300
7.358300 0.465100
7.384800 0.464400
7.411300 0.435000
7.437800 0.434700
7.464300 0.434500
7.490800 0.434400
7.517300 0.434500
7.543800 0.435400
7.570300 0.437100
7.596800 0.439400
7.623300 0.442200
7.649800 0.445500
7.676300 0.448800
7.702800 0.452100
7.729400 0.453900
7.755900 0.455300
7.782400 0.455400
7.808900 0.453600
7.835400 0.449900
7.861900 0.443600
7.888400 0.434900
7.914900 0.427800
7.941400 0.420500
7.967900 0.411300
7.994400 0.402500
8.020900 0.395000
8.047400 0.388800
8.073900 0.383800
8.100400 0.379900
8.126900 0.376000
8.153400 0.372200
8.179900 0.370000
8.206400 0.369800
8.232900 0.371600
8.259400 0.375400
8.285900 0.381400
8.312500 0.390400
8.339000 0.402200
8.365500 0.414400
8.392000 0.426500
8.418500 0.440900
8.445000 0.460000
8.471500 0.477200
8.498000 0.490900
8.524500 0.497200
8.551000 0.502700
8.577500 0.509800
8.604000 0.526500
8.630500 0.553400
8.657000 0.489900
8.683500 0.489500
8.710000 0.488400
8.736500 0.488100
8.763000 0.488600
8.789500 0.485700
8.816000 0.482300
8.842500 0.480900
8.869000 0.481000
8.895500 0.481600
8.922100 0.481800
8.948600 0.481800
8.975100 0.481200
9.001600 0.482400
9.028100 0.486600
9.054600 0.492000
9.081100 0.495600
9.107600 0.487900
9.134100 0.480100
9.160600 0.472800
9.187100 0.466200
9.213600 0.460300
9.240100 0.453800
9.266600 0.446500
9.293100 0.440700
9.319600 0.436200
9.346100 0.432100
9.372600 0.427800
9.399100 0.423700
9.425600 0.419800
9.452100 0.416600
9.478600 0.413200
9.505200 0.409900
9.531700 0.406600
9.558200 0.403300
9.584700 0.400300
9.611200 0.397500
9.637700 0.369900
9.664200 0.368700
9.690700 0.367400
9.717200 0.366100
9.743700 0.365000
9.770200 0.361700
9.796700 0.354400
9.823200 0.342600
9.849700 0.335500
9.876200 0.337300
9.902700 0.342300
9.929200 0.349200
9.955700 0.357500
9.982200 0.366200
10.008700 0.383200
10.035200 0.379800
10.061700 0.378100
10.088300 0.378700
10.114800 0.388200
10.141300 0.382200
10.167800 0.374000
10.194300 0.365700
10.220800 0.357500
10.247300 0.392100
10.273800 0.376100
10.300300 0.357700
10.326800 0.333400
10.353300 0.272500
10.379800 0.257400
10.406300 0.244900
10.432800 0.233600
10.459300 0.220700
10.485800 0.209000
10.512300 0.308800
10.538800 0.209300
10.565300 0.192800
10.591800 0.178300
10.618300 0.167700
10.644800 0.161000
10.671400 0.157100
10.697900 0.153700
10.724400 0.150600
10.750900 0.148000
10.777400 0.145700
10.803900 0.143700
10.830400 0.140700
10.856900 0.134700
10.883400 0.130200
10.909900 0.124000
10.936400 0.117000
10.962900 0.111400
10.989400 0.106700
11.015900 0.114000
11.042400 0.145100
11.068900 0.158600
11.095400 0.160300
11.121900 0.172100
11.148400 0.184200
11.174900 0.195100
11.201400 0.209900
11.227900 0.232500
11.254500 0.263600
11.281000 0.305100
11.307500 0.353800
11.334000 0.409600
11.360500 0.472800
11.387000 0.524800
11.413500 0.623300
11.440000 0.771300
11.466500 0.977900
11.493000 1.084700
11.519500 1.140500
11.546000 1.098200
11.572500 1.072900
11.599000 1.039500
11.625500 1.011600
11.652000 0.959300
11.678500 0.917900
11.705000 0.818000
11.731500 0.728900
11.758000 0.680800
11.784500 0.666900
11.811000 0.697300
11.837600 0.694900
11.864100 0.739800
11.890600 0.774100
11.917100 0.762400
11.943600 0.758400
11.970100 0.771700
11.996600 0.790100
12.023100 0.793500
12.049600 0.775600
12.076100 0.761100
12.102600 0.747900
12.129100 0.737700
12.155600 0.727800
12.182100 0.717400
12.208600 0.708300
12.235100 0.701400
12.261600 0.706100
12.288100 0.716900
12.314600 0.743700
12.341100 0.759000
12.367600 0.763600
12.394100 0.723200
12.420700 0.700300
12.447200 0.680400
12.473700 0.662900
12.500200 0.645800
12.526700 0.630300
12.553200 0.625700
12.579700 0.604100
12.606200 0.587900
12.632700 0.574800
12.659200 0.563200
12.685700 0.555100
12.712200 0.548100
12.738700 0.532300
12.765200 0.513100
12.791700 0.496300
12.818200 0.494200
12.844700 0.496000
12.871200 0.497700
12.897700 0.498600
12.924200 0.498700
12.950700 0.493800
12.977200 0.486500
13.003800 0.479800
13.030300 0.461600
13.056800 0.457900
13.083300 0.472500
13.109800 0.484700
13.136300 0.475100
13.162800 0.472900
13.189300 0.474800
13.215800 0.478000
13.242300 0.481700
13.268800 0.484400
13.295300 0.486400
13.321800 0.488000
13.348300 0.489900
13.374800 0.492500
13.401300 0.498200
13.427800 0.509400
13.454300 0.532900
13.480800 0.540400
13.507300 0.586500
13.533800 0.550300
13.560300 0.545500
13.586900 0.532500
13.613400 0.520800
13.639900 0.525600
13.666400 0.547300
13.692900 0.577100
13.719400 0.631800
13.745900 0.715100
13.772400 0.798700
13.798900 0.733800
13.825400 0.716600
13.851900 0.698600
13.878400 0.687100
13.904900 0.684600
13.931400 0.685900
13.957900 0.690300
13.984400 0.696000
14.010900 0.700600
14.037400 0.702900
14.063900 0.704300
14.090400 0.720400
14.116900 0.692600
14.143400 0.679500
14.169900 0.670300
14.196500 0.667900
14.223000 0.672700
14.249500 0.693300
14.276000 0.690500
14.302500 0.682800
14.329000 0.677900
14.355500 0.674400
14.382000 0.669100
14.408500 0.664200
14.435000 0.664700
14.461500 0.658000
14.488000 0.661400
14.514500 0.668100
14.541000 0.677600
14.567500 0.687900
14.594000 0.702500
14.620500 0.721200
14.647000 0.745800
14.673500 0.774500
14.700000 0.806200
14.726500 0.842400
14.753000 0.876600
14.779600 0.902000
14.806100 0.918000
14.832600 0.929100
14.859100 0.935900
14.885600 0.940200
14.912100 0.948700
14.938600 0.896200
14.965100 0.882500
14.991600 0.869700
15.018100 0.862400
15.044600 0.851200
15.071100 0.844300
15.097600 0.824200
15.124100 0.803500
15.150600 0.782300
15.177100 0.804700
15.203600 0.767400
15.230100 0.752500
15.256600 0.739300
15.283100 0.727700
15.309600 0.717300
15.336100 0.709100
15.362700 0.703500
15.389200 0.700200
15.415700 0.700700
15.442200 0.705400
15.468700 0.713900
15.495200 0.725600
15.521700 0.741100
15.548200 0.758300
15.574700 0.771300
15.601200 0.775000
15.627700 0.775300
15.654200 0.770800
15.680700 0.766000
15.707200 0.759500
15.733700 0.750100
15.760200 0.738800
15.786700 0.728100
15.813200 0.719800
15.839700 0.711600
15.866200 0.707600
15.892700 0.705700
15.919200 0.703800
15.945800 0.703900
15.972300 0.707400
15.998800 0.712800
16.025300 0.718500
16.051800 0.723600
16.078300 0.728800
16.104800 0.734200
16.131300 0.718400
16.157800 0.710200
16.184300 0.702900
16.210800 0.758900
16.237300 0.700400
16.263800 0.697600
16.290300 0.694900
16.316800 0.692500
16.343300 0.692900
16.369800 0.702000
16.396300 0.701700
16.422800 0.701700
16.449300 0.698400
16.475800 0.697000
16.502300 0.692000
16.528900 0.690100
16.555400 0.690700
16.581900 0.696200
16.608400 0.702500
16.634900 0.708000
16.661400 0.711900
16.687900 0.715200
16.714400 0.718000
16.740900 0.717400
16.767400 0.710100
16.793900 0.704800
16.820400 0.701900
16.846900 0.698700
16.873400 0.697100
16.899900 0.703600
16.926400 0.716400
16.952900 0.714200
16.979400 0.702100
17.005900 0.690900
17.032400 0.683900
17.058900 0.680000
17.085400 0.676200
17.112000 0.672900
17.138500 0.670400
17.165000 0.669000
17.191500 0.668000
17.218000 0.667400
17.244500 0.666900
17.271000 0.667000
17.297500 0.677700
17.324000 0.677400
17.350500 0.670600
17.377000 0.661200
17.403500 0.650900
17.430000 0.643600
17.456500 0.638200
17.483000 0.633500
17.509500 0.628200
17.536000 0.622300
17.562500 0.622400
17.589000 0.630000
17.615500 0.626900
17.642000 0.623500
17.668500 0.620800
17.695100 0.621500
17.721600 0.622700
17.748100 0.625600
17.774600 0.629700
17.801100 0.632600
17.827600 0.634300
17.854100 0.634600
17.880600 0.636000
17.907100 0.639200
17.933600 0.634500
17.960100 0.628500
17.986600 0.629900
18.013100 0.630300
18.039600 0.633600
18.066100 0.637600
18.092600 0.642900
18.119100 0.649000
18.145600 0.654700
18.172100 0.660100
18.198600 0.666200
18.225100 0.672800
18.251600 0.680300
18.278200 0.685400
18.304700 0.689600
18.331200 0.693200
18.357700 0.697700
18.384200 0.701200
18.410700 0.703900
18.437200 0.706100
18.463700 0.707700
18.490200 0.707700
18.516700 0.713500
18.543200 0.716900
18.569700 0.720100
18.596200 0.722600
18.622700 0.724900
18.649200 0.727600
18.675700 0.729100
18.702200 0.724800
18.728700 0.726000
18.755200 0.728600
18.781700 0.732300
18.808200 0.738100
18.834700 0.746600
18.861300 0.749900
18.887800 0.743300
18.914300 0.732000
18.940800 0.718000
18.967300 0.719600
18.993800 0.728900
19.020300 0.742000
19.046800 0.755400
19.073300 0.768300
19.099800 0.796500
19.126300 0.810500
19.152800 0.824900
19.179300 0.837700
19.205800 0.842800
19.232300 0.846300
19.258800 0.850200
19.285300 0.855700
19.311800 0.858200
19.338300 0.862400
19.364800 0.868900
19.391300 0.876700
19.417800 0.882700
19.444400 0.884800
19.470900 0.889000
19.497400 0.887500
19.523900 0.883000
19.550400 0.876300
19.576900 0.870100
19.603400 0.862600
19.629900 0.857100
19.656400 0.852400
19.682900 0.850000
19.709400 0.849300
19.735900 0.849400
19.762400 0.849700
19.788900 0.848100
19.815400 0.841500
19.841900 0.832100
19.868400 0.819700
19.894900 0.807400
19.921400 0.797500
19.947900 0.790200
19.974400 0.787100
20.000900 0.790100
20.027400 0.789800
20.054000 0.782000
20.080500 0.769300
20.107000 0.759100
20.133500 0.748000
20.160000 0.740700
20.186500 0.736700
20.213000 0.731500
20.239500 0.727900
20.266000 0.723600
20.292500 0.729400
20.319000 0.729200
20.345500 0.730500
20.372000 0.733100
20.398500 0.735800
20.425000 0.737100
20.451500 0.737300
20.478000 0.736600
20.504500 0.735200
20.531000 0.735100
20.557500 0.734700
20.584000 0.734300
20.610500 0.733700
20.637100 0.732100
20.663600 0.730900
20.690100 0.730100
20.716600 0.729300
20.743100 0.727100
20.769600 0.726000
20.796100 0.724700
20.822600 0.723800
20.849100 0.722600
20.875600 0.723500
20.902100 0.724500
20.928600 0.727000
20.955100 0.730800
20.981600 0.735200
21.008100 0.740100
21.034600 0.749300
21.061100 0.761100
21.087600 0.766300
21.114100 0.767500
21.140600 0.769700
21.167100 0.770900
21.193600 0.771900
21.220200 0.773200
21.246700 0.776000
21.273200 0.780400
21.299700 0.786200
21.326200 0.792100
21.352700 0.795900
21.379200 0.800600
21.405700 0.806100
21.432200 0.811800
21.458700 0.817300
21.485200 0.822900
21.511700 0.828800
21.538200 0.836700
21.564700 0.843200
21.591200 0.842900
21.617700 0.842600
21.644200 0.844700
21.670700 0.849800
21.697200 0.854000
21.723700 0.851100
21.750200 0.843600
21.776700 0.834000
21.803300 0.823500
21.829800 0.812000
21.856300 0.801600
21.882800 0.795800
21.909300 0.794900
21.935800 0.791000
21.962300 0.786500
21.988800 0.783000
22.015300 0.780800
22.041800 0.779700
22.068300 0.782300
22.094800 0.781400
22.121300 0.778100
22.147800 0.776400
22.174300 0.776300
22.200800 0.775700
22.227300 0.775100
22.253800 0.778500
22.280300 0.779700
22.306800 0.775100
22.333300 0.773400
22.359800 0.774600
22.386400 0.781800
22.412900 0.797400
22.439400 0.795600
22.465900 0.794900
22.492400 0.795000
22.518900 0.794700
22.545400 0.792600
22.571900 0.789400
22.598400 0.786100
22.624900 0.782700
22.651400 0.783100
22.677900 0.787500
22.704400 0.796700
22.730900 0.809200
22.757400 0.818400
22.783900 0.823800
22.810400 0.829500
22.836900 0.836600
22.863400 0.847100
22.889900 0.865200
22.916400 0.885600
22.942900 0.902100
22.969500 0.908200
22.996000 0.901400
23.022500 0.885000
23.049000 0.868300
23.075500 0.854100
23.102000 0.837700
23.128500 0.820700
23.155000 0.807600
23.181500 0.791900
23.208000 0.782300
23.234500 0.778500
23.261000 0.773700
23.287500 0.768300
23.314000 0.763800
23.340500 0.760500
23.367000 0.758300
23.393500 0.781600
23.420000 0.790200
23.446500 0.788900
23.473000 0.784300
23.499500 0.781400
23.526000 0.781300
23.552600 0.782900
23.579100 0.789500
23.605600 0.800900
23.632100 0.823400
23.658600 0.842700
23.685100 0.845800
23.711600 0.846500
23.738100 0.846600
23.764600 0.845700
23.791100 0.841600
23.817600 0.843700
23.844100 0.844300
23.870600 0.843700
23.897100 0.842300
23.923600 0.838800
23.950100 0.834100
23.976600 0.832900
24.003100 0.829500
24.029600 0.825400
24.056100 0.820500
24.082600 0.816200
24.109100 0.814100
24.135700 0.812200
24.162200 0.810100
24.188700 0.808100
24.215200 0.807300
24.241700 0.809000
24.268200 0.812800
24.294700 0.817500
24.321200 0.822200
24.347700 0.823700
24.374200 0.833800
24.400700 0.835400
24.427200 0.824400
24.453700 0.814200
24.480200 0.809100
24.506700 0.806600
24.533200 0.800600
24.559700 0.795700
24.586200 0.793600
24.612700 0.797400
24.639200 0.802900
24.665700 0.812300
24.692200 0.823300
24.718800 0.835700
24.745300 0.854200
24.771800 0.868600
24.798300 0.878400
24.824800 0.885300
24.851300 0.892200
24.877800 0.900000
24.904300 0.905300
24.930800 0.906100
24.957300 0.907800
24.983800 0.911200
25.010300 0.918100
25.036800 0.931000
25.063300 0.946900
25.089800 0.963600
25.116300 0.975500
25.142800 0.980500
25.169300 0.980000
25.195800 0.970700
25.222300 0.884800
25.248800 0.861700
25.275300 0.845300
25.301800 0.834600
25.328400 0.826400
25.354900 0.823200
25.381400 0.820100
25.407900 0.814600
25.434400 0.799500
25.460900 0.753300
25.487400 0.742100
25.513900 0.739400
25.540400 0.739600
25.566900 0.741100
25.593400 0.743300
25.619900 0.744300
25.646400 0.746100
25.672900 0.748900
25.699400 0.752200
25.725900 0.755400
25.752400 0.758400
25.778900 0.764800
25.805400 0.772300
25.831900 0.778000
25.858400 0.781800
25.884900 0.781700
25.911500 0.785300
25.938000 0.776300
25.964500 0.765800
25.991000 0.758000
26.017500 0.752700
26.044000 0.749400
26.070500 0.749800
26.097000 0.751500
26.123500 0.752500
26.150000 0.752300
26.176500 0.751000
26.203000 0.748500
26.229500 0.747600
26.256000 0.747100
26.282500 0.746000
26.309000 0.744600
26.335500 0.745800
26.362000 0.753300
26.388500 0.762700
26.415000 0.770900
26.441500 0.778500
26.468000 0.785400
26.494600 0.792700
26.521100 0.800000
26.547600 0.808500
26.574100 0.815700
26.600600 0.822100
26.627100 0.829600
26.653600 0.836100
26.680100 0.834500
26.706600 0.828800
26.733100 0.829500
26.759600 0.831900
26.786100 0.834400
26.812600 0.834200
26.839100 0.832300
26.865600 0.832300
26.892100 0.836100
26.918600 0.841000
26.945100 0.842700
26.971600 0.838500
26.998100 0.837000
27.024600 0.840300
27.051100 0.842700
27.077700 0.846500
27.104200 0.849800
27.130700 0.855000
27.157200 0.860500
27.183700 0.871300
27.210200 0.877500
27.236700 0.876000
27.263200 0.872400
27.289700 0.874600
27.316200 0.876900
27.342700 0.877900
27.369200 0.882600
27.395700 0.897100
27.422200 0.915900
27.448700 0.939900
27.475200 0.993400
27.501700 1.006100
27.528200 1.015900
27.554700 1.013400
27.581200 1.001800
27.607700 0.980100
27.634200 0.959200
27.660800 0.946800
27.687300 0.940600
27.713800 0.936200
27.740300 0.932000
27.766800 0.927700
27.793300 0.925900
27.819800 0.923600
27.846300 0.908200
27.872800 0.901900
27.899300 0.903600
27.925800 0.904100
27.952300 0.902600
27.978800 0.902600
28.005300 0.901200
28.031800 0.899000
28.058300 0.896100
28.084800 0.890600
28.111300 0.885200
28.137800 0.882600
28.164300 0.882100
28.190800 0.879800
28.217300 0.875200
28.243900 0.873300
28.270400 0.874300
28.296900 0.878300
28.323400 0.884700
28.349900 0.892100
28.376400 0.900000
28.402900 0.909900
28.429400 0.922400
28.455900 0.936300
28.482400 0.952300
28.508900 0.965500
28.535400 0.978200
28.561900 0.986600
28.588400 0.992900
28.614900 0.991600
28.641400 0.991800
28.667900 0.997200
28.694400 1.005400
28.720900 1.057200
28.747400 1.107000
28.773900 1.099200
28.800400 1.102900
28.827000 1.113800
28.853500 1.133500
28.880000 1.143900
28.906500 1.141900
28.933000 1.135700
28.959500 1.169000
28.986000 1.097400
29.012500 1.068000
29.039000 1.033100
29.065500 0.995800
29.092000 0.962700
29.118500 0.934900
29.145000 0.913900
29.171500 0.902200
29.198000 0.890500
29.224500 0.877400
29.251000 0.860100
29.277500 0.851000
29.304000 0.843400
29.330500 0.836900
29.357000 0.833300
29.383500 0.831100
29.410100 0.830700
29.436600 0.831800
29.463100 0.834300
29.489600 0.839100
29.516100 0.846500
29.542600 0.854900
29.569100 0.861700
29.595600 0.861200
29.622100 0.859000
29.648600 0.857800
29.675100 0.864900
29.701600 0.880500
29.728100 0.911400
29.754600 0.933600
29.781100 0.920700
29.807600 0.920800
29.834100 0.922100
29.860600 0.922800
29.887100 0.932700
29.913600 0.949100
29.940100 0.951400
29.966600 0.957900
29.993200 0.963000
30.019700 0.967400
30.046200 0.968500
30.072700 0.965300
30.099200 0.961300
30.125700 0.948800
30.152200 0.927900
30.178700 0.900500
30.205200 0.858100
30.231700 0.834200
30.258200 0.808100
30.284700 0.811100
30.311200 0.814300
30.337700 0.811000
30.364200 0.793900
30.390700 0.796500
30.417200 0.801800
30.443700 0.808200
30.470200 0.813400
30.496700 0.817700
30.523200 0.832600
30.549700 0.856500
30.576200 0.875100
30.602800 0.896100
30.629300 0.905500
30.655800 0.918000
30.682300 0.912100
30.708800 0.917800
30.735300 0.906900
30.761800 0.889800
30.788300 0.907400
30.814800 0.926800
30.841300 0.937700
30.867800 0.940400
30.894300 0.935400
30.920800 0.917600
30.947300 0.915900
30.973800 0.866500
31.000300 0.832800
31.026800 0.790400
31.053300 0.790900
31.079800 0.787700
31.106300 0.783900
31.132800 0.781600
31.159300 0.779500
31.185900 0.786900
31.212400 0.799900
31.238900 0.804400
31.265400 0.815400
31.291900 0.823000
31.318400 0.838800
31.344900 0.852000
31.371400 0.856500
31.397900 0.869200
31.424400 0.890100
31.450900 0.906500
31.477400 0.910000
31.503900 0.898100
31.530400 0.890000
31.556900 0.880400
31.583400 0.873900
31.609900 0.865600
31.636400 0.855200
31.662900 0.842700
31.689400 0.833900
31.715900 0.827000
31.742400 0.819000
31.769000 0.813600
31.795500 0.811100
31.822000 0.807100
31.848500 0.817300
31.875000 0.832500
31.901500 0.848300
31.928000 0.866800
31.954500 0.894000
31.981000 0.921600
32.007500 0.945300
32.034000 0.953600
32.060500 0.987800
32.087000 0.987300
32.113500 0.994900
32.140000 1.004600
32.166500 1.015300
32.193000 1.026100
32.219500 1.037700
32.246000 1.054100
32.272500 1.066500
32.299000 1.079900
32.325500 1.093300
32.352100 1.100000
32.378600 1.089400
32.405100 1.074100
32.431600 1.071500
32.458100 1.076000
32.484600 1.076800
32.511100 1.064200
32.537600 1.032900
32.564100 1.005000
32.590600 0.988500
32.617100 0.977500
32.643600 0.967800
32.670100 0.961400
32.696600 0.952300
32.723100 0.941800
32.749600 0.933000
32.776100 0.927000
32.802600 0.924700
32.829100 0.927700
32.855600 0.908600
32.882100 0.887400
32.908600 0.878900
32.935200 0.884900
32.961700 0.888200
32.988200 0.868200
33.014700 0.844800
33.041200 0.820800
33.067700 0.791500
33.094200 0.783300
33.120700 0.737000
33.147200 0.717700
33.173700 0.718000
33.200200 0.719400
33.226700 0.723200
33.253200 0.730000
33.279700 0.744800
33.306200 0.765300
33.332700 0.776600
33.359200 0.778300
33.385700 0.783600
33.412200 0.794800
33.438700 0.834900
33.465200 0.871800
33.491700 0.902500
33.518300 0.933000
33.544800 0.952900
33.571300 0.966300
33.597800 0.972800
33.624300 0.976500
33.650800 0.985000
33.677300 0.971400
33.703800 0.966500
33.730300 0.962400
33.756800 0.960400
33.783300 0.966600
33.809800 0.976100
33.836300 0.999000
33.862800 1.044100
33.889300 0.995900
33.915800 0.995300
33.942300 0.999800
33.968800 1.018800
33.995300 1.011800
34.021800 0.990700
34.048300 0.985800
34.074800 0.983300
34.101400 0.986400
34.127900 0.994800
34.154400 1.007100
34.180900 1.044700
34.207400 1.080000
34.233900 1.081200
34.260400 1.069700
34.286900 1.050600
34.313400 1.023100
34.339900 0.998100
34.366400 0.966500
34.392900 0.929600
34.419400 0.908800
34.445900 0.891400
34.472400 0.875700
34.498900 0.859600
34.525400 0.848600
34.551900 0.841500
34.578400 0.836600
34.604900 0.837800
34.631400 0.847600
34.657900 0.858000
34.684500 0.868600
34.711000 0.879700
34.737500 0.892800
34.764000 0.909500
34.790500 0.962000
34.817000 0.922300
34.843500 0.901900
34.870000 0.884300
34.896500 0.876800
34.923000 0.877800
34.949500 0.876800
34.976000 0.874100
35.002500 0.870900
35.029000 0.868600
35.055500 0.868600
35.082000 0.868900
35.108500 0.868600
35.135000 0.866100
35.161500 0.861900
35.188000 0.862200
35.214500 0.859600
35.241000 0.853300
35.267600 0.849100
35.294100 0.846700
35.320600 0.847200
35.347100 0.851200
35.373600 0.856000
35.400100 0.861500
35.426600 0.864100
35.453100 0.870300
35.479600 0.868000
35.506100 0.858700
35.532600 0.847900
35.559100 0.839000
35.585600 0.828300
35.612100 0.812900
35.638600 0.798200
35.665100 0.791400
35.691600 0.782800
35.718100 0.775500
35.744600 0.774800
35.771100 0.776000
35.797600 0.777800
35.824100 0.783900
35.850700 0.787700
35.877200 0.793100
35.903700 0.797200
35.930200 0.811000
35.956700 0.826000
35.983200 0.835800
36.009700 0.844000
36.036200 0.845300
36.062700 0.852600
36.089200 0.863000
36.115700 0.878300
36.142200 0.916300
36.168700 0.927500
36.195200 0.921900
36.221700 0.929200
36.248200 0.935500
36.274700 0.938600
36.301200 0.941400
36.327700 0.946600
36.354200 0.959500
36.380700 0.974800
36.407200 0.993300
36.433700 1.013400
36.460300 1.034800
36.486800 1.058700
36.513300 1.080500
36.539800 1.074700
36.566300 1.031700
36.592800 1.019200
36.619300 1.011600
36.645800 1.009500
36.672300 1.011200
36.698800 1.012000
36.725300 1.014500
36.751800 1.018600
36.778300 1.025500
36.804800 1.034900
36.831300 1.049600
36.857800 1.065900
36.884300 1.067700
36.910800 1.067400
36.937300 1.085400
36.963800 1.108500
36.990300 1.118800
37.016800 1.099600
37.043400 1.078400
37.069900 1.057900
37.096400 1.028600
37.122900 1.013000
37.149400 1.001000
37.175900 0.986900
37.202400 0.972800
37.228900 0.945700
37.255400 0.931500
37.281900 0.924800
37.308400 0.926800
37.334900 0.932700
37.361400 0.938400
37.387900 0.945300
37.414400 0.956700
37.440900 0.972200
37.467400 0.987800
37.493900 0.997100
37.520400 0.995000
37.546900 0.992200
37.573400 0.986800
37.599900 0.983000
37.626500 0.979200
37.653000 0.974900
37.679500 0.969800
37.706000 0.967100
37.732500 0.972000
37.759000 0.980400
37.785500 0.991500
37.812000 1.002800
37.838500 1.006400
37.865000 1.004700
37.891500 1.001000
37.918000 0.998800
37.944500 0.997300
37.971000 1.000200
37.997500 1.005900
38.024000 1.004100
38.050500 0.997000
38.077000 0.992200
38.103500 0.973100
38.130000 0.956500
38.156500 0.940600
38.183000 0.924100
38.209600 0.905000
38.236100 0.883500
38.262600 0.858300
38.289100 0.834500
38.315600 0.814900
38.342100 0.800300
38.368600 0.790400
38.395100 0.781800
38.421600 0.773600
38.448100 0.765600
38.474600 0.757900
38.501100 0.751400
38.527600 0.745300
38.554100 0.740000
38.580600 0.742800
38.607100 0.734600
38.633600 0.729700
38.660100 0.723300
38.686600 0.712500
38.713100 0.699500
38.739600 0.686900
38.766100 0.676600
38.792700 0.667600
38.819200 0.660200
38.845700 0.653200
38.872200 0.646100
38.898700 0.639900
38.925200 0.635300
38.951700 0.628100
38.978200 0.619000
39.004700 0.608900
39.031200 0.598600
39.057700 0.589400
39.084200 0.582100
39.110700 0.577000
39.137200 0.573100
39.163700 0.571800
39.190200 0.575300
39.216700 0.578500
39.243200 0.583800
39.269700 0.590700
39.296200 0.598300
39.322700 0.606700
39.349200 0.615800
39.375800 0.631300
39.402300 0.648200
39.428800 0.654000
39.455300 0.624300
39.481800 0.595500
39.508300 0.580600
39.534800 0.572400
39.561300 0.574500
39.587800 0.576300
39.614300 0.578100
39.640800 0.579900
39.667300 0.580700
39.693800 0.582600
39.720300 0.585300
39.746800 0.588800
39.773300 0.592700
39.799800 0.597000
39.826300 0.601400
39.852800 0.607000
39.879300 0.608100
39.905800 0.621000
39.932300 0.638200
39.958900 0.633600
39.985400 0.631300
40.011900 0.629600
40.038400 0.624800
40.064900 0.620600
40.091400 0.615900
40.117900 0.615800
40.144400 0.609600
40.170900 0.600200
40.197400 0.596200
40.223900 0.589300
40.250400 0.584700
40.276900 0.580200
40.303400 0.573000
40.329900 0.563300
40.356400 0.552500
40.382900 0.541500
40.409400 0.530800
40.435900 0.521600
40.462400 0.513200
40.488900 0.504600
40.515400 0.494500
40.542000 0.483800
40.568500 0.472200
40.595000 0.463100
40.621500 0.454900
40.648000 0.448200
40.674500 0.443600
40.701000 0.431400
40.727500 0.428600
40.754000 0.404300
40.780500 0.390500
40.807000 0.375800
40.833500 0.360900
40.860000 0.346700
40.886500 0.334900
40.913000 0.327700
40.939500 0.320000
40.966000 0.312300
40.992500 0.304100
41.019000 0.294000
41.045500 0.285000
41.072000 0.271400
41.098500 0.273000
41.125100 0.267900
41.151600 0.264700
41.178100 0.244700
41.204600 0.237600
41.231100 0.231900
41.257600 0.226500
41.284100 0.221300
41.310600 0.216600
41.337100 0.211600
41.363600 0.205600
41.390100 0.198200
41.416600 0.190300
41.443100 0.182100
41.469600 0.173100
41.496100 0.162700
41.522600 0.152700
41.549100 0.143600
41.575600 0.135600
41.602100 0.128700
41.628600 0.120000
41.655100 0.111600
41.681600 0.103400
41.708100 0.094800
41.734700 0.085200
41.761200 0.074600
41.787700 0.065300
41.814200 0.059300
41.840700 0.054000
41.867200 0.049000
41.893700 0.044300
41.920200 0.039800
41.946700 0.035500
41.973200 0.030300
41.999700 0.024800
42.026200 0.020000
42.052700 0.015800
42.079200 0.012300
42.105700 0.009500
42.132200 0.007300
42.158700 0.005600
42.185200 0.004100
42.211700 0.002900
42.238200 0.001800
42.264700 0.001000
42.291200 0.000500
42.317800 0.000100
42.344300 0.000000
42.370800 0.000000
42.397300 0.000000
42.423800 0.000000
42.450300 0.000000
42.476800 0.000000
42.503300 0.000000
42.529800 0.000000
42.556300 0.000000
42.582800 0.000000
42.609300 0.000000
42.635800 0.000000
42.662300 0.000000
42.688800 0.000000
42.715300 0.000000
42.741800 0.000000
42.768300 0.000000
42.794800 0.000000
42.821300 0.000000
42.847800 0.000000
42.874300 0.000000
42.900900 0.000000
42.927400 0.000000
42.953900 0.000000
42.980400 0.000000
43.006900 0.000000
43.033400 0.000000
43.059900 0.000000
43.086400 0.000000
43.112900 0.000000
43.139400 0.000000
43.165900 0.000000
43.192400 0.000000
43.218900 0.000000
43.245400 0.000000
43.271900 0.000000
43.298400 0.000000
43.324900 0.000000
43.351400 0.000000
43.377900 0.000000
43.404400 0.000000
43.430900 0.000000
43.457400 0.000000
43.484000 0.000000
43.510500 0.000000
43.537000 0.000000
43.563500 0.000000
43.590000 0.000000
43.616500 0.000000
43.643000 0.000000
43.669500 0.000000
43.696000 0.000000
43.722500 0.000000
43.749000 0.000000
43.775500 0.000000
43.802000 0.000000
43.828500 0.000000
43.855000 0.000000
43.881500 0.000000
43.908000 0.000000
43.934500 0.000000
43.961000 0.000000
43.987500 0.000000
44.014000 0.000000
44.040500 0.000000
44.067100 0.000000
44.093600 0.000000
44.120100 0.000000
44.146600 0.000000
44.173100 0.000000
44.199600 0.000000
44.226100 0.000000
44.252600 0.000000
44.279100 0.000000
44.305600 0.000000
44.332100 0.000000
44.358600 0.000000
44.385100 0.000000
44.411600 0.000000
44.438100 0.000000
44.464600 0.000000
44.491100 0.000000
44.517600 0.000000
44.544100 0.000000
44.570600 0.000000
44.597100 0.000000
44.623600 0.000000
44.650200 0.000000
44.676700 0.000000
44.703200 0.000000
44.729700 0.000000
44.756200 0.000000
44.782700 0.000000
44.809200 0.000000
44.835700 0.000000
44.862200 0.000000
44.888700 0.000000
44.915200 0.000000
44.941700 0.000000
44.968200 0.000000
44.994700 0.000000
e
