set title 'mp-782 - Density of States'
set xlabel 'Energy (eV)'
set ylabel 'DOS (states/eV)'
set grid
set xrange [-10:10]
set yrange [0:10.462]
set xzeroaxis lt -1
set terminal png size 800,600
set output 'mp-782_dos_gnuplot.png'
plot '-' using 1:2 with lines title 'DOS'
-7.745400 0.000000
-7.731100 0.000000
-7.716900 0.000000
-7.702700 0.000000
-7.688500 0.000000
-7.674200 0.000000
-7.660000 0.000000
-7.645800 0.000000
-7.631600 0.000000
-7.617300 0.000000
-7.603100 0.000000
-7.588900 0.000000
-7.574700 0.000000
-7.560400 0.000000
-7.546200 0.000000
-7.532000 0.000000
-7.517800 0.000000
-7.503500 0.000000
-7.489300 0.000000
-7.475100 0.000000
-7.460800 0.000000
-7.446600 0.000000
-7.432400 0.000000
-7.418200 0.000000
-7.403900 0.000000
-7.389700 0.000000
-7.375500 0.000000
-7.361300 0.000000
-7.347000 0.000000
-7.332800 0.000000
-7.318600 0.000000
-7.304400 0.000000
-7.290100 0.000000
-7.275900 0.000000
-7.261700 0.000000
-7.247500 0.000000
-7.233200 0.000000
-7.219000 0.000000
-7.204800 0.000000
-7.190600 0.000000
-7.176300 0.000000
-7.162100 0.000000
-7.147900 0.000000
-7.133600 0.000000
-7.119400 0.000000
-7.105200 0.000000
-7.091000 0.000000
-7.076700 0.000000
-7.062500 0.000000
-7.048300 0.000000
-7.034100 0.000000
-7.019800 0.000000
-7.005600 0.000000
-6.991400 0.000000
-6.977200 0.000000
-6.962900 0.000000
-6.948700 0.000000
-6.934500 0.000000
-6.920300 0.000000
-6.906000 0.000000
-6.891800 0.000000
-6.877600 0.000000
-6.863400 0.000000
-6.849100 0.000000
-6.834900 0.000000
-6.820700 0.000000
-6.806400 0.000000
-6.792200 0.000000
-6.778000 0.000000
-6.763800 0.000000
-6.749500 0.000000
-6.735300 0.000000
-6.721100 0.000000
-6.706900 0.000000
-6.692600 0.000000
-6.678400 0.000000
-6.664200 0.000000
-6.650000 0.000000
-6.635700 0.000000
-6.621500 0.000000
-6.607300 0.000000
-6.593100 0.000000
-6.578800 0.000000
-6.564600 0.000000
-6.550400 0.000000
-6.536100 0.000000
-6.521900 0.000000
-6.507700 0.000000
-6.493500 0.000000
-6.479200 0.000000
-6.465000 0.000000
-6.450800 0.000200
-6.436600 0.021900
-6.422300 0.080500
-6.408100 0.138100
-6.393900 0.157600
-6.379700 0.163600
-6.365400 0.187900
-6.351200 0.213200
-6.337000 0.238600
-6.322800 0.259100
-6.308500 0.272300
-6.294300 0.280700
-6.280100 0.290400
-6.265900 0.305200
-6.251600 0.320000
-6.237400 0.334900
-6.223200 0.349600
-6.208900 0.364500
-6.194700 0.377000
-6.180500 0.388200
-6.166300 0.400100
-6.152000 0.413000
-6.137800 0.424000
-6.123600 0.432700
-6.109400 0.443300
-6.095100 0.454200
-6.080900 0.464900
-6.066700 0.476500
-6.052500 0.488400
-6.038200 0.500600
-6.024000 0.512700
-6.009800 0.523400
-5.995600 0.533000
-5.981300 0.543100
-5.967100 0.554000
-5.952900 0.565000
-5.938600 0.575900
-5.924400 0.586700
-5.910200 0.597100
-5.896000 0.606900
-5.881700 0.617700
-5.867500 0.628700
-5.853300 0.639700
-5.839100 0.650800
-5.824800 0.661900
-5.810600 0.673200
-5.796400 0.683600
-5.782200 0.693800
-5.767900 0.704200
-5.753700 0.714900
-5.739500 0.726000
-5.725300 0.737600
-5.711000 0.749400
-5.696800 0.761300
-5.682600 0.773500
-5.668400 0.785800
-5.654100 0.798200
-5.639900 0.810800
-5.625700 0.823900
-5.611400 0.837000
-5.597200 0.850100
-5.583000 0.863300
-5.568800 0.876700
-5.554500 0.891400
-5.540300 0.906000
-5.526100 0.920700
-5.511900 0.935500
-5.497600 0.950500
-5.483400 0.965600
-5.469200 0.981000
-5.455000 0.996400
-5.440700 1.011900
-5.426500 1.027500
-5.412300 1.043200
-5.398100 1.059000
-5.383800 1.074400
-5.369600 1.085500
-5.355400 1.093000
-5.341200 1.103900
-5.326900 1.114300
-5.312700 1.124600
-5.298500 1.134600
-5.284200 1.146200
-5.270000 1.158800
-5.255800 1.172100
-5.241600 1.185700
-5.227300 1.199600
-5.213100 1.216000
-5.198900 1.242900
-5.184700 1.267900
-5.170400 1.296400
-5.156200 1.327500
-5.142000 1.359000
-5.127800 1.391300
-5.113500 1.425000
-5.099300 1.459700
-5.085100 1.495300
-5.070900 1.531300
-5.056600 1.568000
-5.042400 1.606400
-5.028200 1.650400
-5.013900 1.700400
-4.999700 1.752100
-4.985500 1.809600
-4.971300 1.874500
-4.957000 1.947800
-4.942800 2.028800
-4.928600 2.119500
-4.914400 2.419800
-4.900100 2.442800
-4.885900 2.370800
-4.871700 2.368000
-4.857500 2.352100
-4.843200 2.342700
-4.829000 2.345900
-4.814800 2.415200
-4.800600 2.463000
-4.786300 2.469500
-4.772100 2.482800
-4.757900 2.490900
-4.743700 2.495000
-4.729400 2.510100
-4.715200 2.529500
-4.701000 2.630300
-4.686700 2.822300
-4.672500 2.764600
-4.658300 2.277400
-4.644100 2.244900
-4.629800 2.055100
-4.615600 1.997700
-4.601400 1.979600
-4.587200 1.852800
-4.572900 1.736500
-4.558700 1.624200
-4.544500 1.585200
-4.530300 1.544300
-4.516000 1.499000
-4.501800 1.456900
-4.487600 1.439200
-4.473400 1.433900
-4.459100 1.429200
-4.444900 1.419400
-4.430700 1.385600
-4.416400 1.547200
-4.402200 2.232800
-4.388000 2.702100
-4.373800 4.430400
-4.359500 4.608600
-4.345300 4.775500
-4.331100 4.954900
-4.316900 4.765000
-4.302600 5.088100
-4.288400 5.244600
-4.274200 4.315200
-4.260000 3.622600
-4.245700 3.254400
-4.231500 3.019900
-4.217300 2.834300
-4.203100 2.663500
-4.188800 2.503700
-4.174600 2.352700
-4.160400 2.234500
-4.146200 2.127400
-4.131900 2.023800
-4.117700 1.927700
-4.103500 1.846800
-4.089200 1.790500
-4.075000 1.742400
-4.060800 1.685900
-4.046600 1.629900
-4.032300 1.576400
-4.018100 1.523300
-4.003900 1.463100
-3.989700 1.406100
-3.975400 1.351100
-3.961200 1.296600
-3.947000 1.246100
-3.932800 1.200300
-3.918500 1.160400
-3.904300 1.125900
-3.890100 1.091600
-3.875900 1.056700
-3.861600 1.020100
-3.847400 0.985600
-3.833200 0.948100
-3.819000 0.922100
-3.804700 0.895800
-3.790500 0.869400
-3.776300 0.843200
-3.762000 0.817400
-3.747800 0.792800
-3.733600 0.769200
-3.719400 0.746000
-3.705100 0.715000
-3.690900 0.684100
-3.676700 0.653600
-3.662500 0.622700
-3.648200 0.592800
-3.634000 0.565000
-3.619800 0.539300
-3.605600 0.517200
-3.591300 0.494900
-3.577100 0.472300
-3.562900 0.448000
-3.548700 0.421400
-3.534400 0.401400
-3.520200 0.383700
-3.506000 0.364800
-3.491700 0.345300
-3.477500 0.327000
-3.463300 0.307300
-3.449100 0.291200
-3.434800 0.255800
-3.420600 0.214200
-3.406400 0.174900
-3.392200 0.135000
-3.377900 0.095800
-3.363700 0.060900
-3.349500 0.024500
-3.335300 0.000100
-3.321000 0.000000
-3.306800 0.000000
-3.292600 0.000000
-3.278400 0.000000
-3.264100 0.000000
-3.249900 0.000000
-3.235700 0.000000
-3.221500 0.000000
-3.207200 0.000000
-3.193000 0.000000
-3.178800 0.000000
-3.164500 0.000000
-3.150300 0.000000
-3.136100 0.000000
-3.121900 0.000000
-3.107600 0.000000
-3.093400 0.000000
-3.079200 0.000000
-3.065000 0.000000
-3.050700 0.000000
-3.036500 0.000000
-3.022300 0.000000
-3.008100 0.000000
-2.993800 0.000000
-2.979600 0.000000
-2.965400 0.000000
-2.951200 0.000000
-2.936900 0.000000
-2.922700 0.000000
-2.908500 0.000000
-2.894200 0.000000
-2.880000 0.000000
-2.865800 0.000000
-2.851600 0.000000
-2.837300 0.000000
-2.823100 0.000000
-2.808900 0.000000
-2.794700 0.000000
-2.780400 0.000000
-2.766200 0.000000
-2.752000 0.000000
-2.737800 0.000000
-2.723500 0.000000
-2.709300 0.000000
-2.695100 0.000000
-2.680900 0.000000
-2.666600 0.000000
-2.652400 0.000000
-2.638200 0.000000
-2.624000 0.000000
-2.609700 0.000000
-2.595500 0.000000
-2.581300 0.000000
-2.567000 0.000000
-2.552800 0.000000
-2.538600 0.000000
-2.524400 0.000000
-2.510100 0.000000
-2.495900 0.000000
-2.481700 0.000000
-2.467500 0.000000
-2.453200 0.000000
-2.439000 0.000000
-2.424800 0.000000
-2.410600 0.000000
-2.396300 0.000000
-2.382100 0.000000
-2.367900 0.000000
-2.353700 0.000000
-2.339400 0.000000
-2.325200 0.000000
-2.311000 0.000000
-2.296800 0.000000
-2.282500 0.000000
-2.268300 0.000000
-2.254100 0.000000
-2.239800 0.000000
-2.225600 0.000000
-2.211400 0.000000
-2.197200 0.000000
-2.182900 0.000000
-2.168700 0.000000
-2.154500 0.000000
-2.140300 0.000000
-2.126000 0.000000
-2.111800 0.000000
-2.097600 0.000000
-2.083400 0.000000
-2.069100 0.000000
-2.054900 0.000000
-2.040700 0.000000
-2.026500 0.000000
-2.012200 0.000000
-1.998000 0.000000
-1.983800 0.000000
-1.969500 0.000000
-1.955300 0.000000
-1.941100 0.000000
-1.926900 0.000000
-1.912600 0.000000
-1.898400 0.000000
-1.884200 0.000000
-1.870000 0.000000
-1.855700 0.000000
-1.841500 0.000000
-1.827300 0.000000
-1.813100 0.000000
-1.798800 0.000000
-1.784600 0.000000
-1.770400 0.000000
-1.756200 0.000000
-1.741900 0.000000
-1.727700 0.000000
-1.713500 0.000000
-1.699300 0.000000
-1.685000 0.000000
-1.670800 0.000000
-1.656600 0.000000
-1.642300 0.000000
-1.628100 0.000000
-1.613900 0.000000
-1.599700 0.000000
-1.585400 0.000000
-1.571200 0.000000
-1.557000 0.000000
-1.542800 0.000000
-1.528500 0.000000
-1.514300 0.000000
-1.500100 0.000000
-1.485900 0.000000
-1.471600 0.000000
-1.457400 0.000000
-1.443200 0.000000
-1.429000 0.000000
-1.414700 0.000000
-1.400500 0.000000
-1.386300 0.000000
-1.372000 0.000000
-1.357800 0.000000
-1.343600 0.000000
-1.329400 0.000000
-1.315100 0.000000
-1.300900 0.000000
-1.286700 0.000000
-1.272500 0.000000
-1.258200 0.000000
-1.244000 0.000000
-1.229800 0.000000
-1.215600 0.000000
-1.201300 0.000000
-1.187100 0.000000
-1.172900 0.000000
-1.158700 0.000000
-1.144400 0.000000
-1.130200 0.000000
-1.116000 0.000000
-1.101800 0.000000
-1.087500 0.000000
-1.073300 0.000000
-1.059100 0.000000
-1.044800 0.000000
-1.030600 0.000000
-1.016400 0.000000
-1.002200 0.000000
-0.987900 0.000000
-0.973700 0.000000
-0.959500 0.000000
-0.945300 0.000000
-0.931000 0.000000
-0.916800 0.000000
-0.902600 0.000000
-0.888400 0.000000
-0.874100 0.000000
-0.859900 0.000000
-0.845700 0.000000
-0.831500 0.000000
-0.817200 0.000000
-0.803000 0.000000
-0.788800 0.000000
-0.774600 0.000000
-0.760300 0.000000
-0.746100 0.000000
-0.731900 0.000000
-0.717600 0.000000
-0.703400 0.000000
-0.689200 0.000000
-0.675000 0.000000
-0.660700 0.000000
-0.646500 0.000000
-0.632300 0.000000
-0.618100 0.000000
-0.603800 0.000000
-0.589600 0.000000
-0.575400 0.000000
-0.561200 0.000000
-0.546900 0.000000
-0.532700 0.000000
-0.518500 0.000000
-0.504300 0.000000
-0.490000 0.000000
-0.475800 0.000000
-0.461600 0.000000
-0.447300 0.000000
-0.433100 0.000000
-0.418900 0.000000
-0.404700 0.000000
-0.390400 0.000000
-0.376200 0.000000
-0.362000 0.000000
-0.347800 0.000000
-0.333500 0.000000
-0.319300 0.000000
-0.305100 0.000000
-0.290900 0.000000
-0.276600 0.000000
-0.262400 0.000000
-0.248200 0.000000
-0.234000 0.000000
-0.219700 0.000000
-0.205500 0.000000
-0.191300 0.000000
-0.177100 0.000000
-0.162800 0.000000
-0.148600 0.000000
-0.134400 0.000000
-0.120100 0.000000
-0.105900 0.000000
-0.091700 0.000000
-0.077500 0.000000
-0.063200 0.000000
-0.049000 0.000000
-0.034800 0.000000
-0.020600 0.000000
-0.006300 0.000000
0.007900 0.000000
0.022100 0.000000
0.036300 0.000000
0.050600 0.000000
0.064800 0.000000
0.079000 0.000000
0.093200 0.000000
0.107500 0.000000
0.121700 0.000000
0.135900 0.000000
0.150200 0.000000
0.164400 0.000000
0.178600 0.000000
0.192800 0.000000
0.207100 0.000000
0.221300 0.000000
0.235500 0.000000
0.249700 0.000000
0.264000 0.000000
0.278200 0.000000
0.292400 0.000000
0.306600 0.000000
0.320900 0.000000
0.335100 0.000000
0.349300 0.000000
0.363500 0.000000
0.377800 0.000000
0.392000 0.000000
0.406200 0.000000
0.420400 0.000000
0.434700 0.000000
0.448900 0.000000
0.463100 0.000000
0.477400 0.000000
0.491600 0.000000
0.505800 0.000000
0.520000 0.000000
0.534300 0.000000
0.548500 0.000000
0.562700 0.000000
0.576900 0.000000
0.591200 0.000000
0.605400 0.000000
0.619600 0.000000
0.633800 0.000000
0.648100 0.000000
0.662300 0.000000
0.676500 0.000000
0.690700 0.000000
0.705000 0.000000
0.719200 0.000000
0.733400 0.005900
0.747600 0.052200
0.761900 0.151500
0.776100 0.338800
0.790300 0.336800
0.804600 0.379500
0.818800 0.429900
0.833000 0.461100
0.847200 0.488900
0.861500 0.531200
0.875700 0.573900
0.889900 0.615500
0.904100 0.649400
0.918400 0.678700
0.932600 0.709500
0.946800 0.739500
0.961000 0.768500
0.975300 0.802500
0.989500 0.840400
1.003700 0.884700
1.017900 0.936400
1.032200 0.988500
1.046400 1.040900
1.060600 1.092000
1.074900 1.147200
1.089100 1.210800
1.103300 1.282300
1.117500 1.358900
1.131800 1.430400
1.146000 1.504600
1.160200 1.582000
1.174400 1.660800
1.188700 1.740800
1.202900 1.825400
1.217100 1.921700
1.231300 2.027700
1.245600 2.154200
1.259800 2.333400
1.274000 2.652000
1.288200 2.976000
1.302500 3.346500
1.316700 3.599000
1.330900 3.571400
1.345100 3.854600
1.359400 3.955300
1.373600 4.461700
1.387800 5.021700
1.402100 4.761100
1.416300 4.829100
1.430500 5.050900
1.444700 5.206500
1.459000 5.206300
1.473200 5.032400
1.487400 4.715700
1.501600 4.483400
1.515900 4.262700
1.530100 4.270200
1.544300 4.263300
1.558500 4.038800
1.572800 3.692400
1.587000 3.470700
1.601200 3.255300
1.615400 3.093600
1.629700 2.962000
1.643900 2.860500
1.658100 2.759100
1.672400 2.665900
1.686600 2.577100
1.700800 2.498900
1.715000 2.430900
1.729300 2.368900
1.743500 2.313600
1.757700 2.264900
1.771900 2.223200
1.786200 2.185100
1.800400 2.149200
1.814600 2.115900
1.828800 2.109500
1.843100 2.099900
1.857300 2.088300
1.871500 2.041200
1.885700 1.952400
1.900000 1.906300
1.914200 1.868700
1.928400 1.862600
1.942600 1.870300
1.956900 2.195800
1.971100 2.610600
1.985300 2.764000
1.999600 2.942700
2.013800 3.120100
2.028000 3.348400
2.042200 3.595000
2.056500 4.032900
2.070700 4.428100
2.084900 4.797100
2.099100 5.166600
2.113400 5.819300
2.127600 6.090200
2.141800 5.278000
2.156000 4.788300
2.170300 4.506700
2.184500 4.333000
2.198700 4.363300
2.212900 4.476400
2.227200 4.713600
2.241400 5.205100
2.255600 5.227500
2.269800 5.139100
2.284100 4.894200
2.298300 4.862300
2.312500 4.880000
2.326800 4.934500
2.341000 5.074900
2.355200 5.319100
2.369400 5.463300
2.383700 5.261200
2.397900 5.149700
2.412100 5.027100
2.426300 4.878900
2.440600 4.682700
2.454800 4.425800
2.469000 4.288800
2.483200 4.199300
2.497500 4.111200
2.511700 4.079900
2.525900 3.776200
2.540100 3.643400
2.554400 3.576800
2.568600 3.543000
2.582800 3.524900
2.597100 3.510700
2.611300 3.466300
2.625500 3.326200
2.639700 3.010900
2.654000 2.657400
2.668200 2.456400
2.682400 2.234900
2.696600 1.959000
2.710900 1.854100
2.725100 1.436300
2.739300 1.231700
2.753500 1.082500
2.767800 1.038200
2.782000 1.085100
2.796200 1.140200
2.810400 1.275300
2.824700 1.525900
2.838900 1.690400
2.853100 1.901900
2.867300 2.164800
2.881600 2.573400
2.895800 3.050600
2.910000 3.230600
2.924300 3.285200
2.938500 3.377800
2.952700 3.449500
2.966900 3.472700
2.981200 3.469800
2.995400 3.563500
3.009600 3.594700
3.023800 3.632200
3.038100 3.628400
3.052300 3.581600
3.066500 3.500800
3.080700 4.138900
3.095000 4.451900
3.109200 4.553400
3.123400 4.688000
3.137600 4.800000
3.151900 4.904900
3.166100 5.053100
3.180300 5.310600
3.194600 5.830600
3.208800 5.949800
3.223000 6.374500
3.237200 6.925100
3.251500 7.403800
3.265700 7.707300
3.279900 7.599600
3.294100 7.366600
3.308400 7.235800
3.322600 7.204100
3.336800 7.344000
3.351000 7.991000
3.365300 8.942900
3.379500 8.961600
3.393700 8.918900
3.407900 9.301300
3.422200 8.821800
3.436400 7.721400
3.450600 6.849000
3.464800 6.506000
3.479100 6.348500
3.493300 5.431800
3.507500 4.295500
3.521800 2.466900
3.536000 2.108700
3.550200 1.891600
3.564400 1.738000
3.578700 1.673000
3.592900 1.599800
3.607100 1.473800
3.621300 1.441700
3.635600 1.616300
3.649800 2.774600
3.664000 2.940100
3.678200 3.211300
3.692500 2.498900
3.706700 2.486500
3.720900 2.834500
3.735100 5.596100
3.749400 6.576200
3.763600 9.511300
3.777800 8.323700
3.792000 6.624400
3.806300 5.761600
3.820500 5.500900
3.834700 5.554100
3.849000 5.543300
3.863200 5.243500
3.877400 4.974400
3.891600 5.009700
3.905900 5.064800
3.920100 5.102300
3.934300 5.117300
3.948500 5.038300
3.962800 5.043600
3.977000 5.091800
3.991200 5.033400
4.005400 4.729500
4.019700 4.344300
4.033900 4.129200
4.048100 4.031600
4.062300 3.939400
4.076600 3.934500
4.090800 3.951200
4.105000 3.969000
4.119300 3.919500
4.133500 3.792400
4.147700 3.610600
4.161900 3.445500
4.176200 3.335800
4.190400 3.281600
4.204600 3.273700
4.218800 3.284900
4.233100 3.334400
4.247300 3.472100
4.261500 3.664600
4.275700 3.717100
4.290000 3.739900
4.304200 3.765200
4.318400 3.698400
4.332600 3.490600
4.346900 3.490200
4.361100 3.473300
4.375300 3.360400
4.389500 3.352300
4.403800 3.349900
4.418000 3.347000
4.432200 3.345400
4.446500 3.365900
4.460700 3.404100
4.474900 3.448200
4.489100 3.453200
4.503400 3.451500
4.517600 3.576000
4.531800 3.392200
4.546000 3.257000
4.560300 3.143800
4.574500 3.099100
4.588700 3.050500
4.602900 3.000200
4.617200 2.962900
4.631400 2.942300
4.645600 2.927800
4.659800 2.901600
4.674100 2.868500
4.688300 2.816600
4.702500 2.773300
4.716800 2.739200
4.731000 2.717100
4.745200 2.701500
4.759400 2.687500
4.773700 2.676300
4.787900 2.657300
4.802100 2.645500
4.816300 2.636700
4.830600 2.629200
4.844800 2.617200
4.859000 2.610000
4.873200 2.598800
4.887500 2.589600
4.901700 2.579600
4.915900 2.567200
4.930100 2.544100
4.944400 2.499100
4.958600 2.464600
4.972800 2.434900
4.987000 2.406500
5.001300 2.377000
5.015500 2.335600
5.029700 2.298200
5.044000 2.265700
5.058200 2.239900
5.072400 2.216100
5.086600 2.193900
5.100900 2.181800
5.115100 2.169100
5.129300 2.158300
5.143500 2.155900
5.157800 2.162700
5.172000 2.171800
5.186200 2.182800
5.200400 2.216700
5.214700 2.288000
5.228900 2.354200
5.243100 2.409800
5.257300 2.460100
5.271600 2.485500
5.285800 2.462300
5.300000 2.463500
5.314200 2.456500
5.328500 2.441500
5.342700 2.439300
5.356900 2.435900
5.371200 2.430500
5.385400 2.425200
5.399600 2.412300
5.413800 2.384400
5.428100 2.375200
5.442300 2.473200
5.456500 2.340000
5.470700 2.303700
5.485000 2.288000
5.499200 2.269200
5.513400 2.218500
5.527600 2.157600
5.541900 2.103900
5.556100 2.059500
5.570300 2.022400
5.584500 1.991300
5.598800 1.971300
5.613000 1.959700
5.627200 1.948700
5.641500 1.942300
5.655700 1.946500
5.669900 1.935700
5.684100 1.890100
5.698400 1.835800
5.712600 1.802100
5.726800 1.766100
5.741000 1.731300
5.755300 1.698900
5.769500 1.671800
5.783700 1.654000
5.797900 1.642400
5.812200 1.636800
5.826400 1.640200
5.840600 1.654400
5.854800 1.677600
5.869100 1.720000
5.883300 1.760700
5.897500 1.770300
5.911700 1.736200
5.926000 1.674000
5.940200 1.646600
5.954400 1.619600
5.968700 1.596400
5.982900 1.579700
5.997100 1.571300
6.011300 1.573100
6.025600 1.571800
6.039800 1.533000
6.054000 1.515200
6.068200 1.513000
6.082500 1.479800
6.096700 1.454800
6.110900 1.434600
6.125100 1.408000
6.139400 1.369500
6.153600 1.329100
6.167800 1.286100
6.182000 1.250600
6.196300 1.233000
6.210500 1.215400
6.224700 1.194700
6.239000 1.176800
6.253200 1.162200
6.267400 1.149600
6.281600 1.138600
6.295900 1.130200
6.310100 1.130500
6.324300 1.141900
6.338500 1.171500
6.352800 1.217300
6.367000 1.206400
6.381200 1.153500
6.395400 1.107600
6.409700 1.084300
6.423900 1.090800
6.438100 1.136500
6.452300 1.167000
6.466600 1.160300
6.480800 1.132800
6.495000 1.097300
6.509200 1.056700
6.523500 1.021700
6.537700 1.002200
6.551900 0.986400
6.566200 0.988000
6.580400 0.990100
6.594600 0.997500
6.608800 0.994600
6.623100 0.982800
6.637300 0.986500
6.651500 0.999000
6.665700 1.019600
6.680000 1.047400
6.694200 1.082600
6.708400 1.131400
6.722600 1.200400
6.736900 1.298100
6.751100 1.389100
6.765300 1.470500
6.779500 1.542500
6.793800 1.618200
6.808000 1.676900
6.822200 1.814200
6.836500 1.758400
6.850700 1.761400
6.864900 1.760900
6.879100 1.759700
6.893400 1.767600
6.907600 1.776300
6.921800 1.791400
6.936000 1.807000
6.950300 1.821100
6.964500 1.834800
6.978700 1.848600
6.992900 1.861700
7.007200 1.872600
7.021400 1.884600
7.035600 1.893900
7.049800 1.900300
7.064100 1.916200
7.078300 1.944200
7.092500 1.949000
7.106700 1.960700
7.121000 1.963100
7.135200 1.978100
7.149400 2.008600
7.163700 1.996500
7.177900 1.998900
7.192100 2.011000
7.206300 2.025600
7.220600 2.037200
7.234800 2.051100
7.249000 2.061700
7.263200 2.067000
7.277500 2.052900
7.291700 2.007500
7.305900 1.944200
7.320100 1.882200
7.334400 1.811700
7.348600 1.731500
7.362800 1.672700
7.377000 1.630000
7.391300 1.591700
7.405500 1.560700
7.419700 1.536900
7.433900 1.518500
7.448200 1.505700
7.462400 1.496800
7.476600 1.489900
7.490900 1.484600
7.505100 1.480600
7.519300 1.477600
7.533500 1.478100
7.547800 1.482000
7.562000 1.491100
7.576200 1.506600
7.590400 1.527500
7.604700 1.594500
7.618900 1.608700
7.633100 1.623000
7.647300 1.636700
7.661600 1.646100
7.675800 1.652100
7.690000 1.655300
7.704200 1.657600
7.718500 1.661800
7.732700 1.667000
7.746900 1.671700
7.761200 1.675600
7.775400 1.680100
7.789600 1.684100
7.803800 1.687700
7.818100 1.691800
7.832300 1.696900
7.846500 1.703500
7.860700 1.708700
7.875000 1.718100
7.889200 1.730400
7.903400 1.745900
7.917600 1.766200
7.931900 1.792000
7.946100 1.823900
7.960300 1.875100
7.974500 1.927900
7.988800 1.969300
8.003000 2.009400
8.017200 2.051400
8.031400 2.100200
8.045700 2.155500
8.059900 2.211800
8.074100 2.228200
8.088400 2.214900
8.102600 2.215900
8.116800 2.223800
8.131000 2.216100
8.145300 2.214900
8.159500 2.213300
8.173700 2.213400
8.187900 2.211300
8.202200 2.207900
8.216400 2.204200
8.230600 2.199700
8.244800 2.194300
8.259100 2.193600
8.273300 2.221800
8.287500 2.172300
8.301700 2.167400
8.316000 2.171600
8.330200 2.187400
8.344400 2.204000
8.358700 2.209600
8.372900 2.201700
8.387100 2.207300
8.401300 2.202700
8.415600 2.188800
8.429800 2.171200
8.444000 2.151100
8.458200 2.128300
8.472500 2.100800
8.486700 2.070700
8.500900 2.045100
8.515100 2.035300
8.529400 2.014400
8.543600 2.012400
8.557800 2.018000
8.572000 1.998600
8.586300 1.977400
8.600500 1.963200
8.614700 1.964900
8.628900 2.016200
8.643200 1.979900
8.657400 1.948400
8.671600 1.953200
8.685900 1.891500
8.700100 1.732200
8.714300 1.677500
8.728500 1.647400
8.742800 1.621600
8.757000 1.577000
8.771200 1.511000
8.785400 1.397100
8.799700 1.309500
8.813900 1.242400
8.828100 1.177100
8.842300 1.114000
8.856600 1.052100
8.870800 0.992800
8.885000 0.929700
8.899200 0.872200
8.913500 0.815600
8.927700 0.765200
8.941900 0.719900
8.956100 0.679000
8.970400 0.642300
8.984600 0.613400
8.998800 0.650300
9.013100 0.526000
9.027300 0.464200
9.041500 0.463300
9.055700 0.446800
9.070000 0.349800
9.084200 0.251700
9.098400 0.157000
9.112600 0.065600
9.126900 0.000000
9.141100 0.000000
9.155300 0.000000
9.169500 0.000000
9.183800 0.000000
9.198000 0.000000
9.212200 0.000000
9.226400 0.000000
9.240700 0.000000
9.254900 0.000000
9.269100 0.000000
9.283400 0.000000
9.297600 0.000000
9.311800 0.000000
9.326000 0.000000
9.340300 0.000000
9.354500 0.000000
9.368700 0.000000
9.382900 0.000000
9.397200 0.000000
9.411400 0.000000
9.425600 0.000000
9.439800 0.000000
9.454100 0.000000
9.468300 0.000000
9.482500 0.000000
9.496700 0.000000
9.511000 0.000000
9.525200 0.000000
9.539400 0.000000
9.553600 0.000000
9.567900 0.000000
9.582100 0.000000
9.596300 0.000000
9.610600 0.000000
9.624800 0.000000
9.639000 0.000000
9.653200 0.000000
9.667500 0.000000
9.681700 0.000000
9.695900 0.000000
9.710100 0.000000
9.724400 0.000000
9.738600 0.000000
9.752800 0.000000
9.767000 0.000000
9.781300 0.000000
9.795500 0.000000
9.809700 0.000000
9.823900 0.000000
9.838200 0.000000
9.852400 0.000000
9.866600 0.000000
9.880900 0.000400
9.895100 0.001300
9.909300 0.002600
9.923500 0.004400
9.937800 0.006400
9.952000 0.008600
9.966200 0.010800
9.980400 0.013300
9.994700 0.015900
10.008900 0.018600
10.023100 0.021500
10.037300 0.024500
10.051600 0.027700
10.065800 0.031000
10.080000 0.034500
10.094200 0.038100
10.108500 0.039900
10.122700 0.040000
10.136900 0.040100
10.151100 0.039900
10.165400 0.040000
10.179600 0.041300
10.193800 0.042700
10.208100 0.044200
10.222300 0.045600
10.236500 0.047000
10.250700 0.048400
10.265000 0.049700
10.279200 0.051000
10.293400 0.052300
10.307600 0.053600
10.321900 0.054800
10.336100 0.056000
10.350300 0.057300
10.364500 0.058700
10.378800 0.060400
10.393000 0.062100
10.407200 0.063700
10.421400 0.065400
10.435700 0.067100
10.449900 0.068800
10.464100 0.070500
10.478300 0.072200
10.492600 0.073900
10.506800 0.075600
10.521000 0.077300
10.535300 0.086000
10.549500 0.095400
10.563700 0.105400
10.577900 0.116200
10.592200 0.127800
10.606400 0.140000
10.620600 0.152800
10.634800 0.165600
10.649100 0.183000
10.663300 0.210700
10.677500 0.245400
10.691700 0.327400
10.706000 0.452300
10.720200 0.588300
10.734400 0.714500
10.748600 0.849300
10.762900 0.980100
10.777100 1.098600
10.791300 1.223600
10.805600 1.369400
10.819800 1.477400
10.834000 1.564400
10.848200 1.643100
10.862500 1.700700
10.876700 1.726500
10.890900 1.753800
10.905100 1.772400
10.919400 1.779400
10.933600 1.795100
10.947800 1.811300
10.962000 1.825200
10.976300 1.835900
10.990500 1.794600
11.004700 1.777300
11.018900 1.774700
11.033200 1.779900
11.047400 1.787300
11.061600 1.781200
11.075800 1.777400
11.090100 1.775700
11.104300 1.735400
11.118500 1.668400
11.132800 1.612500
11.147000 1.575900
11.161200 1.559700
11.175400 1.543500
11.189700 1.532200
11.203900 1.530000
11.218100 1.530500
11.232300 1.535300
11.246600 1.543200
11.260800 1.551200
11.275000 1.560600
11.289200 1.573000
11.303500 1.589400
11.317700 1.605400
11.331900 1.620600
11.346100 1.634900
11.360400 1.646900
11.374600 1.659000
11.388800 1.701100
11.403100 1.729500
11.417300 1.754600
11.431500 1.774100
11.445700 1.785100
11.460000 1.786500
11.474200 1.778600
11.488400 1.765100
11.502600 1.754500
11.516900 1.746000
11.531100 1.737000
11.545300 1.725500
11.559500 1.709700
11.573800 1.689900
11.588000 1.667500
11.602200 1.647100
11.616400 1.627900
11.630700 1.610900
11.644900 1.596100
11.659100 1.583900
11.673300 1.575200
11.687600 1.567900
11.701800 1.560700
11.716000 1.557000
11.730300 1.557900
11.744500 1.565000
11.758700 1.577700
11.772900 1.595200
11.787200 1.615200
11.801400 1.644900
11.815600 1.688700
11.829800 1.779600
11.844100 1.856100
11.858300 1.949400
11.872500 2.027400
11.886700 2.088400
11.901000 2.156500
11.915200 2.224900
11.929400 2.311200
11.943600 2.391900
11.957900 2.455800
11.972100 2.527600
11.986300 2.662600
12.000500 2.667400
12.014800 2.752800
12.029000 2.815800
12.043200 2.865000
12.057500 2.910600
12.071700 3.001100
12.085900 3.082700
12.100100 3.121400
12.114400 3.155300
12.128600 3.106400
12.142800 3.090200
12.157000 3.063300
12.171300 3.009400
12.185500 2.949700
12.199700 2.887300
12.213900 2.831600
12.228200 2.781100
12.242400 2.742500
12.256600 2.630200
12.270800 2.554400
12.285100 2.490800
12.299300 2.430600
12.313500 2.370000
12.327800 2.306600
12.342000 2.232000
12.356200 2.168700
12.370400 2.099600
12.384700 2.027300
12.398900 1.952700
12.413100 1.876900
12.427300 1.805600
12.441600 1.742700
12.455800 1.688400
12.470000 1.640600
12.484200 1.600000
12.498500 1.575000
12.512700 1.557500
12.526900 1.541900
12.541100 1.507300
12.555400 1.475900
12.569600 1.446600
12.583800 1.416300
12.598000 1.379200
12.612300 1.336800
12.626500 1.296900
12.640700 1.256900
12.655000 1.220700
12.669200 1.189300
12.683400 1.163500
12.697600 1.143600
12.711900 1.242800
12.726100 1.207800
12.740300 1.173500
12.754500 1.138900
12.768800 1.130400
12.783000 1.127900
12.797200 1.130700
12.811400 1.136700
12.825700 1.143000
12.839900 1.171400
12.854100 1.203400
12.868300 1.239200
12.882600 1.280600
12.896800 1.326900
12.911000 1.419500
12.925300 1.594200
12.939500 1.600800
12.953700 1.627300
12.967900 1.629500
12.982200 1.642200
12.996400 1.656100
13.010600 1.673000
13.024800 1.702500
13.039100 1.737900
13.053300 1.791200
13.067500 1.834400
13.081700 1.885200
13.096000 1.888600
13.110200 1.885700
13.124400 1.900000
13.138600 1.919100
13.152900 1.929500
13.167100 1.948300
13.181300 1.981100
13.195500 2.008000
13.209800 2.029600
13.224000 2.045300
13.238200 2.055000
13.252500 2.066200
13.266700 2.082700
13.280900 2.148500
13.295100 2.160400
13.309400 2.138800
13.323600 2.137600
13.337800 2.121700
13.352000 2.096300
13.366300 2.077800
13.380500 2.053500
13.394700 2.023300
13.408900 1.998200
13.423200 1.969100
13.437400 1.931100
13.451600 1.896500
13.465800 1.865600
13.480100 1.827200
13.494300 1.789400
13.508500 1.754100
13.522700 1.721700
13.537000 1.679300
13.551200 1.645800
13.565400 1.591900
13.579700 1.562700
13.593900 1.532300
13.608100 1.503900
13.622300 1.493400
13.636600 1.576200
13.650800 1.604900
13.665000 1.632900
13.679200 1.668400
13.693500 1.644700
13.707700 1.568000
13.721900 1.593600
13.736100 1.625400
13.750400 1.644500
13.764600 1.684000
13.778800 1.723900
13.793000 1.768700
13.807300 1.819700
13.821500 1.877300
13.835700 1.936000
13.850000 1.994800
13.864200 2.078500
13.878400 2.132400
13.892600 2.177700
13.906900 2.218900
13.921100 2.320200
13.935300 2.371700
13.949500 2.433600
13.963800 2.453700
13.978000 2.483300
13.992200 2.517100
14.006400 2.557600
14.020700 2.618300
14.034900 2.690600
14.049100 2.764200
14.063300 2.795300
14.077600 2.805800
14.091800 2.816400
14.106000 2.834500
14.120200 2.830700
14.134500 2.815400
14.148700 2.784300
14.162900 2.793900
14.177200 2.821200
14.191400 2.931500
14.205600 2.935700
14.219800 2.932400
14.234100 2.840600
14.248300 2.782000
14.262500 2.742200
14.276700 2.696900
14.291000 2.653600
14.305200 2.620600
14.319400 2.660300
14.333600 2.570500
14.347900 2.520200
14.362100 2.484300
14.376300 2.454200
14.390500 2.510200
14.404800 2.476300
14.419000 2.458100
14.433200 2.436800
14.447500 2.414400
14.461700 2.423900
14.475900 2.373900
14.490100 2.344200
14.504400 2.316400
14.518600 2.295500
14.532800 2.280900
14.547000 2.265500
14.561300 2.256400
14.575500 2.256600
14.589700 2.279700
14.603900 2.318200
14.618200 2.385000
14.632400 2.497700
14.646600 2.543400
14.660800 2.500100
14.675100 2.487200
14.689300 2.367200
14.703500 2.399800
14.717700 2.438500
14.732000 2.500400
14.746200 2.494400
14.760400 2.493500
14.774700 2.473500
14.788900 2.456100
14.803100 2.445400
14.817300 2.436000
14.831600 2.426200
14.845800 2.417000
14.860000 2.407200
14.874200 2.395700
14.888500 2.380700
14.902700 2.380900
14.916900 2.403600
14.931100 2.440400
14.945400 2.492100
14.959600 2.554400
14.973800 2.616100
14.988000 2.680200
15.002300 2.737300
15.016500 2.785600
15.030700 2.834400
15.044900 2.910000
15.059200 2.784700
15.073400 2.789100
15.087600 2.814500
15.101900 2.853200
15.116100 2.892400
15.130300 2.946900
15.144500 2.999400
15.158800 3.056100
15.173000 3.088600
15.187200 3.073000
15.201400 3.064900
15.215700 3.108500
15.229900 3.142700
15.244100 3.133100
15.258300 3.081700
15.272600 3.027400
15.286800 2.998700
15.301000 2.962800
15.315200 2.927600
15.329500 2.891500
15.343700 2.866200
15.357900 2.838800
15.372200 2.724400
15.386400 2.690600
15.400600 2.657800
15.414800 2.625000
15.429100 2.591700
15.443300 2.544300
15.457500 2.492200
15.471700 2.434400
15.486000 2.381200
15.500200 2.339100
15.514400 2.315700
15.528600 2.298200
15.542900 2.284200
15.557100 2.270200
15.571300 2.246500
15.585500 2.236400
15.599800 2.236100
15.614000 2.250400
15.628200 2.271700
15.642400 2.280600
15.656700 2.288100
15.670900 2.309000
15.685100 2.327000
15.699400 2.301200
15.713600 2.272900
15.727800 2.241800
15.742000 2.183600
15.756300 2.126400
15.770500 2.105200
15.784700 2.089200
15.798900 2.077200
15.813200 2.060700
15.827400 2.053800
15.841600 2.042400
15.855800 2.031500
15.870100 2.014900
15.884300 2.000200
15.898500 1.981400
15.912700 1.960900
15.927000 1.951200
15.941200 1.940500
15.955400 1.924800
15.969700 1.906300
15.983900 1.889300
15.998100 1.899800
16.012300 1.881900
16.026600 1.861000
16.040800 1.828900
16.055000 1.808300
16.069200 1.788500
16.083500 1.776300
16.097700 1.774600
16.111900 1.853900
16.126100 1.917700
16.140400 1.799300
16.154600 1.791800
16.168800 1.783800
16.183000 1.774600
16.197300 1.764900
16.211500 1.760300
16.225700 1.761100
16.239900 1.767000
16.254200 1.776700
16.268400 1.788800
16.282600 1.806800
16.296900 1.823800
16.311100 1.833700
16.325300 1.840600
16.339500 1.842100
16.353800 1.839200
16.368000 1.877500
16.382200 1.884700
16.396400 1.880800
16.410700 1.878400
16.424900 1.877900
16.439100 1.876100
16.453300 1.863500
16.467600 1.861500
16.481800 1.861700
16.496000 1.855000
16.510200 1.849000
16.524500 1.850100
16.538700 1.854300
16.552900 1.856800
16.567100 1.857900
16.581400 1.857300
16.595600 1.857500
16.609800 1.852100
16.624100 1.838800
16.638300 1.819900
16.652500 1.844500
16.666700 1.870400
16.681000 1.818700
16.695200 1.738600
16.709400 1.715300
16.723600 1.696800
16.737900 1.681400
16.752100 1.669400
16.766300 1.661200
16.780500 1.656800
16.794800 1.650700
16.809000 1.645500
16.823200 1.640200
16.837400 1.635800
16.851700 1.631200
16.865900 1.619100
16.880100 1.603000
16.894400 1.588500
16.908600 1.574600
16.922800 1.560800
16.937000 1.547000
16.951300 1.531100
16.965500 1.517900
16.979700 1.501100
16.993900 1.480100
17.008200 1.451500
17.022400 1.429900
17.036600 1.419700
17.050800 1.412800
17.065100 1.399400
17.079300 1.378900
17.093500 1.355700
17.107700 1.335700
17.122000 1.338300
17.136200 1.325100
17.150400 1.315700
17.164600 1.314900
17.178900 1.308100
17.193100 1.284800
17.207300 1.253000
17.221600 1.212200
17.235800 1.165700
17.250000 1.121500
17.264200 1.102800
17.278500 1.098100
17.292700 1.097100
17.306900 1.104600
17.321100 1.065100
17.335400 1.004300
17.349600 0.940500
17.363800 0.870500
17.378000 0.811900
17.392300 0.773600
17.406500 0.750100
17.420700 0.737300
17.434900 0.733800
17.449200 0.738800
17.463400 0.752600
17.477600 0.771700
17.491900 0.780300
17.506100 0.774000
17.520300 0.761500
17.534500 0.751100
17.548800 0.742800
17.563000 0.736600
17.577200 0.732400
17.591400 0.730200
17.605700 0.732500
17.619900 0.731800
17.634100 0.731200
17.648300 0.731100
17.662600 0.732400
17.676800 0.735600
17.691000 0.740600
17.705200 0.746600
17.719500 0.752100
17.733700 0.758300
17.747900 0.763000
17.762100 0.766100
17.776400 0.769500
17.790600 0.773700
17.804800 0.777800
17.819100 0.781300
17.833300 0.778700
17.847500 0.789500
17.861700 0.794700
17.876000 0.790800
17.890200 0.778500
17.904400 0.743600
17.918600 0.715600
17.932900 0.695000
17.947100 0.675500
17.961300 0.656400
17.975500 0.638800
17.989800 0.622000
18.004000 0.605300
18.018200 0.587200
18.032400 0.565500
18.046700 0.543100
18.060900 0.522000
18.075100 0.502100
18.089300 0.484100
18.103600 0.468000
18.117800 0.452600
18.132000 0.437900
18.146300 0.423800
18.160500 0.410100
18.174700 0.396500
18.188900 0.382900
18.203200 0.520200
18.217400 0.396900
18.231600 0.365300
18.245800 0.333700
18.260100 0.303000
18.274300 0.277400
18.288500 0.257700
18.302700 0.243500
18.317000 0.231000
18.331200 0.220700
18.345400 0.210900
18.359600 0.201700
18.373900 0.193200
18.388100 0.185200
18.402300 0.178300
18.416600 0.171700
18.430800 0.166400
18.445000 0.161700
18.459200 0.156700
18.473500 0.151500
18.487700 0.146200
18.501900 0.141100
18.516100 0.136100
18.530400 0.131500
18.544600 0.127000
18.558800 0.122700
18.573000 0.118700
18.587300 0.114900
18.601500 0.111300
18.615700 0.107700
18.629900 0.104000
18.644200 0.100200
18.658400 0.096200
18.672600 0.092000
18.686800 0.087700
18.701100 0.083300
18.715300 0.078600
18.729500 0.073800
18.743800 0.069200
18.758000 0.064700
18.772200 0.060500
18.786400 0.056500
18.800700 0.052600
18.814900 0.049000
18.829100 0.045600
18.843300 0.042400
18.857600 0.039400
18.871800 0.036700
18.886000 0.034200
18.900200 0.031900
18.914500 0.029900
18.928700 0.028100
18.942900 0.026500
18.957100 0.024900
18.971400 0.023400
18.985600 0.021900
18.999800 0.020500
19.014100 0.019100
19.028300 0.017700
19.042500 0.016500
19.056700 0.015200
19.071000 0.014000
19.085200 0.012900
19.099400 0.011800
19.113600 0.010800
19.127900 0.009800
19.142100 0.008800
19.156300 0.007900
19.170500 0.007100
19.184800 0.006300
19.199000 0.005500
19.213200 0.004800
19.227400 0.004100
19.241700 0.003500
19.255900 0.003000
19.270100 0.002500
19.284300 0.002000
19.298600 0.001600
19.312800 0.001200
19.327000 0.000900
19.341300 0.000600
19.355500 0.000400
19.369700 0.000200
19.383900 0.000100
19.398200 0.000000
19.412400 0.000000
19.426600 0.000000
19.440800 0.000000
19.455100 0.000000
19.469300 0.000000
19.483500 0.000000
19.497700 0.000000
19.512000 0.000000
19.526200 0.000000
19.540400 0.000000
19.554600 0.000000
19.568900 0.000000
19.583100 0.000000
19.597300 0.000000
19.611500 0.000000
19.625800 0.000000
19.640000 0.000000
19.654200 0.000000
19.668500 0.000000
19.682700 0.000000
19.696900 0.000000
19.711100 0.000000
19.725400 0.000000
19.739600 0.000000
19.753800 0.000000
19.768000 0.000000
19.782300 0.000000
19.796500 0.000000
19.810700 0.000000
19.824900 0.000000
19.839200 0.000000
19.853400 0.000000
19.867600 0.000000
19.881800 0.000000
19.896100 0.000000
19.910300 0.000000
19.924500 0.000000
19.938800 0.000000
19.953000 0.000000
19.967200 0.000000
19.981400 0.000000
19.995700 0.000000
20.009900 0.000000
20.024100 0.000000
20.038300 0.000000
20.052600 0.000000
20.066800 0.000000
20.081000 0.000000
20.095200 0.000000
20.109500 0.000000
20.123700 0.000000
20.137900 0.000000
20.152100 0.000000
20.166400 0.000000
20.180600 0.000000
20.194800 0.000000
20.209000 0.000000
20.223300 0.000000
20.237500 0.000000
20.251700 0.000000
20.266000 0.000000
20.280200 0.000000
20.294400 0.000000
20.308600 0.000000
20.322900 0.000000
20.337100 0.000000
20.351300 0.000000
20.365500 0.000000
20.379800 0.000000
20.394000 0.000000
20.408200 0.000000
20.422400 0.000000
20.436700 0.000000
20.450900 0.000000
20.465100 0.000000
20.479300 0.000000
20.493600 0.000000
20.507800 0.000000
20.522000 0.000000
20.536300 0.000000
20.550500 0.000000
20.564700 0.000000
20.578900 0.000000
20.593200 0.000000
20.607400 0.000000
20.621600 0.000000
20.635800 0.000000
20.650100 0.000000
20.664300 0.000000
20.678500 0.000000
20.692700 0.000000
20.707000 0.000000
e
