set title 'mp-1220020 - Density of States'
set xlabel 'Energy (eV)'
set ylabel 'DOS (states/eV)'
set grid
set xrange [-10:10]
set yrange [0:5.969]
set xzeroaxis lt -1
set terminal png size 800,600
set output 'mp-1220020_dos_gnuplot.png'
plot '-' using 1:2 with lines title 'DOS'
-10.792200 0.000000
-10.772900 0.000000
-10.753600 0.000000
-10.734400 0.000000
-10.715100 0.000000
-10.695800 0.000000
-10.676600 0.000000
-10.657300 0.000000
-10.638000 0.000000
-10.618800 0.000000
-10.599500 0.000000
-10.580200 0.000000
-10.561000 0.000000
-10.541700 0.000000
-10.522400 0.000000
-10.503200 0.000000
-10.483900 0.000000
-10.464600 0.000000
-10.445400 0.000000
-10.426100 0.000000
-10.406800 0.000000
-10.387600 0.000000
-10.368300 0.000000
-10.349000 0.000000
-10.329800 0.000000
-10.310500 0.000000
-10.291200 0.000000
-10.272000 0.000000
-10.252700 0.000000
-10.233400 0.000000
-10.214200 0.000000
-10.194900 0.000000
-10.175600 0.000000
-10.156400 0.000000
-10.137100 0.000000
-10.117800 0.000000
-10.098600 0.000000
-10.079300 0.000000
-10.060000 0.000000
-10.040800 0.000000
-10.021500 0.000000
-10.002200 0.000000
-9.983000 0.000000
-9.963700 0.000000
-9.944400 0.000000
-9.925200 0.000000
-9.905900 0.000000
-9.886600 0.000000
-9.867400 0.000000
-9.848100 0.000000
-9.828800 0.000000
-9.809600 0.000000
-9.790300 0.000000
-9.771000 0.000000
-9.751800 0.000000
-9.732500 0.000000
-9.713200 0.000000
-9.694000 0.000000
-9.674700 0.000000
-9.655400 0.000000
-9.636200 0.000000
-9.616900 0.000000
-9.597600 0.000000
-9.578400 0.000000
-9.559100 0.000000
-9.539800 0.000000
-9.520600 0.000000
-9.501300 0.000000
-9.482000 0.000000
-9.462800 0.000000
-9.443500 0.000000
-9.424200 0.000000
-9.405000 0.000000
-9.385700 0.000000
-9.366400 0.000000
-9.347200 0.000000
-9.327900 0.000000
-9.308600 0.000000
-9.289400 0.000000
-9.270100 0.000000
-9.250800 0.000000
-9.231600 0.000000
-9.212300 0.000000
-9.193000 0.000000
-9.173800 0.000000
-9.154500 0.000200
-9.135200 0.001400
-9.116000 0.005800
-9.096700 0.018700
-9.077400 0.045700
-9.058200 0.086600
-9.038900 0.130800
-9.019600 0.169800
-9.000400 0.212800
-8.981100 0.279100
-8.961800 0.367300
-8.942600 0.442800
-8.923300 0.464500
-8.904000 0.425600
-8.884800 0.369300
-8.865500 0.354800
-8.846200 0.399500
-8.827000 0.470900
-8.807700 0.543700
-8.788400 0.640400
-8.769100 0.777400
-8.749900 0.890900
-8.730600 0.873800
-8.711300 0.705900
-8.692100 0.501800
-8.672800 0.404400
-8.653500 0.455500
-8.634300 0.580200
-8.615000 0.684500
-8.595700 0.754000
-8.576500 0.842500
-8.557200 0.973400
-8.537900 1.084100
-8.518700 1.088400
-8.499400 0.985500
-8.480100 0.882800
-8.460900 0.882500
-8.441600 0.968900
-8.422300 1.052000
-8.403100 1.088200
-8.383800 1.078500
-8.364500 0.996000
-8.345300 0.820200
-8.326000 0.622800
-8.306700 0.538800
-8.287500 0.643700
-8.268200 0.880100
-8.248900 1.121400
-8.229700 1.320200
-8.210400 1.546100
-8.191100 1.823700
-8.171900 1.998000
-8.152600 1.876800
-8.133300 1.485600
-8.114100 1.075200
-8.094800 0.875800
-8.075500 0.921200
-8.056300 1.103100
-8.037000 1.303700
-8.017700 1.430200
-7.998500 1.402700
-7.979200 1.219800
-7.959900 1.017800
-7.940700 0.976500
-7.921400 1.159500
-7.902100 1.478700
-7.882900 1.795500
-7.863600 2.025700
-7.844300 2.147200
-7.825100 2.161200
-7.805800 2.096600
-7.786500 2.026600
-7.767300 2.024800
-7.748000 2.107000
-7.728700 2.221900
-7.709500 2.262400
-7.690200 2.121800
-7.670900 1.819300
-7.651700 1.549400
-7.632400 1.530100
-7.613100 1.806300
-7.593900 2.214300
-7.574600 2.520600
-7.555300 2.619800
-7.536100 2.622200
-7.516800 2.732000
-7.497500 3.043200
-7.478300 3.456300
-7.459000 3.743800
-7.439700 3.706700
-7.420500 3.351000
-7.401200 2.895300
-7.381900 2.562400
-7.362700 2.410400
-7.343400 2.351400
-7.324100 2.245900
-7.304900 2.012600
-7.285600 1.731400
-7.266300 1.621500
-7.247100 1.870500
-7.227800 2.464500
-7.208500 3.182700
-7.189300 3.753400
-7.170000 4.026100
-7.150700 4.016400
-7.131500 3.799500
-7.112200 3.405700
-7.092900 2.899400
-7.073700 2.475300
-7.054400 2.306200
-7.035100 2.338600
-7.015900 2.378400
-6.996600 2.330300
-6.977300 2.250400
-6.958100 2.199200
-6.938800 2.140900
-6.919500 2.001200
-6.900300 1.780100
-6.881000 1.575300
-6.861700 1.493100
-6.842500 1.551100
-6.823200 1.658000
-6.803900 1.682600
-6.784700 1.566500
-6.765400 1.376000
-6.746100 1.228600
-6.726900 1.171000
-6.707600 1.157100
-6.688300 1.128200
-6.669100 1.066000
-6.649800 0.979300
-6.630500 0.891200
-6.611300 0.834900
-6.592000 0.821100
-6.572700 0.812000
-6.553500 0.760700
-6.534200 0.667900
-6.514900 0.575900
-6.495700 0.518600
-6.476400 0.491900
-6.457100 0.462300
-6.437900 0.403500
-6.418600 0.322900
-6.399300 0.244100
-6.380100 0.175900
-6.360800 0.114800
-6.341500 0.063000
-6.322300 0.027600
-6.303000 0.009400
-6.283700 0.002500
-6.264500 0.000500
-6.245200 0.000100
-6.225900 0.000000
-6.206700 0.000300
-6.187400 0.002200
-6.168100 0.012000
-6.148900 0.049000
-6.129600 0.150900
-6.110300 0.352900
-6.091100 0.632200
-6.071800 0.884400
-6.052500 1.010600
-6.033300 1.045200
-6.014000 1.147500
-5.994700 1.436600
-5.975500 1.846800
-5.956200 2.168300
-5.936900 2.246800
-5.917700 2.116400
-5.898400 1.919200
-5.879100 1.746800
-5.859900 1.589300
-5.840600 1.387500
-5.821300 1.115700
-5.802100 0.829900
-5.782800 0.632700
-5.763500 0.601200
-5.744300 0.757200
-5.725000 1.066100
-5.705700 1.416400
-5.686500 1.631500
-5.667200 1.572000
-5.647900 1.247400
-5.628700 0.815100
-5.609400 0.469400
-5.590100 0.327100
-5.570900 0.388200
-5.551600 0.563400
-5.532300 0.732200
-5.513100 0.809600
-5.493800 0.787500
-5.474500 0.726700
-5.455300 0.713400
-5.436000 0.806400
-5.416700 0.988600
-5.397500 1.145900
-5.378200 1.137000
-5.358900 0.938100
-5.339700 0.703800
-5.320400 0.644000
-5.301100 0.847400
-5.281900 1.213200
-5.262600 1.515200
-5.243300 1.547900
-5.224100 1.274700
-5.204800 0.860900
-5.185500 0.543600
-5.166300 0.456600
-5.147000 0.561300
-5.127700 0.715600
-5.108500 0.809200
-5.089200 0.844200
-5.069900 0.884800
-5.050700 0.948900
-5.031400 0.983900
-5.012100 0.945900
-4.992900 0.872800
-4.973600 0.853500
-4.954300 0.924500
-4.935100 1.024100
-4.915800 1.052500
-4.896500 0.958000
-4.877300 0.777200
-4.858000 0.612400
-4.838700 0.549700
-4.819500 0.588000
-4.800200 0.662600
-4.780900 0.731700
-4.761700 0.826900
-4.742400 1.002100
-4.723100 1.230700
-4.703900 1.391400
-4.684600 1.404300
-4.665300 1.356900
-4.646100 1.417500
-4.626800 1.621300
-4.607500 1.812900
-4.588300 1.811200
-4.569000 1.564900
-4.549700 1.164000
-4.530500 0.787800
-4.511200 0.629000
-4.491900 0.774300
-4.472700 1.120100
-4.453400 1.431000
-4.434100 1.528700
-4.414900 1.415800
-4.395600 1.214000
-4.376300 1.047600
-4.357100 0.994800
-4.337800 1.065200
-4.318500 1.214700
-4.299300 1.417800
-4.280000 1.671300
-4.260700 1.903300
-4.241500 1.979400
-4.222200 1.835200
-4.202900 1.543000
-4.183700 1.255000
-4.164400 1.125700
-4.145100 1.249100
-4.125900 1.601600
-4.106600 2.025300
-4.087300 2.313400
-4.068100 2.372000
-4.048800 2.292700
-4.029500 2.250700
-4.010300 2.363000
-3.991000 2.636400
-3.971700 3.003900
-3.952500 3.396300
-3.933200 3.775700
-3.913900 4.091400
-3.894700 4.250800
-3.875400 4.195500
-3.856100 3.982100
-3.836900 3.720400
-3.817600 3.456200
-3.798300 3.184200
-3.779100 2.940000
-3.759800 2.804400
-3.740500 2.833300
-3.721300 2.992600
-3.702000 3.154000
-3.682700 3.187500
-3.663500 3.061800
-3.644200 2.829000
-3.624900 2.557300
-3.605700 2.317300
-3.586400 2.177500
-3.567100 2.148600
-3.547900 2.156200
-3.528600 2.133200
-3.509300 2.120100
-3.490100 2.180200
-3.470800 2.240200
-3.451500 2.159600
-3.432300 1.949900
-3.413000 1.783000
-3.393700 1.784400
-3.374500 1.927500
-3.355200 2.100500
-3.335900 2.190400
-3.316700 2.138100
-3.297400 1.974800
-3.278100 1.788300
-3.258900 1.642100
-3.239600 1.554300
-3.220300 1.544500
-3.201100 1.650800
-3.181800 1.884500
-3.162500 2.186200
-3.143300 2.445300
-3.124000 2.581600
-3.104700 2.605900
-3.085500 2.600600
-3.066200 2.638600
-3.046900 2.697400
-3.027700 2.664400
-3.008400 2.461000
-2.989100 2.135400
-2.969900 1.800700
-2.950600 1.531500
-2.931300 1.338100
-2.912100 1.196300
-2.892800 1.098800
-2.873500 1.097900
-2.854300 1.265100
-2.835000 1.566900
-2.815700 1.807800
-2.796500 1.777600
-2.777200 1.463100
-2.757900 1.058500
-2.738700 0.783300
-2.719400 0.734700
-2.700100 0.890200
-2.680900 1.190200
-2.661600 1.580000
-2.642300 1.988100
-2.623100 2.331200
-2.603800 2.544200
-2.584500 2.553500
-2.565300 2.272800
-2.546000 1.722200
-2.526700 1.090700
-2.507500 0.600000
-2.488200 0.353200
-2.468900 0.326500
-2.449700 0.427100
-2.430400 0.545400
-2.411100 0.621800
-2.391900 0.688800
-2.372600 0.818000
-2.353300 1.016700
-2.334100 1.188500
-2.314800 1.210700
-2.295500 1.064300
-2.276300 0.877100
-2.257000 0.812700
-2.237700 0.922200
-2.218500 1.103800
-2.199200 1.189600
-2.179900 1.087600
-2.160700 0.866400
-2.141400 0.710200
-2.122100 0.788000
-2.102900 1.130300
-2.083600 1.582200
-2.064300 1.900500
-2.045100 1.950700
-2.025800 1.790300
-2.006500 1.536500
-1.987300 1.229400
-1.968000 0.885000
-1.948700 0.593500
-1.929500 0.473900
-1.910200 0.562600
-1.890900 0.797300
-1.871700 1.090300
-1.852400 1.377000
-1.833100 1.588400
-1.813900 1.628900
-1.794600 1.447700
-1.775300 1.119800
-1.756100 0.813700
-1.736800 0.681600
-1.717500 0.777100
-1.698300 1.044300
-1.679000 1.372700
-1.659700 1.672000
-1.640500 1.898200
-1.621200 2.034400
-1.601900 2.075000
-1.582700 2.012900
-1.563400 1.841100
-1.544100 1.609600
-1.524900 1.463900
-1.505600 1.536900
-1.486300 1.781500
-1.467100 1.977300
-1.447800 1.936300
-1.428500 1.665800
-1.409300 1.332700
-1.390000 1.116400
-1.370700 1.077600
-1.351500 1.116500
-1.332200 1.071000
-1.312900 0.879200
-1.293700 0.616800
-1.274400 0.385400
-1.255100 0.228700
-1.235900 0.155600
-1.216600 0.178100
-1.197300 0.299700
-1.178100 0.490400
-1.158800 0.696200
-1.139500 0.879100
-1.120300 1.040600
-1.101000 1.210600
-1.081700 1.406500
-1.062500 1.581900
-1.043200 1.637600
-1.023900 1.526300
-1.004700 1.321900
-0.985400 1.146000
-0.966100 1.049700
-0.946900 0.989400
-0.927600 0.896100
-0.908300 0.758800
-0.889100 0.653000
-0.869800 0.675900
-0.850500 0.824000
-0.831300 0.960300
-0.812000 0.947600
-0.792700 0.799500
-0.773500 0.668100
-0.754200 0.701400
-0.734900 0.908900
-0.715700 1.131200
-0.696400 1.165800
-0.677100 0.956000
-0.657900 0.627000
-0.638600 0.349900
-0.619300 0.227700
-0.600100 0.292300
-0.580800 0.518600
-0.561500 0.806000
-0.542300 1.011000
-0.523000 1.054100
-0.503700 0.963500
-0.484500 0.797100
-0.465200 0.592800
-0.445900 0.400700
-0.426700 0.276500
-0.407400 0.223800
-0.388100 0.193200
-0.368900 0.147300
-0.349600 0.095600
-0.330300 0.070200
-0.311100 0.088000
-0.291800 0.135200
-0.272500 0.174000
-0.253300 0.170500
-0.234000 0.125400
-0.214700 0.069000
-0.195500 0.028500
-0.176200 0.008800
-0.156900 0.002000
-0.137700 0.000300
-0.118400 0.000000
-0.099100 0.000000
-0.079900 0.000100
-0.060600 0.000700
-0.041300 0.003300
-0.022100 0.012600
-0.002800 0.037300
0.016500 0.086500
0.035700 0.158800
0.055000 0.236400
0.074300 0.300400
0.093500 0.360300
0.112800 0.449000
0.132100 0.565500
0.151300 0.646100
0.170600 0.643500
0.189900 0.626500
0.209100 0.736600
0.228400 1.013600
0.247700 1.303000
0.266900 1.394100
0.286200 1.266600
0.305500 1.163400
0.324700 1.387600
0.344000 2.027100
0.363300 2.866800
0.382500 3.571900
0.401800 3.963100
0.421100 4.068500
0.440300 3.934800
0.459600 3.547600
0.478900 2.972700
0.498100 2.394300
0.517400 1.945300
0.536700 1.627200
0.555900 1.426200
0.575200 1.392200
0.594500 1.570000
0.613700 1.916800
0.633000 2.320400
0.652300 2.690400
0.671500 2.995800
0.690800 3.192000
0.710100 3.185900
0.729300 2.942600
0.748600 2.565900
0.767900 2.218300
0.787100 2.007400
0.806400 1.976500
0.825700 2.128200
0.844900 2.380600
0.864200 2.556300
0.883500 2.537600
0.902700 2.414300
0.922000 2.364100
0.941300 2.412800
0.960500 2.445900
0.979800 2.424000
0.999100 2.423800
1.018400 2.463500
1.037600 2.423700
1.056900 2.199400
1.076200 1.870100
1.095400 1.672600
1.114700 1.797800
1.134000 2.231400
1.153200 2.787300
1.172500 3.244200
1.191800 3.438700
1.211000 3.340100
1.230300 3.130200
1.249600 3.126500
1.268800 3.498400
1.288100 4.075300
1.307400 4.496400
1.326600 4.519800
1.345900 4.156600
1.365200 3.589800
1.384400 3.038000
1.403700 2.643700
1.423000 2.420300
1.442200 2.292200
1.461500 2.178800
1.480800 2.047400
1.500000 1.936800
1.519300 1.956100
1.538600 2.196200
1.557800 2.597700
1.577100 2.966200
1.596400 3.167300
1.615600 3.233400
1.634900 3.232400
1.654200 3.136400
1.673400 2.896300
1.692700 2.572000
1.712000 2.334300
1.731200 2.361000
1.750500 2.700800
1.769800 3.205900
1.789000 3.637300
1.808300 3.843900
1.827600 3.817300
1.846800 3.624600
1.866100 3.346300
1.885400 3.060400
1.904600 2.834900
1.923900 2.707800
1.943200 2.673900
1.962400 2.695700
1.981700 2.736600
2.001000 2.795700
2.020200 2.896500
2.039500 3.020800
2.058800 3.073600
2.078000 2.973000
2.097300 2.789000
2.116600 2.724900
2.135800 2.911000
2.155100 3.285200
2.174400 3.699400
2.193600 4.021300
2.212900 4.104900
2.232200 3.835800
2.251400 3.308600
2.270700 2.857700
2.290000 2.795100
2.309200 3.116600
2.328500 3.532300
2.347800 3.785000
2.367000 3.844200
2.386300 3.765300
2.405600 3.511900
2.424800 3.034700
2.444100 2.440800
2.463400 1.955800
2.482600 1.749000
2.501900 1.873200
2.521200 2.311000
2.540400 2.951400
2.559700 3.544500
2.579000 3.845800
2.598200 3.848400
2.617500 3.748000
2.636800 3.667800
2.656000 3.529400
2.675300 3.197400
2.694600 2.678500
2.713800 2.156200
2.733100 1.854200
2.752400 1.884900
2.771600 2.200900
2.790900 2.619900
2.810200 2.890600
2.829400 2.828100
2.848700 2.456600
2.868000 2.010000
2.887200 1.768500
2.906500 1.862200
2.925800 2.197700
2.945000 2.574100
2.964300 2.858100
2.983600 3.024900
3.002800 3.074300
3.022100 2.989000
3.041400 2.800500
3.060600 2.649600
3.079900 2.704200
3.099200 2.985900
3.118400 3.318400
3.137700 3.479600
3.157000 3.396000
3.176200 3.214400
3.195500 3.197300
3.214800 3.483100
3.234000 3.909700
3.253300 4.126000
3.272600 3.902400
3.291800 3.302000
3.311100 2.581400
3.330400 1.990100
3.349600 1.646500
3.368900 1.540200
3.388200 1.613600
3.407400 1.825100
3.426700 2.153800
3.446000 2.578900
3.465200 3.049200
3.484500 3.447800
3.503800 3.634900
3.523000 3.568700
3.542300 3.345100
3.561600 3.108200
3.580800 2.952900
3.600100 2.866400
3.619400 2.750600
3.638600 2.582800
3.657900 2.547400
3.677200 2.876800
3.696400 3.544000
3.715700 4.228700
3.735000 4.599400
3.754200 4.532800
3.773500 4.107400
3.792800 3.531000
3.812000 3.051200
3.831300 2.807500
3.850600 2.753500
3.869800 2.779600
3.889100 2.882700
3.908400 3.156600
3.927600 3.648000
3.946900 4.264000
3.966200 4.760500
3.985400 4.824200
4.004700 4.324000
4.024000 3.534400
4.043200 2.983300
4.062500 3.004100
4.081800 3.471400
4.101000 3.967600
4.120300 4.158500
4.139600 3.997800
4.158800 3.627100
4.178100 3.182400
4.197400 2.770500
4.216600 2.572500
4.235900 2.812700
4.255200 3.535200
4.274400 4.456200
4.293700 5.120300
4.313000 5.236800
4.332200 4.870900
4.351500 4.341700
4.370800 3.966300
4.390000 3.870500
4.409300 3.970100
4.428600 4.090800
4.447800 4.122800
4.467100 4.073400
4.486400 3.988800
4.505600 3.892300
4.524900 3.816800
4.544200 3.810300
4.563400 3.866400
4.582700 3.892000
4.602000 3.777800
4.621200 3.522200
4.640500 3.278700
4.659800 3.224700
4.679000 3.402500
4.698300 3.731900
4.717600 4.091600
4.736800 4.319400
4.756100 4.251900
4.775400 3.846400
4.794600 3.232900
4.813900 2.664400
4.833200 2.406100
4.852400 2.579500
4.871700 3.075100
4.891000 3.651600
4.910200 4.145600
4.929500 4.575000
4.948800 5.004900
4.968000 5.350000
4.987300 5.426800
5.006600 5.196300
5.025800 4.829200
5.045100 4.514200
5.064400 4.312800
5.083600 4.200900
5.102900 4.138000
5.122200 4.061600
5.141400 3.915800
5.160700 3.736400
5.180000 3.610700
5.199200 3.521600
5.218500 3.358900
5.237800 3.111800
5.257000 2.907600
5.276300 2.832500
5.295600 2.843700
5.314800 2.884700
5.334100 2.985500
5.353400 3.182100
5.372600 3.368700
5.391900 3.330800
5.411200 2.980600
5.430400 2.503500
5.449700 2.211500
5.469000 2.262300
5.488200 2.538400
5.507500 2.793500
5.526800 2.876500
5.546000 2.797800
5.565300 2.646000
5.584600 2.481400
5.603800 2.297200
5.623100 2.086900
5.642400 1.927800
5.661600 1.930700
5.680900 2.110200
5.700200 2.370700
5.719400 2.615200
5.738700 2.814000
5.758000 2.982800
5.777200 3.125000
5.796500 3.178000
5.815800 3.049700
5.835000 2.759400
5.854300 2.479800
5.873600 2.364500
5.892800 2.364500
5.912100 2.278600
5.931400 1.987800
5.950600 1.585500
5.969900 1.263100
5.989200 1.128300
6.008400 1.157000
6.027700 1.264400
6.047000 1.392700
6.066200 1.549500
6.085500 1.764000
6.104800 2.007800
6.124000 2.198600
6.143300 2.298200
6.162600 2.344200
6.181800 2.362100
6.201100 2.335000
6.220400 2.275200
6.239600 2.213700
6.258900 2.114000
6.278200 1.900300
6.297400 1.584800
6.316700 1.291900
6.336000 1.149100
6.355200 1.196700
6.374500 1.403300
6.393800 1.724200
6.413000 2.130000
6.432300 2.614400
6.451600 3.159100
6.470800 3.640700
6.490100 3.822700
6.509400 3.552500
6.528600 2.946000
6.547900 2.288500
6.567200 1.797300
6.586400 1.553300
6.605700 1.585000
6.625000 1.910400
6.644200 2.489500
6.663500 3.144700
6.682800 3.561000
6.702000 3.480100
6.721300 2.962300
6.740600 2.380800
6.759800 2.116000
6.779100 2.289800
6.798400 2.753000
6.817600 3.224200
6.836900 3.438100
6.856200 3.270000
6.875400 2.799400
6.894700 2.268300
6.914000 1.932700
6.933200 1.890300
6.952500 2.044700
6.971800 2.227300
6.991000 2.319000
7.010300 2.304800
7.029600 2.307000
7.048800 2.516600
7.068100 2.966800
7.087400 3.405500
7.106600 3.501800
7.125900 3.159500
7.145200 2.578900
7.164400 2.075200
7.183700 1.859700
7.203000 1.916200
7.222200 2.036100
7.241500 2.004800
7.260800 1.795200
7.280000 1.580500
7.299300 1.555000
7.318600 1.750000
7.337800 2.012600
7.357100 2.139300
7.376400 2.022700
7.395600 1.707100
7.414900 1.356100
7.434200 1.169000
7.453400 1.263500
7.472700 1.601700
7.492000 2.029200
7.511200 2.380600
7.530500 2.545900
7.549800 2.481100
7.569000 2.213300
7.588300 1.846200
7.607600 1.502400
7.626800 1.233200
7.646100 1.006900
7.665400 0.800400
7.684600 0.677400
7.703900 0.756900
7.723200 1.103200
7.742400 1.655600
7.761700 2.264500
7.781000 2.777300
7.800200 3.088300
7.819500 3.149700
7.838800 2.974400
7.858000 2.622500
7.877300 2.200600
7.896600 1.871700
7.915800 1.787000
7.935100 1.957900
7.954400 2.234400
7.973600 2.431600
7.992900 2.481700
8.012200 2.455000
8.031400 2.431300
8.050700 2.409400
8.070000 2.367400
8.089200 2.320800
8.108500 2.276300
8.127800 2.209000
8.147000 2.126300
8.166300 2.105100
8.185600 2.230700
8.204800 2.509900
8.224100 2.860000
8.243400 3.173600
8.262600 3.383300
8.281900 3.477400
8.301200 3.473800
8.320400 3.371700
8.339700 3.124200
8.359000 2.695300
8.378200 2.157300
8.397500 1.670200
8.416800 1.343700
8.436000 1.193800
8.455300 1.230000
8.474600 1.486800
8.493800 1.935300
8.513100 2.420700
8.532400 2.749800
8.551600 2.849800
8.570900 2.810800
8.590200 2.787900
8.609400 2.893700
8.628700 3.132600
8.648000 3.403500
8.667200 3.601800
8.686500 3.698100
8.705800 3.708400
8.725000 3.651400
8.744300 3.570700
8.763600 3.557500
8.782800 3.685900
8.802100 3.902100
8.821400 4.036500
8.840600 3.966300
8.859900 3.727200
8.879200 3.468700
8.898400 3.353800
8.917700 3.483100
8.937000 3.858400
8.956200 4.384900
8.975500 4.880000
8.994800 5.111600
9.014000 4.956100
9.033300 4.566700
9.052600 4.282400
9.071800 4.312400
9.091100 4.558700
9.110400 4.764500
9.129600 4.793400
9.148900 4.731600
9.168200 4.724900
9.187400 4.764700
9.206700 4.674900
9.226000 4.318800
9.245200 3.769600
9.264500 3.233500
9.283800 2.850800
9.303000 2.624700
9.322300 2.508900
9.341600 2.523700
9.360800 2.741900
9.380100 3.149000
9.399400 3.584600
9.418600 3.852900
9.437900 3.853700
9.457200 3.629400
9.476400 3.318800
9.495700 3.055600
9.515000 2.905700
9.534200 2.866500
9.553500 2.882600
9.572800 2.892000
9.592000 2.885600
9.611300 2.908100
9.630600 3.012100
9.649800 3.226100
9.669100 3.547100
9.688400 3.926800
9.707600 4.248800
9.726900 4.371900
9.746200 4.257800
9.765400 4.009500
9.784700 3.732800
9.804000 3.442700
9.823200 3.169200
9.842500 3.043500
9.861800 3.191700
9.881000 3.604400
9.900300 4.136000
9.919600 4.575200
9.938800 4.744700
9.958100 4.614400
9.977400 4.330300
9.996600 4.123600
10.015900 4.162200
10.035200 4.409600
10.054400 4.618900
10.073700 4.537300
10.093000 4.108300
10.112200 3.469200
10.131500 2.823100
10.150800 2.322800
10.170000 2.007200
10.189300 1.835600
10.208600 1.795700
10.227800 1.940800
10.247100 2.294700
10.266400 2.772400
10.285600 3.223900
10.304900 3.515700
10.324200 3.577400
10.343400 3.420100
10.362700 3.109700
10.382000 2.727600
10.401200 2.391800
10.420500 2.259100
10.439800 2.426000
10.459000 2.834400
10.478300 3.289300
10.497600 3.560200
10.516800 3.522200
10.536100 3.261300
10.555400 2.999400
10.574600 2.891800
10.593900 2.939500
10.613200 3.053500
10.632400 3.125300
10.651700 3.078900
10.671000 2.914000
10.690200 2.696400
10.709500 2.518900
10.728800 2.468200
10.748000 2.580600
10.767300 2.799600
10.786600 3.007000
10.805900 3.138000
10.825100 3.241300
10.844400 3.361900
10.863700 3.418600
10.882900 3.292800
10.902200 2.980800
10.921500 2.582400
10.940700 2.226700
10.960000 2.064200
10.979300 2.206400
10.998500 2.589000
11.017800 2.970300
11.037100 3.140300
11.056300 3.114000
11.075600 3.084000
11.094900 3.195600
11.114100 3.414400
11.133400 3.599200
11.152700 3.620100
11.171900 3.407700
11.191200 3.010400
11.210500 2.625700
11.229700 2.460500
11.249000 2.535400
11.268300 2.687900
11.287500 2.777200
11.306800 2.849400
11.326100 3.047900
11.345300 3.378600
11.364600 3.667200
11.383900 3.759300
11.403100 3.642700
11.422400 3.392200
11.441700 3.127500
11.460900 3.000100
11.480200 3.095700
11.499500 3.343100
11.518700 3.563100
11.538000 3.587100
11.557300 3.343100
11.576500 2.909200
11.595800 2.510800
11.615100 2.387100
11.634300 2.592600
11.653600 2.948600
11.672900 3.250000
11.692100 3.491900
11.711400 3.800300
11.730700 4.161600
11.749900 4.381800
11.769200 4.328500
11.788500 4.063900
11.807700 3.742000
11.827000 3.479200
11.846300 3.316400
11.865500 3.254000
11.884800 3.283700
11.904100 3.362800
11.923300 3.423600
11.942600 3.479600
11.961900 3.650400
11.981100 3.985700
12.000400 4.312300
12.019700 4.359100
12.038900 4.030000
12.058200 3.460000
12.077500 2.818600
12.096700 2.204100
12.116000 1.741400
12.135300 1.587100
12.154500 1.749100
12.173800 2.031600
12.193100 2.261400
12.212300 2.487600
12.231600 2.855400
12.250900 3.344300
12.270100 3.754000
12.289400 3.935000
12.308700 3.937900
12.327900 3.911000
12.347200 3.897700
12.366500 3.775800
12.385700 3.421100
12.405000 2.897100
12.424300 2.411500
12.443500 2.105100
12.462800 1.970400
12.482100 1.958000
12.501300 2.061800
12.520600 2.294300
12.539900 2.651500
12.559100 3.088400
12.578400 3.472500
12.597700 3.637500
12.616900 3.566100
12.636200 3.413700
12.655500 3.280900
12.674700 3.102000
12.694000 2.842900
12.713300 2.677500
12.732500 2.847400
12.751800 3.390800
12.771100 4.073400
12.790300 4.564000
12.809600 4.672800
12.828900 4.463200
12.848100 4.154400
12.867400 3.919800
12.886700 3.758700
12.905900 3.539400
12.925200 3.196400
12.944500 2.877800
12.963700 2.819000
12.983000 3.072000
13.002300 3.421200
13.021500 3.576300
13.040800 3.426800
13.060100 3.121000
13.079300 2.936400
13.098600 3.094000
13.117900 3.606800
13.137100 4.218400
13.156400 4.560500
13.175700 4.451700
13.194900 3.993900
13.214200 3.404400
13.233500 2.848700
13.252700 2.414900
13.272000 2.170800
13.291300 2.173600
13.310500 2.367700
13.329800 2.537800
13.349100 2.482900
13.368300 2.222100
13.387600 1.948500
13.406900 1.815500
13.426100 1.838700
13.445400 1.964400
13.464700 2.145900
13.483900 2.340800
13.503200 2.493200
13.522500 2.570100
13.541700 2.610500
13.561000 2.687100
13.580300 2.822500
13.599500 2.981800
13.618800 3.114100
13.638100 3.159500
13.657300 3.070800
13.676600 2.873200
13.695900 2.672100
13.715100 2.568500
13.734400 2.589400
13.753700 2.714900
13.772900 2.917300
13.792200 3.130400
13.811500 3.243900
13.830700 3.194800
13.850000 3.009100
13.869300 2.719900
13.888500 2.333800
13.907800 1.932500
13.927100 1.709400
13.946300 1.806400
13.965600 2.139300
13.984900 2.456900
14.004100 2.578000
14.023400 2.515300
14.042700 2.370300
14.061900 2.224800
14.081200 2.165800
14.100500 2.264300
14.119700 2.456600
14.139000 2.567600
14.158300 2.514600
14.177500 2.404200
14.196800 2.394500
14.216100 2.538900
14.235300 2.788000
14.254600 3.063700
14.273900 3.287900
14.293100 3.397700
14.312400 3.389000
14.331700 3.309400
14.350900 3.176300
14.370200 2.957500
14.389500 2.663600
14.408700 2.381500
14.428000 2.187500
14.447300 2.075900
14.466500 1.977000
14.485800 1.831800
14.505100 1.687300
14.524300 1.714700
14.543600 2.060700
14.562900 2.637100
14.582100 3.111900
14.601400 3.198200
14.620700 2.948000
14.639900 2.685100
14.659200 2.660200
14.678500 2.837900
14.697700 2.998000
14.717000 2.980600
14.736300 2.829500
14.755500 2.721900
14.774800 2.762200
14.794100 2.885000
14.813300 2.995800
14.832600 3.130300
14.851900 3.377300
14.871100 3.719000
14.890400 4.047000
14.909700 4.272100
14.928900 4.347100
14.948200 4.251100
14.967500 3.996100
14.986700 3.616800
15.006000 3.151200
15.025300 2.631400
15.044500 2.095200
15.063800 1.624000
15.083100 1.340400
15.102300 1.324500
15.121600 1.552100
15.140900 1.926000
15.160100 2.336700
15.179400 2.700100
15.198700 2.958600
15.217900 3.065100
15.237200 2.984900
15.256500 2.724300
15.275700 2.351300
15.295000 1.977700
15.314300 1.713100
15.333500 1.642900
15.352800 1.827300
15.372100 2.260600
15.391300 2.818700
15.410600 3.265600
15.429900 3.347600
15.449100 2.973600
15.468400 2.351000
15.487700 1.879500
15.506900 1.836100
15.526200 2.162200
15.545500 2.551400
15.564700 2.731900
15.584000 2.682000
15.603300 2.585800
15.622500 2.593300
15.641800 2.662000
15.661100 2.642400
15.680300 2.493500
15.699600 2.366400
15.718900 2.445900
15.738100 2.749300
15.757400 3.128900
15.776700 3.435000
15.795900 3.603300
15.815200 3.597800
15.834500 3.387800
15.853700 3.035300
15.873000 2.697400
15.892300 2.489800
15.911500 2.415800
15.930800 2.430900
15.950100 2.500600
15.969300 2.596000
15.988600 2.676000
16.007900 2.711100
16.027100 2.741600
16.046400 2.848700
16.065700 3.018800
16.084900 3.119400
16.104200 3.067700
16.123500 2.932100
16.142700 2.835300
16.162000 2.851700
16.181300 2.999200
16.200500 3.204100
16.219800 3.283300
16.239100 3.099700
16.258300 2.727400
16.277600 2.351700
16.296900 2.051100
16.316100 1.780800
16.335400 1.516400
16.354700 1.323900
16.373900 1.331600
16.393200 1.684000
16.412500 2.440200
16.431700 3.439300
16.451000 4.334700
16.470300 4.830600
16.489500 4.831000
16.508800 4.402200
16.528100 3.749200
16.547300 3.203200
16.566600 3.048400
16.585900 3.301100
16.605100 3.729700
16.624400 4.107000
16.643700 4.359700
16.662900 4.485000
16.682200 4.469100
16.701500 4.319000
16.720700 4.082300
16.740000 3.826500
16.759300 3.619800
16.778500 3.494800
16.797800 3.435800
16.817100 3.430900
16.836300 3.497600
16.855600 3.631300
16.874900 3.784200
16.894100 3.913800
16.913400 4.020800
16.932700 4.149900
16.951900 4.367800
16.971200 4.683300
16.990500 4.957500
17.009700 4.989600
17.029000 4.757200
17.048300 4.470000
17.067500 4.309600
17.086800 4.230400
17.106100 4.107600
17.125300 3.956700
17.144600 3.866300
17.163900 3.782000
17.183100 3.537200
17.202400 3.117000
17.221700 2.758500
17.240900 2.741800
17.260200 3.143300
17.279500 3.788800
17.298700 4.395200
17.318000 4.772200
17.337300 4.939400
17.356500 5.045700
17.375800 5.182800
17.395100 5.342900
17.414300 5.536900
17.433600 5.832800
17.452900 6.242200
17.472100 6.663900
17.491400 6.968000
17.510700 7.015100
17.529900 6.600600
17.549200 5.602200
17.568500 4.250800
17.587700 3.085600
17.607000 2.557000
17.626300 2.700800
17.645500 3.185300
17.664800 3.623200
17.684100 3.824600
17.703300 3.810900
17.722600 3.682200
17.741900 3.502000
17.761100 3.306200
17.780400 3.192300
17.799700 3.312500
17.818900 3.737200
17.838200 4.364300
17.857500 4.944800
17.876700 5.199100
17.896000 5.012400
17.915300 4.520100
17.934500 3.913400
17.953800 3.262800
17.973100 2.647600
17.992300 2.271900
18.011600 2.288100
18.030900 2.635600
18.050100 3.120200
18.069400 3.542000
18.088700 3.764000
18.107900 3.782200
18.127200 3.722100
18.146500 3.706800
18.165700 3.746200
18.185000 3.777700
18.204300 3.781400
18.223500 3.805300
18.242800 3.883800
18.262100 3.970600
18.281300 3.942100
18.300600 3.673700
18.319900 3.202100
18.339100 2.820500
18.358400 2.864600
18.377700 3.326200
18.396900 3.790000
18.416200 3.863400
18.435500 3.585100
18.454700 3.298900
18.474000 3.215400
18.493300 3.250800
18.512500 3.238600
18.531800 3.130200
18.551100 2.988600
18.570300 2.919100
18.589600 3.021800
18.608900 3.312900
18.628100 3.692900
18.647400 4.056800
18.666700 4.383800
18.685900 4.644900
18.705200 4.725500
18.724500 4.581600
18.743700 4.416100
18.763000 4.542100
18.782300 5.063600
18.801500 5.776900
18.820800 6.326900
18.840100 6.389400
18.859300 5.837800
18.878600 4.875400
18.897900 3.932900
18.917100 3.356400
18.936400 3.240600
18.955700 3.515900
18.974900 4.026100
18.994200 4.509300
19.013500 4.690900
19.032700 4.491200
19.052000 4.065500
19.071300 3.616200
19.090500 3.242400
19.109800 2.963300
19.129100 2.774200
19.148300 2.646100
19.167600 2.566400
19.186900 2.640100
19.206100 3.060100
19.225400 3.860200
19.244700 4.744300
19.263900 5.267500
19.283200 5.204800
19.302500 4.745400
19.321700 4.345600
19.341000 4.351800
19.360300 4.730900
19.379500 5.145100
19.398800 5.245500
19.418100 4.925700
19.437300 4.358100
19.456600 3.805600
19.475900 3.421500
19.495100 3.223000
19.514400 3.176000
19.533700 3.249900
19.552900 3.406800
19.572200 3.585700
19.591500 3.742100
19.610700 3.883400
19.630000 4.017300
19.649300 4.097100
19.668500 4.085100
19.687800 4.056700
19.707100 4.181100
19.726300 4.553700
19.745600 5.036200
19.764900 5.317000
19.784100 5.193100
19.803400 4.759700
19.822700 4.281900
19.841900 3.940500
19.861200 3.741500
19.880500 3.605000
19.899700 3.475400
19.919000 3.336800
19.938300 3.160300
19.957500 2.917800
19.976800 2.688100
19.996100 2.680000
20.015300 3.062200
20.034600 3.761000
20.053900 4.460400
20.073100 4.817700
20.092400 4.720600
20.111700 4.346800
20.130900 3.928800
20.150200 3.530600
20.169500 3.143600
20.188700 2.879100
20.208000 2.915100
20.227300 3.276600
20.246500 3.751200
20.265800 4.065200
20.285100 4.138500
20.304300 4.152800
20.323600 4.370500
20.342900 4.875400
20.362100 5.499200
20.381400 6.016600
20.400700 6.335400
20.419900 6.443700
20.439200 6.281700
20.458500 5.787800
20.477700 5.036900
20.497000 4.255200
20.516300 3.708300
20.535500 3.588500
20.554800 3.920200
20.574100 4.486800
20.593400 4.906900
20.612600 4.902400
20.631900 4.539600
20.651200 4.186600
20.670400 4.167000
20.689700 4.427700
20.709000 4.621900
20.728200 4.512400
20.747500 4.164000
20.766800 3.790900
20.786000 3.581100
20.805300 3.638700
20.824600 3.960200
20.843800 4.418600
20.863100 4.815700
20.882400 5.016300
20.901600 5.022000
20.920900 4.916300
20.940200 4.815200
20.959400 4.856800
20.978700 5.112700
20.998000 5.489300
21.017200 5.784200
21.036500 5.858800
21.055800 5.692200
21.075000 5.278100
21.094300 4.635900
21.113600 3.970300
21.132800 3.603800
21.152100 3.643100
21.171400 3.854200
21.190600 3.962200
21.209900 4.002600
21.229200 4.273300
21.248400 4.929400
21.267700 5.727000
21.287000 6.249700
21.306200 6.299800
21.325500 5.990900
21.344800 5.582100
21.364000 5.303400
21.383300 5.220400
21.402600 5.187700
21.421800 4.997500
21.441100 4.615700
21.460400 4.207600
21.479600 3.927000
21.498900 3.793700
21.518200 3.772600
21.537400 3.812100
21.556700 3.803800
21.576000 3.669900
21.595200 3.515800
21.614500 3.562700
21.633800 3.887100
21.653000 4.313700
21.672300 4.604500
21.691600 4.687100
21.710800 4.649800
21.730100 4.581800
21.749400 4.505100
21.768600 4.426000
21.787900 4.380100
21.807200 4.412800
21.826400 4.502700
21.845700 4.538200
21.865000 4.455100
21.884200 4.365800
21.903500 4.439300
21.922800 4.676600
21.942000 4.899200
21.961300 4.950400
21.980600 4.827800
21.999800 4.613000
22.019100 4.367100
22.038400 4.138600
22.057600 3.971800
22.076900 3.846900
22.096200 3.727100
22.115400 3.695200
22.134700 3.917100
22.154000 4.434600
22.173200 5.033700
22.192500 5.336200
22.211800 5.091500
22.231000 4.411400
22.250300 3.673300
22.269600 3.221200
22.288800 3.172200
22.308100 3.409600
22.327400 3.705500
22.346600 3.905000
22.365900 4.016600
22.385200 4.104700
22.404400 4.145400
22.423700 4.054700
22.443000 3.836700
22.462200 3.648100
22.481500 3.686200
22.500800 4.018600
22.520000 4.541400
22.539300 5.080700
22.558600 5.492600
22.577800 5.703100
22.597100 5.729800
22.616400 5.663900
22.635600 5.582900
22.654900 5.486900
22.674200 5.356700
22.693400 5.232600
22.712700 5.167000
22.732000 5.123300
22.751200 5.014900
22.770500 4.831000
22.789800 4.640600
22.809000 4.482100
22.828300 4.327900
22.847600 4.140000
22.866800 3.916700
22.886100 3.737000
22.905400 3.774200
22.924600 4.153300
22.943900 4.751000
22.963200 5.233100
22.982400 5.322000
23.001700 4.987800
23.021000 4.416500
23.040200 3.852500
23.059500 3.455800
23.078800 3.259700
23.098000 3.226400
23.117300 3.309000
23.136600 3.460400
23.155800 3.637300
23.175100 3.824100
23.194400 4.022300
23.213600 4.236700
23.232900 4.521400
23.252200 4.950800
23.271400 5.464500
23.290700 5.861200
23.310000 6.018700
23.329200 5.988400
23.348500 5.818000
23.367800 5.429200
23.387000 4.770900
23.406300 4.020300
23.425600 3.503400
23.444800 3.377600
23.464100 3.480700
23.483400 3.566800
23.502600 3.620600
23.521900 3.825400
23.541200 4.247900
23.560400 4.710100
23.579700 5.015000
23.599000 5.180800
23.618200 5.368500
23.637500 5.620600
23.656800 5.796000
23.676000 5.779100
23.695300 5.631200
23.714600 5.505800
23.733800 5.464900
23.753100 5.376600
23.772400 5.041200
23.791600 4.453500
23.810900 3.843000
23.830200 3.445000
23.849400 3.341900
23.868700 3.508900
23.888000 3.861800
23.907200 4.238000
23.926500 4.474200
23.945800 4.550000
23.965000 4.552900
23.984300 4.540200
24.003600 4.559100
24.022800 4.681300
24.042100 4.874800
24.061400 4.999200
24.080600 5.000900
24.099900 4.907200
24.119200 4.665200
24.138400 4.239600
24.157700 3.800200
24.177000 3.576200
24.196200 3.572000
24.215500 3.579600
24.234800 3.459100
24.254000 3.319400
24.273300 3.373800
24.292600 3.651500
24.311800 3.956000
24.331100 4.132000
24.350400 4.250500
24.369600 4.453600
24.388900 4.733400
24.408200 4.976400
24.427400 5.131200
24.446700 5.222000
24.466000 5.265400
24.485200 5.269600
24.504500 5.276100
24.523800 5.310900
24.543000 5.290900
24.562300 5.048100
24.581600 4.503900
24.600800 3.814300
24.620100 3.268100
24.639400 3.023900
24.658600 2.998300
24.677900 3.003200
24.697200 2.953000
24.716400 2.925400
24.735700 3.032900
24.755000 3.269800
24.774200 3.508800
24.793500 3.616200
24.812800 3.543200
24.832000 3.324000
24.851300 3.017800
24.870600 2.684900
24.889800 2.397700
24.909100 2.213500
24.928400 2.128700
24.947600 2.096300
24.966900 2.081800
24.986200 2.079100
25.005400 2.074100
25.024700 2.019800
25.044000 1.864400
25.063200 1.599600
25.082500 1.278300
25.101800 0.994100
25.121000 0.832700
25.140300 0.816600
25.159600 0.891500
25.178800 0.972500
25.198100 0.994600
25.217400 0.934800
25.236600 0.827100
25.255900 0.755100
25.275200 0.773000
25.294400 0.829300
25.313700 0.812200
25.333000 0.668200
25.352200 0.446400
25.371500 0.239500
25.390800 0.108700
25.410000 0.063200
25.429300 0.083800
25.448600 0.141600
25.467800 0.196800
25.487100 0.210900
25.506400 0.174400
25.525600 0.113200
25.544900 0.061800
25.564200 0.037400
25.583400 0.036200
25.602700 0.043200
25.622000 0.044300
25.641200 0.034800
25.660500 0.020600
25.679800 0.009100
25.699000 0.003000
25.718300 0.000700
25.737600 0.000100
25.756800 0.000000
25.776100 0.000000
25.795400 0.000000
25.814600 0.000000
25.833900 0.000000
25.853200 0.000000
25.872400 0.000200
25.891700 0.001000
25.911000 0.004200
25.930200 0.013800
25.949500 0.033700
25.968800 0.061800
25.988000 0.084800
26.007300 0.087000
26.026600 0.066900
26.045800 0.038500
26.065100 0.016600
26.084400 0.005300
26.103600 0.001300
26.122900 0.000200
26.142200 0.000000
26.161400 0.000000
26.180700 0.000000
26.200000 0.000000
26.219200 0.000000
26.238500 0.000000
26.257800 0.000000
26.277000 0.000000
26.296300 0.000000
26.315600 0.000000
26.334800 0.000000
26.354100 0.000000
26.373400 0.000000
26.392600 0.000000
26.411900 0.000000
26.431200 0.000000
26.450400 0.000000
26.469700 0.000000
26.489000 0.000000
26.508200 0.000000
26.527500 0.000000
26.546800 0.000000
26.566000 0.000000
26.585300 0.000000
26.604600 0.000000
26.623800 0.000000
26.643100 0.000000
26.662400 0.000000
26.681600 0.000000
26.700900 0.000000
26.720200 0.000000
26.739400 0.000000
26.758700 0.000000
26.778000 0.000000
26.797200 0.000000
26.816500 0.000000
26.835800 0.000000
26.855000 0.000000
26.874300 0.000000
26.893600 0.000000
26.912800 0.000000
26.932100 0.000000
26.951400 0.000000
26.970600 0.000000
26.989900 0.000000
27.009200 0.000000
27.028400 0.000000
27.047700 0.000000
27.067000 0.000000
27.086200 0.000000
27.105500 0.000000
27.124800 0.000000
27.144000 0.000000
27.163300 0.000000
27.182600 0.000000
27.201800 0.000000
27.221100 0.000000
27.240400 0.000000
27.259600 0.000000
27.278900 0.000000
27.298200 0.000000
27.317400 0.000000
27.336700 0.000000
27.356000 0.000000
27.375200 0.000000
27.394500 0.000000
27.413800 0.000000
27.433000 0.000000
27.452300 0.000000
27.471600 0.000000
27.490800 0.000000
27.510100 0.000000
27.529400 0.000000
27.548600 0.000000
27.567900 0.000000
27.587200 0.000000
27.606400 0.000000
27.625700 0.000000
27.645000 0.000000
27.664200 0.000000
27.683500 0.000000
27.702800 0.000000
27.722000 0.000000
27.741300 0.000000
e
