set title 'mp-568656 - Density of States'
set xlabel 'Energy (eV)'
set ylabel 'DOS (states/eV)'
set grid
set xrange [-10:10]
set yrange [0:27.552]
set xzeroaxis lt -1
set terminal png size 800,600
set output 'mp-568656_dos_gnuplot.png'
plot '-' using 1:2 with lines title 'DOS'
-8.848900 0.000000
-8.832900 0.000000
-8.817000 0.000000
-8.801000 0.000000
-8.785000 0.000000
-8.769100 0.000000
-8.753100 0.000000
-8.737100 0.000000
-8.721200 0.000000
-8.705200 0.000000
-8.689200 0.000000
-8.673300 0.000000
-8.657300 0.000000
-8.641300 0.000000
-8.625300 0.000000
-8.609400 0.000000
-8.593400 0.000000
-8.577400 0.000000
-8.561500 0.000000
-8.545500 0.000000
-8.529500 0.000000
-8.513600 0.000000
-8.497600 0.000000
-8.481600 0.000000
-8.465600 0.000000
-8.449700 0.000000
-8.433700 0.000000
-8.417700 0.000000
-8.401800 0.000000
-8.385800 0.000000
-8.369800 0.000000
-8.353900 0.000000
-8.337900 0.000000
-8.321900 0.000000
-8.305900 0.000000
-8.290000 0.000000
-8.274000 0.000000
-8.258000 0.000000
-8.242100 0.000000
-8.226100 0.000000
-8.210100 0.000000
-8.194200 0.000000
-8.178200 0.000000
-8.162200 0.000000
-8.146300 0.000000
-8.130300 0.000000
-8.114300 0.000000
-8.098300 0.000000
-8.082400 0.000000
-8.066400 0.000000
-8.050400 0.000000
-8.034500 0.000000
-8.018500 0.000000
-8.002500 0.000000
-7.986600 0.000000
-7.970600 0.000000
-7.954600 0.000000
-7.938600 0.000000
-7.922700 0.000000
-7.906700 0.000000
-7.890700 0.000000
-7.874800 0.000000
-7.858800 0.000000
-7.842800 0.000000
-7.826900 0.000000
-7.810900 0.000000
-7.794900 0.000000
-7.778900 0.000000
-7.763000 0.000000
-7.747000 0.000000
-7.731000 0.000000
-7.715100 0.000000
-7.699100 0.000000
-7.683100 0.000000
-7.667200 0.000000
-7.651200 0.000000
-7.635200 0.000000
-7.619300 0.000000
-7.603300 0.000000
-7.587300 0.000000
-7.571300 0.000000
-7.555400 0.000000
-7.539400 0.000000
-7.523400 0.000000
-7.507500 0.000000
-7.491500 0.000000
-7.475500 0.000000
-7.459600 0.000000
-7.443600 0.000000
-7.427600 0.000000
-7.411600 0.000000
-7.395700 0.004800
-7.379700 0.057800
-7.363700 0.110700
-7.347800 0.163700
-7.331800 0.216700
-7.315800 0.269600
-7.299900 0.322600
-7.283900 0.375500
-7.267900 0.428500
-7.252000 0.481400
-7.236000 0.534400
-7.220000 0.587400
-7.204000 0.640300
-7.188100 0.693300
-7.172100 0.358400
-7.156100 0.385200
-7.140200 0.443100
-7.124200 0.501100
-7.108200 0.574200
-7.092300 0.685400
-7.076300 0.796700
-7.060300 0.907900
-7.044300 1.019100
-7.028400 1.130300
-7.012400 1.241600
-6.996400 1.352800
-6.980500 1.464000
-6.964500 1.575200
-6.948500 1.327800
-6.932600 1.390300
-6.916600 1.452800
-6.900600 1.163700
-6.884600 1.177600
-6.868700 1.191500
-6.852700 1.205400
-6.836700 1.219200
-6.820800 1.233100
-6.804800 1.247000
-6.788800 1.260900
-6.772900 1.274800
-6.756900 1.282100
-6.740900 1.286400
-6.725000 1.290800
-6.709000 1.295100
-6.693000 1.299400
-6.677000 1.303800
-6.661100 1.308100
-6.645100 1.312400
-6.629100 1.316800
-6.613200 1.321100
-6.597200 1.325400
-6.581200 1.343600
-6.565300 1.416400
-6.549300 1.536000
-6.533300 1.655400
-6.517300 1.766800
-6.501400 1.878200
-6.485400 1.989600
-6.469400 2.091400
-6.453500 2.193300
-6.437500 2.295100
-6.421500 2.397000
-6.405600 2.498800
-6.389600 2.600700
-6.373600 2.335900
-6.357600 2.024900
-6.341700 2.026500
-6.325700 2.030300
-6.309700 2.038700
-6.293800 2.047100
-6.277800 2.056600
-6.261800 2.071800
-6.245900 2.087000
-6.229900 2.102200
-6.213900 2.117400
-6.198000 2.132600
-6.182000 2.147800
-6.166000 2.163000
-6.150000 2.178200
-6.134100 2.193400
-6.118100 2.208600
-6.102100 2.223800
-6.086200 2.238900
-6.070200 2.254100
-6.054200 2.269300
-6.038300 2.284500
-6.022300 2.299700
-6.006300 2.314900
-5.990300 2.330100
-5.974400 2.345300
-5.958400 2.353400
-5.942400 2.324400
-5.926500 2.318700
-5.910500 2.312900
-5.894500 2.307100
-5.878600 2.301300
-5.862600 2.295500
-5.846600 2.289800
-5.830600 2.284000
-5.814700 2.278200
-5.798700 2.272400
-5.782700 2.266600
-5.766800 2.262100
-5.750800 2.263300
-5.734800 2.271000
-5.718900 2.250800
-5.702900 2.257500
-5.686900 2.264200
-5.671000 2.267200
-5.655000 2.340600
-5.639000 2.462800
-5.623000 2.584900
-5.607100 2.707100
-5.591100 2.829300
-5.575100 2.951500
-5.559200 3.074300
-5.543200 3.197600
-5.527200 3.320900
-5.511300 3.444200
-5.495300 3.567500
-5.479300 3.690800
-5.463300 3.407600
-5.447400 3.088400
-5.431400 3.105300
-5.415400 3.122100
-5.399500 3.139000
-5.383500 3.155800
-5.367500 3.172700
-5.351600 3.189600
-5.335600 3.207000
-5.319600 3.225000
-5.303700 3.243000
-5.287700 3.261300
-5.271700 3.280400
-5.255700 3.299600
-5.239800 3.318700
-5.223800 3.337800
-5.207800 3.357000
-5.191900 3.376100
-5.175900 3.369800
-5.159900 3.362500
-5.144000 3.379200
-5.128000 3.396000
-5.112000 3.412700
-5.096000 3.429500
-5.080100 3.444400
-5.064100 3.451100
-5.048100 3.450000
-5.032200 3.446700
-5.016200 3.443300
-5.000200 3.440000
-4.984300 3.436400
-4.968300 3.432800
-4.952300 3.429100
-4.936300 3.425400
-4.920400 3.421800
-4.904400 3.418100
-4.888400 3.415700
-4.872500 3.419200
-4.856500 3.427800
-4.840500 3.438500
-4.824600 3.450800
-4.808600 3.466300
-4.792600 3.482500
-4.776700 3.499500
-4.760700 3.517000
-4.744700 3.534400
-4.728700 3.551800
-4.712800 3.569300
-4.696800 3.586700
-4.680800 3.604100
-4.664900 3.621500
-4.648900 3.638900
-4.632900 3.656400
-4.617000 3.673800
-4.601000 3.695100
-4.585000 3.716700
-4.569000 3.738400
-4.553100 3.762500
-4.537100 3.851500
-4.521100 4.008500
-4.505200 4.166000
-4.489200 4.323400
-4.473200 4.480900
-4.457300 4.638300
-4.441300 4.795800
-4.425300 4.953200
-4.409300 5.110700
-4.393400 5.268100
-4.377400 5.736300
-4.361400 5.485800
-4.345500 5.175700
-4.329500 5.172400
-4.313500 5.186700
-4.297600 5.182900
-4.281600 5.196800
-4.265600 5.213700
-4.249700 5.231000
-4.233700 5.250000
-4.217700 5.269700
-4.201700 5.289400
-4.185800 5.309100
-4.169800 5.645100
-4.153800 5.638800
-4.137900 5.632500
-4.121900 5.961100
-4.105900 5.937000
-4.090000 5.914200
-4.074000 5.895100
-4.058000 5.875900
-4.042000 5.856700
-4.026100 5.837600
-4.010100 5.818400
-3.994100 5.799300
-3.978200 5.771700
-3.962200 5.735000
-3.946200 5.699300
-3.930300 5.663500
-3.914300 5.627700
-3.898300 5.935200
-3.882300 6.900800
-3.866400 7.866400
-3.850400 5.455300
-3.834400 5.431300
-3.818500 5.407700
-3.802500 5.458600
-3.786500 6.007700
-3.770600 6.011200
-3.754600 6.014800
-3.738600 6.018300
-3.722700 6.021900
-3.706700 6.681800
-3.690700 7.726300
-3.674700 8.361100
-3.658800 6.718800
-3.642800 7.279400
-3.626800 7.390500
-3.610900 7.883600
-3.594900 5.678500
-3.578900 5.598100
-3.563000 5.517600
-3.547000 5.437200
-3.531000 5.356700
-3.515000 5.280600
-3.499100 5.246700
-3.483100 5.271900
-3.467100 5.314700
-3.451200 5.357500
-3.435200 5.400200
-3.419200 5.443000
-3.403300 5.508900
-3.387300 5.582900
-3.371300 5.660800
-3.355400 5.754000
-3.339400 5.921700
-3.323400 6.247100
-3.307400 6.177700
-3.291500 6.449600
-3.275500 6.708100
-3.259500 6.966600
-3.243600 6.194600
-3.227600 6.237500
-3.211600 7.296800
-3.195700 7.082900
-3.179700 6.868900
-3.163700 6.655000
-3.147700 6.441100
-3.131800 6.977100
-3.115800 6.575200
-3.099800 6.173300
-3.083900 5.771400
-3.067900 5.436600
-3.051900 5.239000
-3.036000 5.049500
-3.020000 4.865800
-3.004000 4.690700
-2.988000 4.516400
-2.972100 4.487100
-2.956100 4.483400
-2.940100 4.479600
-2.924200 4.475800
-2.908200 4.472100
-2.892200 4.468300
-2.876300 4.471300
-2.860300 4.478800
-2.844300 4.491400
-2.828400 6.866700
-2.812400 6.039300
-2.796400 6.896200
-2.780400 5.648900
-2.764500 4.682600
-2.748500 4.308800
-2.732500 3.935100
-2.716600 3.561400
-2.700600 3.250600
-2.684600 3.202800
-2.668700 25.047500
-2.652700 5.489000
-2.636700 5.818400
-2.620700 22.365700
-2.604800 7.274400
-2.588800 7.367200
-2.572800 7.484300
-2.556900 7.619400
-2.540900 7.754400
-2.524900 7.889400
-2.509000 8.024500
-2.493000 4.344600
-2.477000 4.478700
-2.461000 4.612900
-2.445100 4.747000
-2.429100 1.908100
-2.413100 2.048900
-2.397200 2.189600
-2.381200 2.330300
-2.365200 5.411200
-2.349300 9.869500
-2.333300 5.619400
-2.317300 5.499000
-2.301400 5.378500
-2.285400 5.258000
-2.269400 5.137500
-2.253400 5.017000
-2.237500 11.587900
-2.221500 0.000000
-2.205500 0.000000
-2.189600 0.000000
-2.173600 0.000000
-2.157600 0.000000
-2.141700 0.000000
-2.125700 0.000000
-2.109700 0.000000
-2.093700 0.000000
-2.077800 0.000000
-2.061800 0.000000
-2.045800 0.000000
-2.029900 0.000000
-2.013900 0.000000
-1.997900 0.000000
-1.982000 0.000000
-1.966000 0.000000
-1.950000 0.000000
-1.934000 0.000000
-1.918100 0.000000
-1.902100 0.000000
-1.886100 0.000000
-1.870200 0.000000
-1.854200 0.000000
-1.838200 0.000000
-1.822300 0.000000
-1.806300 0.000000
-1.790300 0.000000
-1.774400 0.000000
-1.758400 0.000000
-1.742400 0.000000
-1.726400 0.000000
-1.710500 0.000000
-1.694500 0.000000
-1.678500 0.000000
-1.662600 0.000000
-1.646600 0.000000
-1.630600 0.000000
-1.614700 0.000000
-1.598700 0.000000
-1.582700 0.000000
-1.566700 0.000000
-1.550800 0.000000
-1.534800 0.000000
-1.518800 0.000000
-1.502900 0.000000
-1.486900 0.000000
-1.470900 0.000000
-1.455000 0.000000
-1.439000 0.000000
-1.423000 0.000000
-1.407100 0.000000
-1.391100 0.000000
-1.375100 0.000000
-1.359100 0.000000
-1.343200 0.000000
-1.327200 0.000000
-1.311200 0.000000
-1.295300 0.000000
-1.279300 0.000000
-1.263300 0.000000
-1.247400 0.000000
-1.231400 0.000000
-1.215400 0.000000
-1.199400 0.000000
-1.183500 0.000000
-1.167500 0.000000
-1.151500 0.000000
-1.135600 0.000000
-1.119600 0.000000
-1.103600 0.000000
-1.087700 0.000000
-1.071700 0.000000
-1.055700 0.000000
-1.039700 0.000000
-1.023800 0.000000
-1.007800 0.000000
-0.991800 0.000000
-0.975900 0.000000
-0.959900 0.000000
-0.943900 0.000000
-0.928000 0.000000
-0.912000 0.000000
-0.896000 0.000000
-0.880100 0.000000
-0.864100 0.000000
-0.848100 0.000000
-0.832100 0.000000
-0.816200 0.000000
-0.800200 0.000000
-0.784200 0.000000
-0.768300 0.000000
-0.752300 0.000000
-0.736300 0.000000
-0.720400 0.000000
-0.704400 0.000000
-0.688400 0.000000
-0.672400 0.000000
-0.656500 0.000000
-0.640500 0.000000
-0.624500 0.000000
-0.608600 0.000000
-0.592600 0.000000
-0.576600 0.000000
-0.560700 0.000000
-0.544700 0.000000
-0.528700 0.000000
-0.512700 0.016200
-0.496800 0.080500
-0.480800 0.144800
-0.464800 0.209100
-0.448900 0.273400
-0.432900 0.337700
-0.416900 0.402100
-0.401000 0.466400
-0.385000 0.530700
-0.369000 0.595000
-0.353100 0.659300
-0.337100 0.723600
-0.321100 0.405800
-0.305100 1.331200
-0.289200 5.368700
-0.273200 0.945000
-0.257200 0.971000
-0.241300 0.997000
-0.225300 1.023000
-0.209300 1.049000
-0.193400 1.075000
-0.177400 1.101000
-0.161400 1.127000
-0.145400 1.152900
-0.129500 1.178900
-0.113500 7.617900
-0.097500 1.770900
-0.081600 1.818800
-0.065600 1.866700
-0.049600 2.564000
-0.033700 3.610400
-0.017700 4.656700
-0.001700 2.658000
0.014300 2.723700
0.030200 2.789500
0.046200 2.972200
0.062200 3.353700
0.078100 3.735200
0.094100 4.116800
0.110100 4.498300
0.126000 4.879800
0.142000 5.261300
0.158000 3.919200
0.173900 3.996000
0.189900 4.072800
0.205900 5.431000
0.221900 5.389800
0.237800 5.351600
0.253800 5.313400
0.269800 5.275200
0.285700 5.237000
0.301700 5.198800
0.317700 5.160600
0.333600 5.158200
0.349600 5.168800
0.365600 6.640200
0.381600 6.482100
0.397500 6.324000
0.413500 6.165900
0.429500 6.026000
0.445400 5.964700
0.461400 5.914900
0.477400 8.086500
0.493300 9.261000
0.509300 8.626400
0.525300 8.060200
0.541200 7.599200
0.557200 8.135200
0.573200 9.578100
0.589200 9.443500
0.605100 9.505300
0.621100 9.567100
0.637100 9.628900
0.653000 8.650700
0.669000 8.328300
0.685000 7.798400
0.700900 7.320300
0.716900 7.212100
0.732900 7.103800
0.748900 7.326400
0.764800 9.438100
0.780800 12.609300
0.796800 8.923700
0.812700 9.925100
0.828700 10.926500
0.844700 8.969500
0.860600 9.376900
0.876600 9.784400
0.892600 6.922100
0.908600 6.867700
0.924500 6.829300
0.940500 6.903400
0.956500 7.203200
0.972400 7.586400
0.988400 8.013300
1.004400 8.520400
1.020300 9.040100
1.036300 9.559800
1.052300 10.101200
1.068200 10.647300
1.084200 11.241400
1.100200 9.517000
1.116200 9.427600
1.132100 9.172700
1.148100 8.917900
1.164100 8.663000
1.180000 8.438400
1.196000 8.216000
1.212000 7.993600
1.227900 7.771200
1.243900 7.550300
1.259900 7.329600
1.275900 6.007800
1.291800 6.056800
1.307800 5.956000
1.323800 7.380500
1.339700 8.805000
1.355700 6.961300
1.371700 7.624300
1.387600 3.779200
1.403600 3.743800
1.419600 3.708300
1.435600 3.672900
1.451500 3.656400
1.467500 3.678000
1.483500 3.701800
1.499400 3.725600
1.515400 3.749400
1.531400 3.773200
1.547300 3.797000
1.563300 3.820800
1.579300 3.844700
1.595200 3.992300
1.611200 4.149500
1.627200 4.306600
1.643200 4.463800
1.659100 4.621000
1.675100 4.778100
1.691100 4.943700
1.707000 5.109400
1.723000 5.275100
1.739000 5.440800
1.754900 5.606500
1.770900 3.902800
1.786900 3.897300
1.802900 3.891800
1.818800 3.886300
1.834800 3.880900
1.850800 3.881300
1.866700 3.885500
1.882700 3.889700
1.898700 3.894000
1.914600 3.556700
1.930600 3.540800
1.946600 3.529900
1.962600 3.525600
1.978500 3.521200
1.994500 3.516800
2.010500 3.514600
2.026400 3.521700
2.042400 3.530000
2.058400 3.538300
2.074300 3.600200
2.090300 3.612900
2.106300 3.625600
2.122200 3.638300
2.138200 3.651000
2.154200 3.663700
2.170200 3.676400
2.186100 3.689100
2.202100 3.701900
2.218100 3.812700
2.234000 3.839600
2.250000 3.866600
2.266000 3.893500
2.281900 3.920400
2.297900 3.947100
2.313900 3.973100
2.329900 4.006100
2.345800 4.043000
2.361800 4.076200
2.377800 4.114000
2.393700 4.152200
2.409700 4.190400
2.425700 4.228600
2.441600 4.266700
2.457600 4.304900
2.473600 4.343100
2.489500 4.381300
2.505500 4.419500
2.521500 4.457700
2.537500 4.495400
2.553400 4.677300
2.569400 5.063000
2.585400 6.428300
2.601300 7.603800
2.617300 8.779200
2.633300 9.553600
2.649200 12.522500
2.665200 11.640500
2.681200 11.781300
2.697200 11.840900
2.713100 9.871700
2.729100 7.948800
2.745100 6.407200
2.761000 5.347400
2.777000 4.846700
2.793000 4.938300
2.808900 5.030000
2.824900 5.061800
2.840900 5.152900
2.856900 5.259000
2.872800 5.350500
2.888800 5.744200
2.904800 5.714800
2.920700 5.688000
2.936700 5.475000
2.952700 5.457600
2.968600 5.440200
2.984600 5.422800
3.000600 5.405400
3.016500 5.388100
3.032500 5.370700
3.048500 5.353300
3.064500 5.335900
3.080400 5.318500
3.096400 5.301100
3.112400 5.283700
3.128300 5.277500
3.144300 5.275000
3.160300 5.272600
3.176200 5.275000
3.192200 5.291600
3.208200 5.308200
3.224200 5.324700
3.240100 5.341300
3.256100 5.400200
3.272100 5.549100
3.288000 5.758800
3.304000 5.982700
3.320000 6.187500
3.335900 6.389400
3.351900 6.630200
3.367900 6.839200
3.383900 7.080400
3.399800 7.225400
3.415800 7.142500
3.431800 7.113300
3.447700 7.279900
3.463700 7.450200
3.479700 7.620400
3.495600 7.793000
3.511600 7.985000
3.527600 8.180300
3.543500 8.376600
3.559500 8.572900
3.575500 8.769200
3.591500 8.995400
3.607400 9.053900
3.623400 9.060100
3.639400 9.125400
3.655300 9.190800
3.671300 7.308100
3.687300 7.200800
3.703200 7.206800
3.719200 7.212900
3.735200 7.219000
3.751200 8.867100
3.767100 8.076100
3.783100 7.285200
3.799100 6.495900
3.815000 6.064100
3.831000 6.103200
3.847000 6.142900
3.862900 6.183800
3.878900 6.224600
3.894900 6.265500
3.910900 6.306400
3.926800 6.347200
3.942800 6.388100
3.958800 6.429000
3.974700 6.469800
3.990700 6.557200
4.006700 6.695900
4.022600 6.835900
4.038600 6.980600
4.054600 7.129600
4.070500 7.278500
4.086500 7.427400
4.102500 7.576300
4.118500 7.620600
4.134400 7.706800
4.150400 7.782700
4.166400 7.855800
4.182300 7.926800
4.198300 7.997600
4.214300 8.066500
4.230200 8.139600
4.246200 8.228300
4.262200 8.317100
4.278200 8.409400
4.294100 7.985100
4.310100 8.163500
4.326100 8.356000
4.342000 8.552900
4.358000 8.739700
4.374000 8.922900
4.389900 9.106200
4.405900 9.290800
4.421900 9.317100
4.437800 9.300500
4.453800 9.286400
4.469800 8.591100
4.485800 8.685800
4.501700 8.787200
4.517700 8.901100
4.533700 10.547400
4.549600 10.612500
4.565600 10.564300
4.581600 10.518800
4.597500 10.473200
4.613500 10.427600
4.629500 10.382800
4.645500 10.338000
4.661400 10.280100
4.677400 10.209600
4.693400 10.124400
4.709300 10.040000
4.725300 9.955500
4.741300 9.877200
4.757200 9.801400
4.773200 9.725600
4.789200 9.508000
4.805200 12.434200
4.821100 16.960300
4.837100 13.190700
4.853100 11.089500
4.869000 10.956200
4.885000 10.823000
4.901000 10.437000
4.916900 10.316100
4.932900 10.147700
4.948900 9.979400
4.964800 9.811000
4.980800 9.107100
4.996800 9.025200
5.012800 8.971700
5.028700 13.508000
5.044700 12.441800
5.060700 11.647600
5.076600 10.863300
5.092600 10.148600
5.108600 9.383500
5.124500 9.268200
5.140500 9.226300
5.156500 9.161700
5.172500 9.142300
5.188400 9.157800
5.204400 9.173400
5.220400 9.188900
5.236300 9.195400
5.252300 9.211900
5.268300 9.235500
5.284200 9.215600
5.300200 9.186500
5.316200 9.136700
5.332200 9.132000
5.348100 9.128200
5.364100 9.152300
5.380100 9.407800
5.396000 9.697400
5.412000 9.763500
5.428000 9.767800
5.443900 10.001300
5.459900 10.234800
5.475900 10.544900
5.491800 10.918200
5.507800 11.308100
5.523800 11.698000
5.539800 12.128200
5.555700 11.134100
5.571700 11.182600
5.587700 10.866300
5.603600 11.007900
5.619600 11.149400
5.635600 11.308300
5.651500 11.419100
5.667500 11.175900
5.683500 11.249200
5.699500 11.319400
5.715400 11.398100
5.731400 11.498600
5.747400 11.622100
5.763300 11.748400
5.779300 11.028700
5.795300 11.049800
5.811200 11.063600
5.827200 11.041100
5.843200 11.115500
5.859200 11.230800
5.875100 11.301900
5.891100 11.383800
5.907100 11.494900
5.923000 11.530800
5.939000 11.628300
5.955000 11.754900
5.970900 11.592900
5.986900 11.803900
6.002900 11.922300
6.018800 12.162200
6.034800 11.980100
6.050800 11.733400
6.066800 11.869700
6.082700 12.006000
6.098700 12.141400
6.114700 12.276100
6.130600 12.410700
6.146600 12.575500
6.162600 12.630000
6.178500 12.234400
6.194500 11.510500
6.210500 11.591500
6.226500 11.672600
6.242400 11.830400
6.258400 11.920800
6.274400 12.065500
6.290300 12.198600
6.306300 12.351400
6.322300 12.409100
6.338200 12.478700
6.354200 12.561200
6.370200 12.527700
6.386100 12.447900
6.402100 12.527300
6.418100 12.432200
6.434100 12.219400
6.450000 12.136100
6.466000 12.067500
6.482000 11.998800
6.497900 11.972400
6.513900 11.949400
6.529900 11.926300
6.545800 11.482200
6.561800 11.447100
6.577800 11.667400
6.593800 11.858100
6.609700 11.836800
6.625700 11.400500
6.641700 11.393100
6.657600 11.363600
6.673600 10.649200
6.689600 10.463100
6.705500 10.292200
6.721500 10.121200
6.737500 9.859500
6.753500 9.605700
6.769400 9.485800
6.785400 9.317300
6.801400 9.147400
6.817300 8.961300
6.833300 8.775200
6.849300 8.793500
6.865200 8.665500
6.881200 8.442000
6.897200 8.281600
6.913100 8.124900
6.929100 7.959200
6.945100 7.863200
6.961100 7.913200
6.977000 7.582400
6.993000 7.403700
7.009000 7.231400
7.024900 7.077800
7.040900 6.971000
7.056900 6.864300
7.072800 6.845000
7.088800 6.749900
7.104800 6.641200
7.120800 6.477100
7.136700 6.313100
7.152700 6.149000
7.168700 6.002100
7.184600 5.855800
7.200600 5.709400
7.216600 5.713000
7.232500 5.649200
7.248500 5.612000
7.264500 5.567100
7.280500 5.487500
7.296400 5.407800
7.312400 5.603000
7.328400 5.455100
7.344300 5.307200
7.360300 5.183700
7.376300 5.044100
7.392200 4.893600
7.408200 4.743100
7.424200 4.325800
7.440100 4.153300
7.456100 4.000900
7.472100 3.848500
7.488100 3.696000
7.504000 3.543600
7.520000 3.393900
7.536000 3.254000
7.551900 3.114000
7.567900 2.974000
7.583900 2.845100
7.599800 2.753300
7.615800 2.661400
7.631800 2.610300
7.647800 2.562600
7.663700 2.514900
7.679700 2.467300
7.695700 2.793100
7.711600 2.658400
7.727600 2.523800
7.743600 2.389100
7.759500 2.254400
7.775500 2.394100
7.791500 2.221900
7.807500 2.049800
7.823400 1.880300
7.839400 1.730500
7.855400 1.862900
7.871300 1.679800
7.887300 1.496700
7.903300 1.320300
7.919200 1.202600
7.935200 1.084900
7.951200 0.967300
7.967100 1.668600
7.983100 1.374700
7.999100 1.102100
8.015100 0.829500
8.031000 0.556900
8.047000 0.284400
8.063000 0.011800
8.078900 0.000000
8.094900 0.000000
8.110900 0.000000
8.126800 0.000000
8.142800 0.000000
8.158800 0.000000
8.174800 0.000000
8.190700 0.000000
8.206700 0.000000
8.222700 0.000000
8.238600 0.000000
8.254600 0.000000
8.270600 0.000000
8.286500 0.000000
8.302500 0.000000
8.318500 0.000000
8.334400 0.000000
8.350400 0.000000
8.366400 0.000000
8.382400 0.000000
8.398300 0.000000
8.414300 0.000000
8.430300 0.000000
8.446200 0.000000
8.462200 0.000000
8.478200 0.000000
8.494100 0.000000
8.510100 0.000000
8.526100 0.000000
8.542100 0.000000
8.558000 0.000000
8.574000 0.000000
8.590000 0.000000
8.605900 0.000000
8.621900 0.000000
8.637900 0.000000
8.653800 0.000000
8.669800 0.000000
8.685800 0.000000
8.701800 0.000000
8.717700 0.000000
8.733700 0.000000
8.749700 0.000000
8.765600 0.000000
8.781600 0.000000
8.797600 0.000000
8.813500 0.000000
8.829500 0.000000
8.845500 0.000000
8.861400 0.000000
8.877400 0.000000
8.893400 0.000000
8.909400 0.000000
8.925300 0.000000
8.941300 0.000000
8.957300 0.000000
8.973200 0.000000
8.989200 0.000000
9.005200 0.000000
9.021100 0.000000
9.037100 0.000000
9.053100 0.000000
9.069100 0.000000
9.085000 0.000000
9.101000 0.000000
9.117000 0.000000
9.132900 0.000000
9.148900 0.000000
9.164900 0.000000
9.180800 0.000000
9.196800 0.000000
9.212800 0.000000
9.228800 0.000000
9.244700 0.000000
9.260700 0.000000
9.276700 0.000000
9.292600 0.000000
9.308600 0.000000
9.324600 0.000000
9.340500 0.000000
9.356500 0.000000
9.372500 0.000000
9.388400 0.000000
9.404400 0.000000
9.420400 0.000000
9.436400 0.000000
9.452300 0.000000
9.468300 0.000000
9.484300 0.000000
9.500200 0.000000
9.516200 0.000000
9.532200 0.000000
9.548100 0.000000
9.564100 0.000000
9.580100 0.000000
9.596100 0.000000
9.612000 0.000000
9.628000 0.000000
9.644000 0.000000
9.659900 0.000000
9.675900 0.000000
9.691900 0.000000
9.707800 0.000000
9.723800 0.000000
9.739800 0.000000
9.755800 0.000000
9.771700 0.000000
9.787700 0.000000
9.803700 0.000000
9.819600 0.000000
9.835600 0.000000
9.851600 0.000000
9.867500 0.000000
9.883500 0.000000
9.899500 0.000000
9.915400 0.000000
9.931400 0.000000
9.947400 0.000000
9.963400 0.000000
9.979300 0.000000
9.995300 0.000000
10.011300 0.000000
10.027200 0.000000
10.043200 0.000000
10.059200 0.000000
10.075100 0.000000
10.091100 0.000000
10.107100 0.307700
10.123100 0.316800
10.139000 0.325900
10.155000 0.335000
10.171000 0.344100
10.186900 0.353200
10.202900 0.362300
10.218900 0.371300
10.234800 0.380400
10.250800 0.389500
10.266800 0.398600
10.282700 0.407700
10.298700 0.653100
10.314700 0.671400
10.330700 0.689800
10.346600 0.708100
10.362600 0.726500
10.378600 0.744800
10.394500 0.763200
10.410500 0.781600
10.426500 0.799900
10.442400 1.068400
10.458400 1.097200
10.474400 1.126000
10.490400 1.154800
10.506300 1.183600
10.522300 1.212400
10.538300 1.241300
10.554200 1.270100
10.570200 1.298900
10.586200 1.542200
10.602100 1.587200
10.618100 1.633200
10.634100 1.679200
10.650100 1.725200
10.666000 1.771200
10.682000 1.817200
10.698000 1.863200
10.713900 1.909100
10.729900 1.955100
10.745900 2.001100
10.761800 2.047100
10.777800 2.093100
10.793800 2.137500
10.809700 2.169500
10.825700 2.201500
10.841700 2.233500
10.857700 2.265400
10.873600 2.297400
10.889600 2.329400
10.905600 2.361400
10.921500 2.393400
10.937500 2.433000
10.953500 2.475700
10.969400 2.513000
10.985400 2.549700
11.001400 2.586800
11.017400 2.623900
11.033300 2.661000
11.049300 2.705300
11.065300 2.745400
11.081200 2.785500
11.097200 2.825700
11.113200 2.865800
11.129100 2.906000
11.145100 2.946100
11.161100 2.986200
11.177100 3.026400
11.193000 3.066500
11.209000 3.104800
11.225000 3.138600
11.240900 3.172300
11.256900 3.206000
11.272900 3.233100
11.288800 5.609300
11.304800 5.258700
11.320800 4.908200
11.336700 4.557700
11.352700 4.207100
11.368700 3.851000
11.384700 3.489700
11.400600 3.382100
11.416600 3.388200
11.432600 3.595500
11.448500 3.807000
11.464500 4.059800
11.480500 4.312700
11.496400 4.565600
11.512400 4.818500
11.528400 5.071400
11.544400 5.324200
11.560300 5.577100
11.576300 5.829000
11.592300 3.791200
11.608200 3.791900
11.624200 3.792700
11.640200 6.208200
11.656100 4.027900
11.672100 4.028200
11.688100 4.028600
11.704100 4.028900
11.720000 4.060600
11.736000 4.113700
11.752000 4.166900
11.767900 4.220100
11.783900 4.273200
11.799900 4.326400
11.815800 4.379600
11.831800 4.432700
11.847800 4.485900
11.863700 4.581400
11.879700 4.684800
11.895700 4.781800
11.911700 4.878700
11.927600 4.975500
11.943600 5.072400
11.959600 5.169300
11.975500 5.268400
11.991500 5.367700
12.007500 5.467000
12.023400 4.636300
12.039400 4.706600
12.055400 4.155200
12.071400 4.201000
12.087300 4.456800
12.103300 4.515900
12.119300 4.575000
12.135200 4.635700
12.151200 4.697900
12.167200 4.760100
12.183100 5.293600
12.199100 12.264800
12.215100 5.591800
12.231000 6.050300
12.247000 6.508700
12.263000 6.967100
12.279000 7.239000
12.294900 5.557900
12.310900 5.389200
12.326900 5.267100
12.342800 5.149100
12.358800 5.031100
12.374800 4.923000
12.390700 6.491100
12.406700 6.060500
12.422700 5.629900
12.438700 5.199300
12.454600 4.768800
12.470600 4.678100
12.486600 4.685200
12.502500 4.692400
12.518500 4.699600
12.534500 4.721700
12.550400 4.780100
12.566400 4.838400
12.582400 4.896800
12.598400 4.955100
12.614300 5.041700
12.630300 5.148100
12.646300 5.893200
12.662200 6.018200
12.678200 9.424900
12.694200 8.579300
12.710100 7.733600
12.726100 6.888000
12.742100 6.045300
12.758000 5.521500
12.774000 5.722800
12.790000 5.575600
12.806000 5.468100
12.821900 5.408800
12.837900 5.349500
12.853900 5.467400
12.869800 5.890100
12.885800 6.386100
12.901800 6.881400
12.917700 7.116800
12.933700 7.607700
12.949700 7.529100
12.965700 7.424200
12.981600 7.847500
12.997600 7.752500
13.013600 7.657600
13.029500 7.562600
13.045500 7.467600
13.061500 7.344100
13.077400 7.219800
13.093400 7.095400
13.109400 6.847800
13.125400 6.566500
13.141300 6.621600
13.157300 6.844800
13.173300 7.203600
13.189200 7.576700
13.205200 7.955700
13.221200 8.331900
13.237100 6.110500
13.253100 6.451200
13.269100 6.502800
13.285000 6.554200
13.301000 6.640800
13.317000 6.855800
13.333000 7.070700
13.348900 7.285700
13.364900 7.500600
13.380900 7.768100
13.396800 8.323400
13.412800 6.943100
13.428800 7.594800
13.444700 8.143700
13.460700 6.177900
13.476700 6.680100
13.492700 6.741100
13.508600 6.808600
13.524600 6.895300
13.540600 6.995000
13.556500 7.124600
13.572500 7.254100
13.588500 7.383700
13.604400 7.528800
13.620400 7.669500
13.636400 8.215900
13.652400 9.713000
13.668300 9.772300
13.684300 9.844100
13.700300 8.546800
13.716200 8.414900
13.732200 8.435300
13.748200 9.061400
13.764100 9.726500
13.780100 12.343000
13.796100 12.856000
13.812000 10.730400
13.828000 10.910000
13.844000 11.089600
13.860000 8.208800
13.875900 8.143700
13.891900 7.769600
13.907900 7.395600
13.923800 7.201700
13.939800 7.251500
13.955800 7.283600
13.971700 7.416600
13.987700 7.549600
14.003700 7.690000
14.019700 7.831200
14.035600 8.651700
14.051600 9.843900
14.067600 10.727000
14.083500 9.394200
14.099500 10.178300
14.115500 7.888400
14.131400 8.509900
14.147400 9.560800
14.163400 10.611600
14.179300 7.966000
14.195300 8.080700
14.211300 7.243200
14.227300 7.294500
14.243200 7.345900
14.259200 7.397300
14.275200 7.448700
14.291100 7.500100
14.307100 7.551500
14.323100 7.602900
14.339000 7.654300
14.355000 7.087100
14.371000 7.560300
14.387000 8.044900
14.402900 8.523800
14.418900 9.002700
14.434900 7.141400
14.450800 7.258500
14.466800 9.430100
14.482800 8.779800
14.498700 9.279600
14.514700 8.823500
14.530700 8.367400
14.546700 7.911400
14.562600 7.455300
14.578600 8.347100
14.594600 7.609600
14.610500 6.901000
14.626500 7.646700
14.642500 7.579100
14.658400 9.577600
14.674400 9.276900
14.690400 10.681200
14.706300 10.730600
14.722300 10.780000
14.738300 14.816600
14.754300 10.478000
14.770200 9.372500
14.786200 7.363300
14.802200 6.047600
14.818100 8.672200
14.834100 9.230200
14.850100 9.136500
14.866000 9.099400
14.882000 5.444200
14.898000 9.234700
14.914000 6.917200
14.929900 8.765000
14.945900 12.407400
14.961900 6.722500
14.977800 4.606900
14.993800 4.528100
15.009800 4.580400
15.025700 4.688300
15.041700 4.927700
15.057700 5.283800
15.073700 5.639900
15.089600 6.054600
15.105600 6.490700
15.121600 6.926700
15.137500 10.377700
15.153500 18.018000
15.169500 9.877800
15.185400 9.794000
15.201400 9.570400
15.217400 9.441000
15.233300 9.385300
15.249300 9.537000
15.265300 9.712800
15.281300 9.888600
15.297200 10.064400
15.313200 10.240200
15.329200 10.416000
15.345100 10.751200
15.361100 11.792300
15.377100 12.104800
15.393000 12.727300
15.409000 12.690500
15.425000 11.690000
15.441000 12.301900
15.456900 13.238900
15.472900 32.508100
15.488900 12.708400
15.504800 13.735000
15.520800 14.977000
15.536800 15.309400
15.552700 14.692500
15.568700 14.095500
15.584700 14.004900
15.600700 11.171500
15.616600 10.849100
15.632600 11.003600
15.648600 65.389400
15.664500 11.104500
15.680500 11.472000
15.696500 11.839600
15.712400 12.207200
15.728400 11.343700
15.744400 13.743600
15.760300 16.848600
15.776300 15.359400
15.792300 11.301300
15.808300 12.252000
15.824200 12.388600
15.840200 12.525200
15.856200 12.748500
15.872100 13.062300
15.888100 13.017400
15.904100 13.061400
15.920000 16.484700
15.936000 15.514300
15.952000 14.597100
15.968000 14.803600
15.983900 15.010200
15.999900 13.785400
16.015900 15.898700
16.031800 20.682900
16.047800 11.149700
16.063800 11.390300
16.079700 10.615100
16.095700 11.051600
16.111700 11.488000
16.127600 11.924500
16.143600 12.360900
16.159600 12.060000
16.175600 12.197900
16.191500 11.638600
16.207500 11.106600
16.223500 10.574600
16.239400 10.042500
16.255400 9.079600
16.271400 8.713400
16.287300 8.829800
16.303300 15.421300
16.319300 12.889300
16.335300 10.755600
16.351200 9.623900
16.367200 9.409600
16.383200 9.201100
16.399100 8.992500
16.415100 8.784000
16.431100 8.603500
16.447000 10.189700
16.463000 10.198200
16.479000 9.811300
16.495000 9.813900
16.510900 9.816500
16.526900 10.931300
16.542900 11.256100
16.558800 11.319100
16.574800 11.439400
16.590800 11.589300
16.606700 11.650300
16.622700 11.370100
16.638700 11.518700
16.654600 11.667200
16.670600 11.832300
16.686600 10.960300
16.702600 10.717100
16.718500 10.495700
16.734500 10.281100
16.750500 10.022800
16.766400 9.416800
16.782400 9.487600
16.798400 9.695600
16.814300 9.799800
16.830300 9.881600
16.846300 9.963400
16.862300 9.321500
16.878200 9.333400
16.894200 9.332300
16.910200 9.331100
16.926100 9.330000
16.942100 9.562600
16.958100 9.565100
16.974000 9.572000
16.990000 9.606400
17.006000 9.438900
17.022000 9.410600
17.037900 9.374400
17.053900 9.338200
17.069900 9.265400
17.085800 9.132200
17.101800 8.999100
17.117800 8.491400
17.133700 8.930400
17.149700 8.800700
17.165700 8.671100
17.181600 8.521800
17.197600 8.818900
17.213600 8.763000
17.229600 8.783500
17.245500 8.804100
17.261500 8.824700
17.277500 8.845300
17.293400 8.899500
17.309400 8.978900
17.325400 9.067900
17.341300 8.792500
17.357300 8.126000
17.373300 7.584700
17.389300 7.824600
17.405200 7.831500
17.421200 10.397500
17.437200 8.202900
17.453100 8.236300
17.469100 8.260600
17.485100 8.282700
17.501000 8.318800
17.517000 10.403500
17.533000 8.532600
17.549000 10.361000
17.564900 9.926400
17.580900 9.491800
17.596900 9.042900
17.612800 8.592900
17.628800 8.142900
17.644800 8.426300
17.660700 8.732800
17.676700 9.039400
17.692700 9.325600
17.708600 12.262300
17.724600 11.753100
17.740600 9.422700
17.756600 9.013500
17.772500 9.068200
17.788500 9.122800
17.804500 9.929200
17.820400 11.434200
17.836400 12.947600
17.852400 9.712800
17.868300 7.760000
17.884300 7.792200
17.900300 9.522100
17.916300 9.459400
17.932200 9.421600
17.948200 9.347200
17.964200 9.281300
17.980100 9.256200
17.996100 9.391400
18.012100 10.088600
18.028000 10.783200
18.044000 11.477000
18.060000 9.291800
18.075900 9.508100
18.091900 9.724400
18.107900 9.923300
18.123900 10.067000
18.139800 10.270800
18.155800 10.625100
18.171800 9.368200
18.187700 11.512700
18.203700 11.061500
18.219700 10.596500
18.235600 10.129200
18.251600 11.799200
18.267600 12.013200
18.283600 12.262600
18.299500 12.626800
18.315500 14.763200
18.331500 11.588300
18.347400 10.650500
18.363400 13.278600
18.379400 13.382600
18.395300 12.685100
18.411300 12.589200
18.427300 12.629100
18.443300 12.668900
18.459200 12.903200
18.475200 10.076900
18.491200 9.207100
18.507100 13.615300
18.523100 12.798100
18.539100 12.137300
18.555000 11.506100
18.571000 8.897400
18.587000 8.998500
18.602900 7.582800
18.618900 7.767500
18.634900 7.937600
18.650900 8.023000
18.666800 8.108400
18.682800 9.341500
18.698800 9.425900
18.714700 9.423900
18.730700 9.333500
18.746700 9.071200
18.762600 8.318300
18.778600 7.291200
18.794600 7.928000
18.810600 9.157400
18.826500 8.100000
18.842500 15.109300
18.858500 11.363700
18.874400 7.633400
18.890400 6.321200
18.906400 6.060400
18.922300 6.005600
18.938300 5.982000
18.954300 6.466900
18.970300 10.542400
18.986200 10.162600
19.002200 6.896200
19.018200 6.103700
19.034100 5.311200
19.050100 5.353100
19.066100 5.427400
19.082000 5.501600
19.098000 5.560300
19.114000 5.586400
19.129900 5.612500
19.145900 5.638600
19.161900 5.664800
19.177900 5.690900
19.193800 5.717000
19.209800 13.021200
19.225800 5.880400
19.241700 9.373700
19.257700 6.153600
19.273700 6.453100
19.289600 6.799100
19.305600 7.145000
19.321600 7.491000
19.337600 8.993800
19.353500 8.993300
19.369500 9.672300
19.385500 7.125100
19.401400 6.753700
19.417400 6.382200
19.433400 6.010800
19.449300 6.079100
19.465300 6.353700
19.481300 6.515500
19.497300 6.677400
19.513200 6.852700
19.529200 7.271300
19.545200 7.790000
19.561100 8.008300
19.577100 5.553700
19.593100 5.582300
19.609000 6.918500
19.625000 6.727900
19.641000 6.537200
19.656900 6.346600
19.672900 6.156000
19.688900 5.965300
19.704900 5.774700
19.720800 6.494700
19.736800 6.151300
19.752800 5.851200
19.768700 5.754800
19.784700 5.639900
19.800700 5.360700
19.816600 5.214600
19.832600 5.106800
19.848600 4.980800
19.864600 4.917900
19.880500 4.876500
19.896500 4.842000
19.912500 4.811000
19.928400 5.668100
19.944400 6.594400
19.960400 7.541000
19.976300 8.838700
19.992300 6.036800
20.008300 6.252900
20.024200 6.471800
20.040200 6.715800
20.056200 6.959900
20.072200 7.224700
20.088100 4.674800
20.104100 4.564400
20.120100 4.454100
20.136000 4.343700
20.152000 4.232800
20.168000 4.117200
20.183900 4.001500
20.199900 3.934300
20.215900 3.923800
20.231900 3.913300
20.247800 3.902800
20.263800 3.892400
20.279800 3.881900
20.295700 3.871100
20.311700 3.858300
20.327700 3.863500
20.343600 3.880000
20.359600 3.897000
20.375600 3.914000
20.391600 3.931000
20.407500 3.744300
20.423500 3.269500
20.439500 3.042300
20.455400 3.060300
20.471400 3.078400
20.487400 3.096500
20.503300 3.114500
20.519300 3.132600
20.535300 3.150700
20.551200 3.168700
20.567200 3.186800
20.583200 2.253500
20.599200 2.219500
20.615100 2.185500
20.631100 2.151600
20.647100 2.117600
20.663000 2.083700
20.679000 2.049700
20.695000 2.016000
20.710900 1.985300
20.726900 1.955300
20.742900 1.928500
20.758900 1.903600
20.774800 1.880100
20.790800 1.856700
20.806800 3.191700
20.822700 6.474900
20.838700 1.448600
20.854700 1.430800
20.870600 1.413000
20.886600 1.395200
20.902600 1.377500
20.918600 1.359700
20.934500 1.341900
20.950500 1.324200
20.966500 1.306400
20.982400 1.288600
20.998400 1.270800
21.014400 4.549200
21.030300 2.599200
21.046300 1.483500
21.062300 1.598500
21.078200 1.471600
21.094200 1.344700
21.110200 1.217800
21.126200 1.090900
21.142100 0.964000
21.158100 0.837100
21.174100 0.710200
21.190000 0.583300
21.206000 0.495900
21.222000 0.453700
21.237900 0.448100
21.253900 0.442400
21.269900 0.436800
21.285900 0.431100
21.301800 0.425500
21.317800 0.419800
21.333800 0.414200
21.349700 0.408500
21.365700 0.414600
21.381700 0.425700
21.397600 0.448400
21.413600 0.480300
21.429600 0.512300
21.445600 0.544300
21.461500 0.576200
21.477500 0.608200
21.493500 0.640200
21.509400 0.672100
21.525400 0.406200
21.541400 0.423500
21.557300 0.440800
21.573300 0.178200
21.589300 0.182400
21.605200 0.186600
21.621200 0.190800
21.637200 0.195000
21.653200 0.000000
21.669100 0.000000
21.685100 0.000000
21.701100 0.000000
21.717000 0.000000
21.733000 0.000000
21.749000 0.000000
21.764900 0.000000
21.780900 0.000000
21.796900 0.000000
21.812900 0.000000
21.828800 0.000000
21.844800 0.000000
21.860800 0.000000
21.876700 0.000000
21.892700 0.000000
21.908700 0.000000
21.924600 0.000000
21.940600 0.000000
21.956600 0.000000
21.972500 0.000000
21.988500 0.000000
22.004500 0.000000
22.020500 0.000000
22.036400 0.000000
22.052400 0.000000
22.068400 0.000000
22.084300 0.000000
22.100300 0.000000
22.116300 0.000000
22.132200 0.000000
22.148200 0.000000
22.164200 0.000000
22.180200 0.000000
22.196100 0.000000
22.212100 0.000000
22.228100 0.000000
22.244000 0.000000
22.260000 0.000000
22.276000 0.000000
22.291900 0.000000
22.307900 0.000000
22.323900 0.000000
22.339900 0.000000
22.355800 0.000000
22.371800 0.000000
22.387800 0.000000
22.403700 0.000000
22.419700 0.000000
22.435700 0.000000
22.451600 0.000000
22.467600 0.000000
22.483600 0.000000
22.499500 0.000000
22.515500 0.000000
22.531500 0.000000
22.547500 0.000000
22.563400 0.000000
22.579400 0.000000
22.595400 0.000000
22.611300 0.000000
22.627300 0.000000
22.643300 0.000000
22.659200 0.000000
22.675200 0.000000
22.691200 0.000000
22.707200 0.000000
22.723100 0.000000
22.739100 0.000000
22.755100 0.000000
22.771000 0.000000
22.787000 0.000000
22.803000 0.000000
22.818900 0.000000
22.834900 0.000000
22.850900 0.000000
22.866900 0.000000
22.882800 0.000000
22.898800 0.000000
22.914800 0.000000
22.930700 0.000000
22.946700 0.000000
22.962700 0.000000
22.978600 0.000000
22.994600 0.000000
23.010600 0.000000
23.026500 0.000000
23.042500 0.000000
23.058500 0.000000
23.074500 0.000000
23.090400 0.000000
e
