set title 'mp-1079269 - Density of States'
set xlabel 'Energy (eV)'
set ylabel 'DOS (states/eV)'
set grid
set xrange [-10:10]
set yrange [0:19.231]
set xzeroaxis lt -1
set terminal png size 800,600
set output 'mp-1079269_dos_gnuplot.png'
plot '-' using 1:2 with lines title 'DOS'
-4.657400 0.000000
-4.645300 0.000000
-4.633100 0.000000
-4.621000 0.000000
-4.608900 0.000000
-4.596700 0.000000
-4.584600 0.000000
-4.572500 0.000000
-4.560300 0.000000
-4.548200 0.000000
-4.536100 0.000000
-4.524000 0.000000
-4.511800 0.000000
-4.499700 0.000000
-4.487600 0.000000
-4.475400 0.000000
-4.463300 0.000000
-4.451200 0.000000
-4.439000 0.000000
-4.426900 0.000000
-4.414800 0.000000
-4.402600 0.000000
-4.390500 0.000000
-4.378400 0.000000
-4.366200 0.000000
-4.354100 0.000000
-4.342000 0.000000
-4.329800 0.000000
-4.317700 0.000000
-4.305600 0.000000
-4.293400 0.000000
-4.281300 0.000000
-4.269200 0.000000
-4.257000 0.000000
-4.244900 0.000000
-4.232800 0.000000
-4.220600 0.000000
-4.208500 0.000000
-4.196400 0.000000
-4.184200 0.000000
-4.172100 0.000000
-4.160000 0.000000
-4.147800 0.000000
-4.135700 0.000000
-4.123600 0.000000
-4.111400 0.000000
-4.099300 0.000000
-4.087200 0.000000
-4.075000 0.000000
-4.062900 0.000000
-4.050800 0.000000
-4.038600 0.000000
-4.026500 0.000000
-4.014400 0.000000
-4.002200 0.000000
-3.990100 0.000000
-3.978000 0.000000
-3.965800 0.000000
-3.953700 0.000000
-3.941600 0.000000
-3.929400 0.000000
-3.917300 0.000000
-3.905200 0.000000
-3.893000 0.000000
-3.880900 0.000000
-3.868800 0.000000
-3.856600 0.000000
-3.844500 0.000000
-3.832400 0.000000
-3.820200 0.000000
-3.808100 0.000000
-3.796000 0.000000
-3.783800 0.000000
-3.771700 0.000000
-3.759600 0.000000
-3.747400 0.000000
-3.735300 0.000000
-3.723200 0.000000
-3.711000 0.000000
-3.698900 0.000000
-3.686800 0.000000
-3.674600 0.000000
-3.662500 0.000000
-3.650400 0.000000
-3.638200 0.000000
-3.626100 0.000000
-3.614000 0.000000
-3.601800 0.000000
-3.589700 0.000000
-3.577600 0.000000
-3.565400 0.000000
-3.553300 0.000100
-3.541200 0.007900
-3.529000 0.029100
-3.516900 0.063500
-3.504800 0.109900
-3.492600 0.150500
-3.480500 0.177700
-3.468400 0.191600
-3.456300 0.194600
-3.444100 0.199600
-3.432000 0.209200
-3.419900 0.223400
-3.407700 0.241000
-3.395600 0.259300
-3.383500 0.278200
-3.371300 0.297200
-3.359200 0.313600
-3.347100 0.325800
-3.334900 0.333000
-3.322800 0.336700
-3.310700 0.340600
-3.298500 0.346500
-3.286400 0.354900
-3.274300 0.364700
-3.262100 0.374800
-3.250000 0.384800
-3.237900 0.394700
-3.225700 0.404500
-3.213600 0.414200
-3.201500 0.423800
-3.189300 0.433600
-3.177200 0.443800
-3.165100 0.454700
-3.152900 0.466100
-3.140800 0.476600
-3.128700 0.485800
-3.116500 0.493400
-3.104400 0.500100
-3.092300 0.506600
-3.080100 0.513000
-3.068000 0.519700
-3.055900 0.526800
-3.043700 0.534200
-3.031600 0.541600
-3.019500 0.549000
-3.007300 0.556300
-2.995200 0.563400
-2.983100 0.570600
-2.970900 0.578000
-2.958800 0.586000
-2.946700 0.594600
-2.934500 0.603500
-2.922400 0.612600
-2.910300 0.621800
-2.898100 0.631000
-2.886000 0.640400
-2.873900 0.649900
-2.861700 0.659100
-2.849600 0.667600
-2.837500 0.675300
-2.825300 0.682400
-2.813200 0.689700
-2.801100 0.697300
-2.788900 0.704700
-2.776800 0.712000
-2.764700 0.718800
-2.752500 0.725700
-2.740400 0.732900
-2.728300 0.740500
-2.716100 0.748500
-2.704000 0.756600
-2.691900 0.764800
-2.679700 0.773000
-2.667600 0.781400
-2.655500 0.789900
-2.643300 0.798400
-2.631200 0.807000
-2.619100 0.815800
-2.606900 0.824700
-2.594800 0.833600
-2.582700 0.842600
-2.570500 0.851600
-2.558400 0.860600
-2.546300 0.869600
-2.534100 0.878700
-2.522000 0.928300
-2.509900 1.005200
-2.497700 1.077100
-2.485600 1.107000
-2.473500 1.078900
-2.461300 1.052800
-2.449200 1.036900
-2.437100 1.044900
-2.424900 1.052200
-2.412800 1.058900
-2.400700 1.065000
-2.388600 1.070400
-2.376400 1.069100
-2.364300 1.059200
-2.352200 1.046000
-2.340000 1.036800
-2.327900 1.034900
-2.315800 1.034700
-2.303600 1.034200
-2.291500 1.033600
-2.279400 1.032800
-2.267200 1.032100
-2.255100 1.031700
-2.243000 1.031500
-2.230800 1.031500
-2.218700 1.032900
-2.206600 1.031400
-2.194400 1.030200
-2.182300 1.028900
-2.170200 1.025900
-2.158000 1.022800
-2.145900 1.078400
-2.133800 1.185100
-2.121600 1.298300
-2.109500 1.301700
-2.097400 1.285300
-2.085200 1.275700
-2.073100 1.300800
-2.061000 1.327700
-2.048800 1.355500
-2.036700 1.383900
-2.024600 1.404600
-2.012400 1.418900
-2.000300 1.428400
-1.988200 1.446700
-1.976000 1.470900
-1.963900 1.494400
-1.951800 1.518100
-1.939600 1.541900
-1.927500 1.564800
-1.915400 1.588700
-1.903200 1.614500
-1.891100 1.646500
-1.879000 1.680600
-1.866800 1.713600
-1.854700 1.744300
-1.842600 1.773700
-1.830400 1.861500
-1.818300 1.878400
-1.806200 1.897500
-1.794000 1.884700
-1.781900 1.991600
-1.769800 2.132500
-1.757600 2.257600
-1.745500 2.364000
-1.733400 2.333500
-1.721200 2.302200
-1.709100 2.262300
-1.697000 2.289300
-1.684800 2.348700
-1.672700 2.441200
-1.660600 2.503000
-1.648400 2.553200
-1.636300 2.533600
-1.624200 2.485300
-1.612000 2.504900
-1.599900 2.524300
-1.587800 2.543300
-1.575600 2.549600
-1.563500 2.552500
-1.551400 2.550500
-1.539200 2.567000
-1.527100 2.579600
-1.515000 2.586000
-1.502800 2.592400
-1.490700 2.609300
-1.478600 2.638300
-1.466400 2.681600
-1.454300 2.734700
-1.442200 2.768800
-1.430000 2.826100
-1.417900 2.874400
-1.405800 2.913100
-1.393600 2.952800
-1.381500 3.001900
-1.369400 3.052100
-1.357200 3.101400
-1.345100 3.186900
-1.333000 3.523300
-1.320900 3.875300
-1.308700 4.104400
-1.296600 4.398600
-1.284500 4.894000
-1.272300 5.456600
-1.260200 6.387900
-1.248100 7.891400
-1.235900 9.108600
-1.223800 6.388300
-1.211700 5.699200
-1.199500 4.967900
-1.187400 4.406300
-1.175300 4.050900
-1.163100 3.992000
-1.151000 3.820100
-1.138900 3.054100
-1.126700 2.440700
-1.114600 2.122700
-1.102500 1.950200
-1.090300 1.807100
-1.078200 1.675200
-1.066100 1.504300
-1.053900 1.412800
-1.041800 1.328900
-1.029700 1.248800
-1.017500 1.171700
-1.005400 1.096500
-0.993300 1.026200
-0.981100 0.950500
-0.969000 0.893100
-0.956900 0.833900
-0.944700 0.779800
-0.932600 0.719000
-0.920500 0.662600
-0.908300 0.598900
-0.896200 0.563500
-0.884100 0.507300
-0.871900 0.453100
-0.859800 0.397800
-0.847700 0.331800
-0.835500 0.270700
-0.823400 0.214400
-0.811300 0.103300
-0.799100 0.000000
-0.787000 0.000000
-0.774900 0.000000
-0.762700 0.000000
-0.750600 0.000000
-0.738500 0.000000
-0.726300 0.000000
-0.714200 0.000000
-0.702100 0.000000
-0.689900 0.000000
-0.677800 0.000000
-0.665700 0.000000
-0.653500 0.000000
-0.641400 0.000000
-0.629300 0.000000
-0.617100 0.000000
-0.605000 0.000000
-0.592900 0.000000
-0.580700 0.000000
-0.568600 0.000000
-0.556500 0.000000
-0.544300 0.000000
-0.532200 0.000000
-0.520100 0.000000
-0.507900 0.000000
-0.495800 0.000000
-0.483700 0.000000
-0.471500 0.000000
-0.459400 0.000000
-0.447300 0.000000
-0.435100 0.000000
-0.423000 0.000000
-0.410900 0.000000
-0.398700 0.000000
-0.386600 0.000000
-0.374500 0.000000
-0.362300 0.000000
-0.350200 0.000000
-0.338100 0.000000
-0.325900 0.000000
-0.313800 0.000000
-0.301700 0.000000
-0.289500 0.000000
-0.277400 0.000000
-0.265300 0.000000
-0.253200 0.000000
-0.241000 0.000000
-0.228900 0.000000
-0.216800 0.000000
-0.204600 0.000000
-0.192500 0.000000
-0.180400 0.000000
-0.168200 0.000000
-0.156100 0.000000
-0.144000 0.000000
-0.131800 0.000000
-0.119700 0.000000
-0.107600 0.000000
-0.095400 0.000000
-0.083300 0.003300
-0.071200 0.038400
-0.059000 0.075900
-0.046900 0.115700
-0.034800 0.121700
-0.022600 0.117300
-0.010500 0.112300
0.001600 0.115500
0.013800 0.125500
0.025900 0.135700
0.038000 0.146300
0.050200 0.157100
0.062300 0.168300
0.074400 0.178300
0.086600 0.180300
0.098700 0.182000
0.110800 0.185400
0.123000 0.193200
0.135100 0.201100
0.147200 0.209100
0.159400 0.274200
0.171500 0.300300
0.183600 0.328300
0.195800 0.358200
0.207900 0.349700
0.220000 0.371800
0.232200 0.456100
0.244300 0.491600
0.256400 0.528500
0.268600 0.528200
0.280700 0.556300
0.292800 0.584900
0.305000 0.625000
0.317100 0.673000
0.329200 0.695900
0.341400 0.707400
0.353500 0.709900
0.365600 0.723500
0.377800 0.748100
0.389900 0.775100
0.402000 0.794300
0.414200 0.819600
0.426300 0.845200
0.438400 0.870900
0.450600 0.896900
0.462700 0.922800
0.474800 0.944200
0.487000 0.967700
0.499100 0.994100
0.511200 1.021000
0.523400 1.049000
0.535500 1.077000
0.547600 1.113200
0.559800 1.148600
0.571900 1.181900
0.584000 1.210200
0.596200 1.235500
0.608300 1.261800
0.620400 1.288000
0.632600 1.314200
0.644700 1.341100
0.656800 1.368400
0.669000 1.397600
0.681100 1.430000
0.693200 1.463700
0.705400 1.497500
0.717500 1.531700
0.729600 1.571400
0.741800 1.610400
0.753900 1.653900
0.766000 1.700700
0.778200 1.749700
0.790300 2.061200
0.802400 2.139600
0.814500 2.034000
0.826700 2.087000
0.838800 2.136600
0.850900 2.184400
0.863100 2.202000
0.875200 2.252100
0.887300 2.315200
0.899500 2.375100
0.911600 2.423300
0.923700 2.477500
0.935900 2.528500
0.948000 2.588900
0.960100 2.654700
0.972300 2.724600
0.984400 2.801000
0.996500 2.882700
1.008700 2.995400
1.020800 3.091200
1.032900 3.215400
1.045100 3.445900
1.057200 4.191600
1.069300 5.121300
1.081500 5.606300
1.093600 6.866800
1.105700 6.872300
1.117900 7.347700
1.130000 7.379000
1.142100 6.048800
1.154300 6.215400
1.166400 6.218600
1.178500 6.039500
1.190700 5.970700
1.202800 5.421200
1.214900 5.316200
1.227100 5.350000
1.239200 5.073100
1.251300 4.728200
1.263500 4.397900
1.275600 4.308100
1.287700 4.175400
1.299900 4.368900
1.312000 4.237300
1.324100 4.274500
1.336300 4.163300
1.348400 4.309700
1.360500 4.345100
1.372700 4.863700
1.384800 4.761500
1.396900 4.772900
1.409100 4.917300
1.421200 4.960600
1.433300 5.074600
1.445500 5.607600
1.457600 5.780700
1.469700 5.576800
1.481900 5.070600
1.494000 4.788200
1.506100 5.096200
1.518300 5.439000
1.530400 5.554300
1.542500 5.373100
1.554700 4.656800
1.566800 3.600000
1.578900 3.089200
1.591100 3.149400
1.603200 3.287500
1.615300 3.500500
1.627500 3.717500
1.639600 3.741500
1.651700 4.078000
1.663900 4.502500
1.676000 4.805500
1.688100 5.429700
1.700300 5.886800
1.712400 6.010600
1.724500 5.633600
1.736700 5.506300
1.748800 5.566000
1.760900 5.843900
1.773100 5.913800
1.785200 5.888200
1.797300 5.683000
1.809500 5.647900
1.821600 5.642400
1.833700 5.633500
1.845900 5.625700
1.858000 5.611200
1.870100 5.635500
1.882300 5.730900
1.894400 5.859300
1.906500 5.906800
1.918600 5.898700
1.930800 6.086300
1.942900 5.922900
1.955000 5.913800
1.967200 5.986200
1.979300 5.985000
1.991400 6.492300
2.003600 6.164100
2.015700 6.790400
2.027800 6.740900
2.040000 6.937700
2.052100 8.469200
2.064200 10.144500
2.076400 8.900500
2.088500 8.034200
2.100600 6.910700
2.112800 6.291900
2.124900 5.711100
2.137000 5.607200
2.149200 4.699500
2.161300 4.335400
2.173400 3.453200
2.185600 3.204500
2.197700 3.203200
2.209800 3.189500
2.222000 3.478900
2.234100 3.307900
2.246200 3.016500
2.258400 2.709300
2.270500 2.360300
2.282600 2.022000
2.294800 1.763200
2.306900 1.601800
2.319000 1.448100
2.331200 1.450800
2.343300 1.588600
2.355400 1.880800
2.367600 2.284200
2.379700 2.923200
2.391800 4.116800
2.404000 4.920700
2.416100 5.199200
2.428200 4.891300
2.440400 4.876300
2.452500 4.933300
2.464600 5.495000
2.476800 6.423700
2.488900 7.185900
2.501000 7.290500
2.513200 6.977700
2.525300 7.076800
2.537400 7.263600
2.549600 7.515900
2.561700 7.864600
2.573800 8.178800
2.586000 8.436500
2.598100 8.571900
2.610200 8.487400
2.622400 8.372200
2.634500 8.501400
2.646600 8.971300
2.658800 10.086000
2.670900 9.902300
2.683000 10.073300
2.695200 9.674600
2.707300 8.852300
2.719400 8.985900
2.731600 9.436200
2.743700 9.650400
2.755800 9.827100
2.768000 10.905000
2.780100 10.464000
2.792200 11.645300
2.804400 10.473800
2.816500 10.304300
2.828600 10.465300
2.840800 11.237000
2.852900 12.057800
2.865000 13.990500
2.877200 14.973800
2.889300 14.355200
2.901400 13.346700
2.913600 12.072200
2.925700 11.236900
2.937800 11.072100
2.950000 11.252800
2.962100 10.198100
2.974200 9.925300
2.986300 9.612800
2.998500 9.885900
3.010600 9.761000
3.022700 9.566800
3.034900 9.493800
3.047000 9.759200
3.059100 10.082000
3.071300 10.401200
3.083400 10.692100
3.095500 10.998500
3.107700 10.492900
3.119800 10.065700
3.131900 9.738700
3.144100 9.276200
3.156200 9.012300
3.168300 8.986300
3.180500 9.361200
3.192600 9.834800
3.204700 10.358800
3.216900 11.154400
3.229000 11.270200
3.241100 10.184500
3.253300 10.008300
3.265400 9.871300
3.277500 10.116900
3.289700 10.290100
3.301800 9.833800
3.313900 8.963700
3.326100 8.261200
3.338200 7.824300
3.350300 7.579500
3.362500 7.883500
3.374600 8.736800
3.386700 8.657900
3.398900 8.781100
3.411000 8.904500
3.423100 9.660700
3.435300 10.784400
3.447400 11.899600
3.459500 11.854400
3.471700 11.818700
3.483800 11.735900
3.495900 11.295400
3.508100 10.755400
3.520200 10.629400
3.532300 10.792700
3.544500 10.719800
3.556600 10.336300
3.568700 10.271400
3.580900 11.437400
3.593000 11.620700
3.605100 12.050100
3.617300 11.653000
3.629400 11.311300
3.641500 11.488000
3.653700 11.270600
3.665800 10.718300
3.677900 10.097000
3.690100 9.570600
3.702200 8.821000
3.714300 8.504700
3.726500 8.303600
3.738600 7.793700
3.750700 7.734300
3.762900 7.924000
3.775000 8.078300
3.787100 8.354200
3.799300 8.619100
3.811400 8.857700
3.823500 9.680600
3.835700 10.337000
3.847800 9.984600
3.859900 9.924300
3.872100 9.943500
3.884200 10.414600
3.896300 11.013600
3.908500 11.770100
3.920600 11.382600
3.932700 10.244900
3.944900 9.860500
3.957000 11.442800
3.969100 12.417400
3.981300 12.639800
3.993400 13.958100
4.005500 15.233600
4.017700 15.746600
4.029800 15.477200
4.041900 14.748900
4.054000 13.332800
4.066200 12.261800
4.078300 10.733700
4.090400 10.395300
4.102600 10.477300
4.114700 10.720300
4.126800 12.186500
4.139000 11.723300
4.151100 11.970500
4.163200 12.850800
4.175400 14.196900
4.187500 13.539400
4.199600 13.378600
4.211800 12.945900
4.223900 12.519100
4.236000 12.366900
4.248200 12.342100
4.260300 13.868100
4.272400 13.399800
4.284600 10.031000
4.296700 8.001200
4.308800 7.910000
4.321000 7.134800
4.333100 7.351300
4.345200 7.160100
4.357400 7.781800
4.369500 9.105000
4.381600 10.196100
4.393800 10.359700
4.405900 10.409900
4.418000 9.647200
4.430200 9.253700
4.442300 9.686700
4.454400 10.067800
4.466600 9.908300
4.478700 9.841600
4.490800 9.501200
4.503000 8.525600
4.515100 8.455800
4.527200 9.264400
4.539400 9.881600
4.551500 10.637200
4.563600 10.667100
4.575800 10.818300
4.587900 11.070000
4.600000 11.487700
4.612200 12.069500
4.624300 13.880700
4.636400 12.826600
4.648600 12.585900
4.660700 11.078300
4.672800 8.116300
4.685000 6.852800
4.697100 6.514200
4.709200 6.702500
4.721400 6.796100
4.733500 7.194800
4.745600 7.768300
4.757800 8.305600
4.769900 8.214800
4.782000 8.231300
4.794200 8.004300
4.806300 7.725100
4.818400 7.570900
4.830600 7.649500
4.842700 8.777000
4.854800 8.389400
4.867000 8.463800
4.879100 9.678100
4.891200 8.376400
4.903400 8.034300
4.915500 7.676700
4.927600 7.482100
4.939800 7.566100
4.951900 7.568900
4.964000 7.659100
4.976200 8.120500
4.988300 7.908900
5.000400 7.709700
5.012600 8.150000
5.024700 8.431500
5.036800 8.454900
5.049000 8.408700
5.061100 8.205100
5.073200 8.160800
5.085400 8.060200
5.097500 8.379600
5.109600 8.943700
5.121700 9.909800
5.133900 10.519800
5.146000 10.440100
5.158100 12.174800
5.170300 9.992000
5.182400 9.705000
5.194500 9.909000
5.206700 10.248500
5.218800 11.270700
5.230900 11.454900
5.243100 12.416100
5.255200 12.683600
5.267300 13.432900
5.279500 10.567000
5.291600 10.673400
5.303700 11.115500
5.315900 11.814600
5.328000 12.643000
5.340100 13.908900
5.352300 14.142700
5.364400 13.945800
5.376500 14.310700
5.388700 13.271200
5.400800 12.006400
5.412900 11.326700
5.425100 10.972200
5.437200 11.036000
5.449300 11.983700
5.461500 11.363000
5.473600 12.038400
5.485700 13.978000
5.497900 15.001700
5.510000 15.172200
5.522100 14.630200
5.534300 13.946400
5.546400 13.916700
5.558500 13.216100
5.570700 12.726600
5.582800 11.999000
5.594900 11.484300
5.607100 10.084400
5.619200 9.986700
5.631300 9.627600
5.643500 9.618900
5.655600 9.741700
5.667700 9.806000
5.679900 10.011800
5.692000 10.540700
5.704100 11.121900
5.716300 11.849300
5.728400 12.634400
5.740500 11.983800
5.752700 11.835500
5.764800 11.888100
5.776900 12.127100
5.789100 12.574900
5.801200 13.131700
5.813300 12.985400
5.825500 13.722800
5.837600 15.097800
5.849700 14.698600
5.861900 14.650100
5.874000 14.241100
5.886100 13.139100
5.898300 12.826900
5.910400 12.657700
5.922500 12.998600
5.934700 13.130200
5.946800 13.936900
5.958900 13.806800
5.971100 14.332900
5.983200 15.086700
5.995300 14.727600
6.007500 15.158300
6.019600 14.796500
6.031700 14.580000
6.043900 14.752900
6.056000 14.890900
6.068100 14.704200
6.080300 14.239200
6.092400 14.107100
6.104500 13.205900
6.116700 13.217700
6.128800 12.740300
6.140900 12.244200
6.153100 12.046600
6.165200 11.502000
6.177300 10.933200
6.189400 10.774000
6.201600 10.526900
6.213700 10.617300
6.225800 10.596700
6.238000 10.637500
6.250100 10.698900
6.262200 10.514300
6.274400 10.291800
6.286500 10.169000
6.298600 10.084700
6.310800 10.108800
6.322900 9.594900
6.335000 9.500000
6.347200 9.079600
6.359300 8.899200
6.371400 8.713600
6.383600 8.513300
6.395700 8.979400
6.407800 9.829200
6.420000 10.048000
6.432100 10.364800
6.444200 9.906700
6.456400 9.622000
6.468500 9.537100
6.480600 8.990700
6.492800 8.529300
6.504900 8.067100
6.517000 7.645800
6.529200 7.232500
6.541300 7.051200
6.553400 7.107900
6.565600 7.417600
6.577700 7.525700
6.589800 7.725100
6.602000 7.941000
6.614100 8.900300
6.626200 8.825500
6.638400 9.627000
6.650500 9.910400
6.662600 17.482500
6.674800 10.051600
6.686900 10.056000
6.699000 10.059900
6.711200 10.867300
6.723300 11.726000
6.735400 10.743800
6.747600 10.837500
6.759700 11.159600
6.771800 11.736800
6.784000 12.020800
6.796100 12.421600
6.808200 12.389800
6.820400 12.491600
6.832500 11.864900
6.844600 10.425000
6.856800 10.128900
6.868900 10.698900
6.881000 10.101400
6.893200 10.439200
6.905300 10.321900
6.917400 9.078200
6.929600 9.054000
6.941700 9.300600
6.953800 8.956200
6.966000 8.362800
6.978100 7.306200
6.990200 6.948200
7.002400 6.580600
7.014500 6.312900
7.026600 6.062100
7.038800 5.866600
7.050900 5.712700
7.063000 6.518500
7.075200 6.093700
7.087300 6.325300
7.099400 6.320000
7.111600 6.402700
7.123700 6.025500
7.135800 4.387800
7.148000 4.161700
7.160100 4.174000
7.172200 4.190800
7.184400 4.226700
7.196500 4.341600
7.208600 4.441400
7.220800 4.505300
7.232900 4.532900
7.245000 4.519800
7.257100 4.517300
7.269300 4.532900
7.281400 4.280700
7.293500 4.154100
7.305700 4.036600
7.317800 3.933400
7.329900 3.874900
7.342100 3.823900
7.354200 3.777100
7.366300 3.751600
7.378500 3.737900
7.390600 3.731200
7.402700 3.718400
7.414900 3.706500
7.427000 3.698100
7.439100 3.691300
7.451300 3.691300
7.463400 3.697700
7.475500 3.718300
7.487700 3.787300
7.499800 3.850200
7.511900 3.916300
7.524100 3.989900
7.536200 4.090300
7.548300 4.202800
7.560500 4.305000
7.572600 4.318000
7.584700 4.734500
7.596900 4.963500
7.609000 5.843600
7.621100 5.014900
7.633300 5.051200
7.645400 5.120500
7.657500 5.171000
7.669700 5.954400
7.681800 5.626700
7.693900 5.790400
7.706100 6.055400
7.718200 7.981700
7.730300 9.282500
7.742500 9.518700
7.754600 8.776800
7.766700 7.935000
7.778900 6.987400
7.791000 6.551600
7.803100 6.364900
7.815300 6.208500
7.827400 6.146100
7.839500 6.128800
7.851700 6.133500
7.863800 6.069800
7.875900 6.192200
7.888100 6.403100
7.900200 6.700200
7.912300 7.045000
7.924500 7.499800
7.936600 8.032000
7.948700 8.840400
7.960900 10.505700
7.973000 13.936200
7.985100 15.335200
7.997300 14.931400
8.009400 13.611800
8.021500 10.955800
8.033700 7.569500
8.045800 6.194400
8.057900 6.122600
8.070100 6.518800
8.082200 6.996500
8.094300 7.986100
8.106500 8.858200
8.118600 10.429700
8.130700 10.789800
8.142900 9.760600
8.155000 7.332700
8.167100 6.015800
8.179300 4.940800
8.191400 4.288600
8.203500 3.908200
8.215700 3.731600
8.227800 3.556100
8.239900 3.449700
8.252100 3.380500
8.264200 3.347000
8.276300 3.302700
8.288500 3.222100
8.300600 3.118800
8.312700 3.014500
8.324800 2.894000
8.337000 2.801100
8.349100 2.740600
8.361200 2.697100
8.373400 2.337900
8.385500 2.044300
8.397600 1.819600
8.409800 1.579400
8.421900 1.321600
8.434000 1.135200
8.446200 0.978900
8.458300 0.877300
8.470400 0.824900
8.482600 0.823500
8.494700 0.844300
8.506800 0.859000
8.519000 0.823400
8.531100 0.823700
8.543200 0.819100
8.555400 0.813700
8.567500 0.806600
8.579600 0.803600
8.591800 0.803400
8.603900 0.806400
8.616000 0.812500
8.628200 0.822100
8.640300 0.835800
8.652400 0.852600
8.664600 0.974800
8.676700 0.934900
8.688800 0.961500
8.701000 1.013700
8.713100 1.074600
8.725200 1.139400
8.737400 1.204200
8.749500 1.250200
8.761600 1.306900
8.773800 1.371300
8.785900 1.437900
8.798000 1.507500
8.810200 1.588700
8.822300 1.723500
8.834400 1.890900
8.846600 2.078800
8.858700 2.180600
8.870800 2.323200
8.883000 2.548800
8.895100 2.701100
8.907200 2.850200
8.919400 3.025300
8.931500 3.227700
8.943600 3.509600
8.955800 3.678500
8.967900 3.930800
8.980000 4.114900
8.992200 4.335600
9.004300 4.604000
9.016400 4.816400
9.028600 4.785500
9.040700 4.648300
9.052800 4.466700
9.065000 4.571500
9.077100 4.343400
9.089200 4.190100
9.101400 4.157700
9.113500 4.095700
9.125600 3.990700
9.137800 4.296600
9.149900 4.576600
9.162000 4.843600
9.174200 5.218700
9.186300 11.582700
9.198400 6.672400
9.210600 6.510700
9.222700 6.609900
9.234800 7.121300
9.247000 4.315700
9.259100 4.008000
9.271200 4.836200
9.283400 4.885900
9.295500 4.874200
9.307600 4.711200
9.319800 5.007000
9.331900 5.052300
9.344000 4.859400
9.356200 4.803300
9.368300 4.765400
9.380400 4.513700
9.392500 4.487300
9.404700 4.440700
9.416800 4.358200
9.428900 4.377600
9.441100 4.394500
9.453200 4.389500
9.465300 4.460500
9.477500 4.899700
9.489600 4.870900
9.501700 4.806800
9.513900 4.602800
9.526000 4.400800
9.538100 4.453100
9.550300 4.614000
9.562400 4.783000
9.574500 5.000300
9.586700 5.024200
9.598800 5.015600
9.610900 5.442200
9.623100 5.502400
9.635200 5.242200
9.647300 4.879200
9.659500 4.523600
9.671600 4.244600
9.683700 4.038300
9.695900 3.970100
9.708000 3.945900
9.720100 3.962600
9.732300 3.992500
9.744400 3.585400
9.756500 3.467500
9.768700 3.389600
9.780800 3.326700
9.792900 3.270300
9.805100 3.252200
9.817200 3.269200
9.829300 3.195400
9.841500 3.180300
9.853600 3.166900
9.865700 3.155700
9.877900 3.135400
9.890000 3.107800
9.902100 3.095700
9.914300 3.077100
9.926400 3.092900
9.938500 3.066600
9.950700 2.949800
9.962800 2.922600
9.974900 2.898300
9.987100 2.892800
9.999200 2.889600
10.011300 2.887100
10.023500 2.886300
10.035600 2.888900
10.047700 2.893300
10.059900 2.902000
10.072000 2.886600
10.084100 2.915500
10.096300 2.970200
10.108400 3.016300
10.120500 3.061400
10.132700 3.064800
10.144800 3.072500
10.156900 3.081500
10.169100 3.095200
10.181200 3.105400
10.193300 3.119400
10.205500 3.124800
10.217600 3.135200
10.229700 3.165600
10.241900 3.181300
10.254000 3.220000
10.266100 3.197800
10.278300 3.162500
10.290400 3.135700
10.302500 3.137600
10.314700 3.151800
10.326800 3.174500
10.338900 3.218400
10.351100 3.253000
10.363200 3.293100
10.375300 3.329600
10.387500 3.377600
10.399600 3.463900
10.411700 4.038300
10.423900 3.976500
10.436000 3.862900
10.448100 3.191500
10.460200 3.327500
10.472400 3.366300
10.484500 3.401900
10.496600 3.389200
10.508800 3.156800
10.520900 3.089000
10.533000 2.868800
10.545200 2.770000
10.557300 2.732300
10.569400 2.894500
10.581600 3.019200
10.593700 3.093300
10.605800 2.815900
10.618000 2.701700
10.630100 2.523100
10.642200 2.322000
10.654400 2.156400
10.666500 2.051400
10.678600 1.975500
10.690800 1.922800
10.702900 1.877900
10.715000 1.848000
10.727200 1.816800
10.739300 1.793800
10.751400 1.781900
10.763600 1.777000
10.775700 1.773500
10.787800 1.758200
10.800000 1.790900
10.812100 1.804700
10.824200 1.827900
10.836400 1.851700
10.848500 2.016800
10.860600 1.961600
10.872800 1.973100
10.884900 2.105500
10.897000 2.204500
10.909200 2.215700
10.921300 2.225300
10.933400 2.236400
10.945600 2.187500
10.957700 2.187900
10.969800 2.186300
10.982000 2.187200
10.994100 2.197100
11.006200 2.273900
11.018400 2.306700
11.030500 2.333700
11.042600 2.364300
11.054800 2.399600
11.066900 2.467100
11.079000 2.485800
11.091200 2.397900
11.103300 2.395500
11.115400 2.344200
11.127600 2.321700
11.139700 2.305900
11.151800 2.308400
11.164000 2.325300
11.176100 2.362100
11.188200 2.424100
11.200400 2.487200
11.212500 2.587600
11.224600 2.811600
11.236800 2.823400
11.248900 2.985200
11.261000 3.091600
11.273200 3.147900
11.285300 3.184700
11.297400 3.206300
11.309600 3.206300
11.321700 3.204200
11.333800 3.340300
11.346000 3.201800
11.358100 3.094100
11.370200 2.991400
11.382400 2.902800
11.394500 2.812200
11.406600 2.653200
11.418800 2.605400
11.430900 2.539400
11.443000 2.453800
11.455200 2.412900
11.467300 2.394000
11.479400 2.387900
11.491600 2.385200
11.503700 2.386200
11.515800 2.397000
11.528000 2.426900
11.540100 2.446100
11.552200 2.469800
11.564300 2.493500
11.576500 2.517200
11.588600 2.537800
11.600700 2.532600
11.612900 2.550800
11.625000 2.635900
11.637100 2.778400
11.649300 2.869000
11.661400 2.898300
11.673500 2.908400
11.685700 2.898300
11.697800 2.858100
11.709900 2.790200
11.722100 2.769200
11.734200 2.780400
11.746300 2.803400
11.758500 2.813800
11.770600 2.803700
11.782700 2.794000
11.794900 2.797300
11.807000 2.798200
11.819100 2.805600
11.831300 2.820700
11.843400 2.850000
11.855500 2.880400
11.867700 2.915800
11.879800 3.050700
11.891900 2.844200
11.904100 2.775100
11.916200 2.773100
11.928300 2.709100
11.940500 2.541300
11.952600 2.507200
11.964700 2.494800
11.976900 2.493900
11.989000 2.493400
12.001100 2.779300
12.013300 2.909700
12.025400 2.754300
12.037500 2.795200
12.049700 2.846100
12.061800 2.933400
12.073900 3.118200
12.086100 3.254500
12.098200 3.335700
12.110300 3.381100
12.122500 3.359100
12.134600 3.232200
12.146700 3.023500
12.158900 2.782700
12.171000 2.702500
12.183100 2.606100
12.195300 2.482000
12.207400 2.400000
12.219500 2.373600
12.231700 2.809300
12.243800 2.653500
12.255900 2.729600
12.268100 2.782000
12.280200 2.836800
12.292300 2.848600
12.304500 2.864600
12.316600 2.947500
12.328700 3.083900
12.340900 3.181500
12.353000 3.211600
12.365100 3.221900
12.377300 3.215300
12.389400 3.142500
12.401500 3.121100
12.413700 3.116600
12.425800 3.057400
12.437900 2.960800
12.450100 2.903800
12.462200 2.884200
12.474300 2.865700
12.486500 2.871300
12.498600 2.881600
12.510700 2.973400
12.522900 3.049700
12.535000 2.831900
12.547100 2.859000
12.559300 2.911000
12.571400 2.883800
12.583500 2.887400
12.595700 2.882700
12.607800 2.860700
12.619900 2.852400
12.632000 2.849000
12.644200 2.831300
12.656300 2.836800
12.668400 2.844800
12.680600 2.844100
12.692700 2.865100
12.704800 2.905800
12.717000 2.982800
12.729100 3.056500
12.741200 3.089300
12.753400 3.127200
12.765500 3.171600
12.777600 3.149000
12.789800 3.165900
12.801900 3.182100
12.814000 3.203900
12.826200 3.231800
12.838300 3.258400
12.850400 3.282700
12.862600 3.304600
12.874700 3.335300
12.886800 3.352100
12.899000 3.352000
12.911100 3.355500
12.923200 3.360600
12.935400 3.404800
12.947500 3.389700
12.959600 3.344000
12.971800 3.150300
12.983900 3.006400
12.996000 2.991100
13.008200 3.011500
13.020300 3.051700
13.032400 3.047400
13.044600 3.043300
13.056700 3.039100
13.068800 3.048700
13.081000 3.054600
13.093100 3.053800
13.105200 2.956400
13.117400 2.898000
13.129500 2.909900
13.141600 2.918800
13.153800 2.938300
13.165900 2.937400
13.178000 2.932000
13.190200 2.932300
13.202300 2.935300
13.214400 2.938400
13.226600 2.944900
13.238700 2.953800
13.250800 2.963700
13.263000 2.952000
13.275100 2.974900
13.287200 2.999000
13.299400 3.023000
13.311500 3.058100
13.323600 3.101300
13.335800 3.144200
13.347900 3.229000
13.360000 3.230000
13.372200 3.220000
13.384300 3.210100
13.396400 3.197800
13.408600 3.183400
13.420700 3.156200
13.432800 3.125700
13.445000 3.106400
13.457100 3.088300
13.469200 3.064800
13.481400 3.057400
13.493500 3.050500
13.505600 3.167200
13.517800 3.213100
13.529900 3.225800
13.542000 3.236300
13.554200 3.271700
13.566300 3.327100
13.578400 3.392700
13.590600 3.481700
13.602700 3.585000
13.614800 3.673400
13.627000 3.746300
13.639100 3.847400
13.651200 3.984600
13.663400 4.088000
13.675500 4.155100
13.687600 4.218400
13.699700 4.333700
13.711900 4.436800
13.724000 4.503500
13.736100 4.525400
13.748300 4.538400
13.760400 4.491900
13.772500 4.406800
13.784700 4.262400
13.796800 4.076300
13.808900 3.882500
13.821100 3.682000
13.833200 3.513200
13.845300 3.474000
13.857500 3.381500
13.869600 3.335800
13.881700 3.073200
13.893900 2.914300
13.906000 2.851700
13.918100 2.806000
13.930300 2.791500
13.942400 2.788400
13.954500 2.785000
13.966700 2.778700
13.978800 2.780800
13.990900 2.796000
14.003100 2.802300
14.015200 2.789200
14.027300 2.759400
14.039500 2.763400
14.051600 2.773500
14.063700 2.791000
14.075900 2.808200
14.088000 2.824100
14.100100 2.838000
14.112300 2.849600
14.124400 2.858800
14.136500 2.869200
14.148700 2.874300
14.160800 2.933700
14.172900 3.018200
14.185100 2.939200
14.197200 2.853800
14.209300 2.805200
14.221500 2.586200
14.233600 2.524100
14.245700 2.573100
14.257900 2.667700
14.270000 2.829200
14.282100 3.000300
14.294300 3.043600
14.306400 3.191400
14.318500 3.601600
14.330700 3.687900
14.342800 3.858000
14.354900 3.987000
14.367100 4.068000
14.379200 4.128400
14.391300 4.205300
14.403500 4.272800
14.415600 4.287300
14.427700 4.377600
14.439900 4.436600
14.452000 4.585400
14.464100 4.793400
14.476300 4.825500
14.488400 4.939300
14.500500 4.752600
14.512700 4.262200
14.524800 4.089200
14.536900 3.975200
14.549100 3.832200
14.561200 3.665700
14.573300 3.554700
14.585500 3.354100
14.597600 3.190700
14.609700 3.042600
14.621900 2.926600
14.634000 2.832000
14.646100 2.757400
14.658300 2.691500
14.670400 2.633500
14.682500 2.587700
14.694700 2.530300
14.706800 2.475200
14.718900 2.411600
14.731100 2.375800
14.743200 2.363900
14.755300 2.353600
14.767400 2.340300
14.779600 2.336100
14.791700 2.332900
14.803800 2.329300
14.816000 2.322400
14.828100 2.316900
14.840200 2.311700
14.852400 2.307000
14.864500 2.336400
14.876600 2.329700
14.888800 2.316800
14.900900 2.285500
14.913000 2.249300
14.925200 2.188900
14.937300 2.187000
14.949400 2.202300
14.961600 2.237900
14.973700 2.284800
14.985800 2.339000
14.998000 2.413600
15.010100 2.493900
15.022200 2.583000
15.034400 2.879800
15.046500 3.041200
15.058600 3.025700
15.070800 3.099600
15.082900 3.162900
15.095000 3.232300
15.107200 3.399300
15.119300 3.471600
15.131400 3.449500
15.143600 3.403200
15.155700 3.628000
15.167800 3.592600
15.180000 3.560700
15.192100 3.505500
15.204200 3.294400
15.216400 3.272900
15.228500 3.286200
15.240600 3.311500
15.252800 3.535700
15.264900 3.770400
15.277000 3.772000
15.289200 3.765100
15.301300 3.814200
15.313400 3.649400
15.325600 3.622500
15.337700 3.566800
15.349800 3.512400
15.362000 3.465100
15.374100 3.453800
15.386200 3.461400
15.398400 3.482000
15.410500 3.510700
15.422600 3.543900
15.434800 3.586100
15.446900 3.652100
15.459000 3.772100
15.471200 3.615900
15.483300 3.642100
15.495400 3.622100
15.507600 3.608600
15.519700 3.595700
15.531800 3.524000
15.544000 3.476300
15.556100 3.437800
15.568200 3.367000
15.580400 3.338500
15.592500 3.404800
15.604600 3.598800
15.616800 3.517500
15.628900 3.458100
15.641000 3.437600
15.653200 3.416500
15.665300 3.445200
15.677400 3.414900
15.689600 3.402100
15.701700 3.387400
15.713800 3.369700
15.726000 3.358400
15.738100 3.353800
15.750200 3.355900
15.762400 3.363300
15.774500 3.379500
15.786600 3.399900
15.798800 3.474900
15.810900 3.456600
15.823000 3.447000
15.835100 3.418000
15.847300 3.418000
15.859400 3.604800
15.871500 3.541500
15.883700 3.594600
15.895800 3.652800
15.907900 3.756700
15.920100 3.870400
15.932200 3.998500
15.944300 4.093000
15.956500 4.191900
15.968600 4.229100
15.980700 4.240200
15.992900 4.235200
16.005000 4.064100
16.017100 4.001200
16.029300 3.971000
16.041400 3.995300
16.053500 4.002700
16.065700 3.990400
16.077800 3.943300
16.089900 3.872500
16.102100 3.887100
16.114200 3.926300
16.126300 3.988200
16.138500 4.131800
16.150600 4.234600
16.162700 4.143700
16.174900 3.931200
16.187000 3.890300
16.199100 3.864200
16.211300 3.742800
16.223400 3.676100
16.235500 3.593300
16.247700 3.507900
16.259800 3.406300
16.271900 3.315400
16.284100 3.232900
16.296200 3.160100
16.308300 3.087000
16.320500 3.087500
16.332600 3.039300
16.344700 2.914200
16.356900 2.837400
16.369000 2.791300
16.381100 2.720600
16.393300 2.657900
16.405400 2.638200
16.417500 2.592700
16.429700 2.559700
16.441800 2.542200
16.453900 2.538500
16.466100 2.585700
16.478200 2.621600
16.490300 2.612300
16.502500 2.597300
16.514600 2.578200
16.526700 2.576500
16.538900 2.582200
16.551000 2.552700
16.563100 2.568700
16.575300 2.587400
16.587400 2.608200
16.599500 2.630300
16.611700 2.667300
16.623800 2.694100
16.635900 2.697500
16.648100 2.811900
16.660200 2.779300
16.672300 2.791400
16.684500 2.670000
16.696600 2.696900
16.708700 2.711700
16.720900 2.740100
16.733000 2.767900
16.745100 2.783600
16.757300 2.842900
16.769400 2.843400
16.781500 2.823600
16.793700 2.809400
16.805800 2.713300
16.817900 2.635500
16.830100 2.583300
16.842200 2.537900
16.854300 2.452800
16.866500 2.428400
16.878600 2.377600
16.890700 2.346500
16.902800 2.325600
16.915000 2.343300
16.927100 2.352900
16.939200 2.364200
16.951400 2.368900
16.963500 2.378200
16.975600 2.390900
16.987800 2.410100
16.999900 2.396800
17.012000 2.427000
17.024200 2.478000
17.036300 2.571900
17.048400 2.611900
17.060600 2.692800
17.072700 3.110500
17.084800 2.648000
17.097000 2.705900
17.109100 2.854100
17.121200 2.854500
17.133400 2.807500
17.145500 2.776500
17.157600 2.594000
17.169800 2.599800
17.181900 2.518500
17.194000 2.440700
17.206200 2.378500
17.218300 2.319700
17.230400 2.259900
17.242600 2.189500
17.254700 2.100700
17.266800 2.002900
17.279000 1.845200
17.291100 1.682500
17.303200 1.522000
17.315400 1.440300
17.327500 1.413300
17.339600 1.395200
17.351800 1.371800
17.363900 1.354400
17.376000 1.338500
17.388200 1.325200
17.400300 1.311300
17.412400 1.297200
17.424600 1.245800
17.436700 1.228800
17.448800 1.211100
17.461000 1.192800
17.473100 1.174100
17.485200 1.155200
17.497400 1.138900
17.509500 1.125300
17.521600 1.114200
17.533800 1.105100
17.545900 1.097100
17.558000 1.089500
17.570200 1.082200
17.582300 1.099400
17.594400 1.159200
17.606600 1.146400
17.618700 1.166600
17.630800 1.099200
17.643000 1.027000
17.655100 0.986700
17.667200 0.953000
17.679400 0.919500
17.691500 0.886700
17.703600 0.855300
17.715800 0.826300
17.727900 0.756400
17.740000 0.730700
17.752200 0.761900
17.764300 0.753000
17.776400 0.690700
17.788600 0.698500
17.800700 0.638100
17.812800 0.603100
17.825000 0.562200
17.837100 0.526200
17.849200 0.494900
17.861400 0.467400
17.873500 0.442000
17.885600 0.420900
17.897800 0.410500
17.909900 0.400300
17.922000 0.390600
17.934200 0.382600
17.946300 0.374700
17.958400 0.366800
17.970500 0.358300
17.982700 0.349300
17.994800 0.340500
18.006900 0.331800
18.019100 0.323400
18.031200 0.315200
18.043300 0.307100
18.055500 0.299300
18.067600 0.291700
18.079700 0.284200
18.091900 0.277000
18.104000 0.269900
18.116100 0.263100
18.128300 0.256300
18.140400 0.249700
18.152500 0.243200
18.164700 0.236900
18.176800 0.230700
18.188900 0.224600
18.201100 0.218600
18.213200 0.212800
18.225300 0.206600
18.237500 0.198200
18.249600 0.187600
18.261700 0.175000
18.273900 0.160200
18.286000 0.143300
18.298100 0.116900
18.310300 0.077000
18.322400 0.040100
18.334500 0.035000
18.346700 0.031500
18.358800 0.028200
18.370900 0.025000
18.383100 0.021900
18.395200 0.019100
18.407300 0.016400
18.419500 0.013800
18.431600 0.011400
18.443700 0.009100
18.455900 0.007000
18.468000 0.005100
18.480100 0.003300
18.492300 0.001600
18.504400 0.000100
18.516500 0.000000
18.528700 0.000000
18.540800 0.000000
18.552900 0.000000
18.565100 0.000000
18.577200 0.000000
18.589300 0.000000
18.601500 0.000000
18.613600 0.000000
18.625700 0.000000
18.637900 0.000000
18.650000 0.000000
18.662100 0.000000
18.674300 0.000000
18.686400 0.000000
18.698500 0.000000
18.710700 0.000000
18.722800 0.000000
18.734900 0.000000
18.747100 0.000000
18.759200 0.000000
18.771300 0.000000
18.783500 0.000000
18.795600 0.000000
18.807700 0.000000
18.819900 0.000000
18.832000 0.000000
18.844100 0.000000
18.856300 0.000000
18.868400 0.000000
18.880500 0.000000
18.892700 0.000000
18.904800 0.000000
18.916900 0.000000
18.929100 0.000000
18.941200 0.000000
18.953300 0.000000
18.965500 0.000000
18.977600 0.000000
18.989700 0.000000
19.001900 0.000000
19.014000 0.000000
19.026100 0.000000
19.038200 0.000000
19.050400 0.000000
19.062500 0.000000
19.074600 0.000000
19.086800 0.000000
19.098900 0.000000
19.111000 0.000000
19.123200 0.000000
19.135300 0.000000
19.147400 0.000000
19.159600 0.000000
19.171700 0.000000
19.183800 0.000000
19.196000 0.000000
19.208100 0.000000
19.220200 0.000000
19.232400 0.000000
19.244500 0.000000
19.256600 0.000000
19.268800 0.000000
19.280900 0.000000
19.293000 0.000000
19.305200 0.000000
19.317300 0.000000
19.329400 0.000000
19.341600 0.000000
19.353700 0.000000
19.365800 0.000000
19.378000 0.000000
19.390100 0.000000
19.402200 0.000000
19.414400 0.000000
19.426500 0.000000
19.438600 0.000000
19.450800 0.000000
19.462900 0.000000
19.475000 0.000000
19.487200 0.000000
19.499300 0.000000
19.511400 0.000000
19.523600 0.000000
19.535700 0.000000
19.547800 0.000000
19.560000 0.000000
19.572100 0.000000
19.584200 0.000000
19.596400 0.000000
19.608500 0.000000
e
