set title 'mp-10597 - Density of States'
set xlabel 'Energy (eV)'
set ylabel 'DOS (states/eV)'
set grid
set xrange [-10:10]
set yrange [0:12.552]
set xzeroaxis lt -1
set terminal png size 800,600
set output 'mp-10597_dos_gnuplot.png'
plot '-' using 1:2 with lines title 'DOS'
-5.932800 0.000000
-5.915300 0.000000
-5.897700 0.000000
-5.880200 0.000000
-5.862600 0.000000
-5.845100 0.000000
-5.827500 0.000000
-5.809900 0.000000
-5.792400 0.000000
-5.774800 0.000000
-5.757300 0.000000
-5.739700 0.000000
-5.722200 0.000000
-5.704600 0.000000
-5.687100 0.000000
-5.669500 0.000000
-5.651900 0.000000
-5.634400 0.000000
-5.616800 0.000000
-5.599300 0.000000
-5.581700 0.000000
-5.564200 0.000000
-5.546600 0.000000
-5.529100 0.000000
-5.511500 0.000000
-5.493900 0.000000
-5.476400 0.000000
-5.458800 0.000000
-5.441300 0.000000
-5.423700 0.000000
-5.406200 0.000000
-5.388600 0.000000
-5.371000 0.000000
-5.353500 0.000000
-5.335900 0.000000
-5.318400 0.000000
-5.300800 0.000000
-5.283300 0.000000
-5.265700 0.000000
-5.248200 0.000000
-5.230600 0.000000
-5.213000 0.000000
-5.195500 0.000000
-5.177900 0.000000
-5.160400 0.000000
-5.142800 0.000000
-5.125300 0.000000
-5.107700 0.000000
-5.090200 0.000000
-5.072600 0.000000
-5.055000 0.000000
-5.037500 0.000000
-5.019900 0.000000
-5.002400 0.000000
-4.984800 0.000000
-4.967300 0.000000
-4.949700 0.000000
-4.932200 0.000000
-4.914600 0.000000
-4.897000 0.000000
-4.879500 0.000000
-4.861900 0.000000
-4.844400 0.000000
-4.826800 0.000000
-4.809300 0.000000
-4.791700 0.000000
-4.774200 0.000000
-4.756600 0.000000
-4.739000 0.000000
-4.721500 0.000000
-4.703900 0.000000
-4.686400 0.000000
-4.668800 0.000000
-4.651300 0.000000
-4.633700 0.000000
-4.616100 0.000000
-4.598600 0.000000
-4.581000 0.000000
-4.563500 0.000000
-4.545900 0.000000
-4.528400 0.000000
-4.510800 0.000000
-4.493300 0.000000
-4.475700 0.000000
-4.458100 0.000000
-4.440600 0.000000
-4.423000 0.000000
-4.405500 0.000000
-4.387900 0.000000
-4.370400 0.000000
-4.352800 0.000000
-4.335300 0.000000
-4.317700 0.005200
-4.300100 0.019200
-4.282600 0.041200
-4.265000 0.049800
-4.247500 0.052900
-4.229900 0.055300
-4.212400 0.062300
-4.194800 0.069600
-4.177300 0.077100
-4.159700 0.084400
-4.142100 0.089700
-4.124600 0.092500
-4.107000 0.094100
-4.089500 0.097600
-4.071900 0.101800
-4.054400 0.106200
-4.036800 0.110700
-4.019300 0.115100
-4.001700 0.119500
-3.984100 0.124100
-3.966600 0.128900
-3.949000 0.132900
-3.931500 0.136400
-3.913900 0.139500
-3.896400 0.142600
-3.878800 0.146000
-3.861200 0.149300
-3.843700 0.152700
-3.826100 0.156200
-3.808600 0.159800
-3.791000 0.163600
-3.773500 0.167600
-3.755900 0.171700
-3.738400 0.176000
-3.720800 0.180300
-3.703200 0.184700
-3.685700 0.188700
-3.668100 0.192300
-3.650600 0.195900
-3.633000 0.199600
-3.615500 0.203400
-3.597900 0.207300
-3.580400 0.211500
-3.562800 0.215900
-3.545200 0.220300
-3.527700 0.224800
-3.510100 0.229400
-3.492600 0.234200
-3.475000 0.239100
-3.457500 0.244000
-3.439900 0.249100
-3.422400 0.254200
-3.404800 0.259400
-3.387200 0.264600
-3.369700 0.269900
-3.352100 0.275700
-3.334600 0.282300
-3.317000 0.289100
-3.299500 0.296000
-3.281900 0.303300
-3.264400 0.310800
-3.246800 0.318700
-3.229200 0.326700
-3.211700 0.335000
-3.194100 0.343500
-3.176600 0.352300
-3.159000 0.361500
-3.141500 0.371100
-3.123900 0.381100
-3.106400 0.394900
-3.088800 0.420000
-3.071200 0.443600
-3.053700 0.677700
-3.036100 1.192700
-3.018600 1.460100
-3.001000 1.710000
-2.983500 2.111900
-2.965900 2.821600
-2.948300 3.110800
-2.930800 3.252800
-2.913200 3.472600
-2.895700 3.781200
-2.878100 4.228400
-2.860600 4.677400
-2.843000 5.174700
-2.825500 5.457900
-2.807900 5.664400
-2.790300 5.388000
-2.772800 5.455500
-2.755200 5.563100
-2.737700 5.614100
-2.720100 5.725200
-2.702600 5.868200
-2.685000 6.092400
-2.667500 6.460500
-2.649900 6.929600
-2.632300 7.935500
-2.614800 7.866800
-2.597200 7.630600
-2.579700 7.873800
-2.562100 7.387100
-2.544600 7.497700
-2.527000 6.580800
-2.509500 6.138500
-2.491900 5.748400
-2.474300 5.514300
-2.456800 5.372900
-2.439200 5.229900
-2.421700 5.065700
-2.404100 5.448100
-2.386600 5.996100
-2.369000 6.757800
-2.351500 5.603600
-2.333900 5.249800
-2.316300 5.043500
-2.298800 4.978600
-2.281200 5.341400
-2.263700 5.518700
-2.246100 5.690400
-2.228600 5.754900
-2.211000 5.939900
-2.193400 6.885200
-2.175900 8.256500
-2.158300 7.724100
-2.140800 6.245500
-2.123200 5.692300
-2.105700 5.262000
-2.088100 5.167700
-2.070600 4.844100
-2.053000 4.856700
-2.035400 4.900900
-2.017900 4.790400
-2.000300 5.091900
-1.982800 5.979900
-1.965200 6.742300
-1.947700 7.249700
-1.930100 7.093700
-1.912600 6.703300
-1.895000 6.597000
-1.877400 6.712200
-1.859900 6.576400
-1.842300 5.949500
-1.824800 5.934600
-1.807200 5.589600
-1.789700 5.270000
-1.772100 4.657100
-1.754600 4.239700
-1.737000 4.447500
-1.719400 4.723200
-1.701900 5.446600
-1.684300 5.573600
-1.666800 5.446100
-1.649200 5.991300
-1.631700 7.019300
-1.614100 6.940700
-1.596600 7.119700
-1.579000 7.617500
-1.561400 8.861200
-1.543900 9.745900
-1.526300 9.605600
-1.508800 9.023000
-1.491200 9.054600
-1.473700 8.596500
-1.456100 7.302200
-1.438600 6.336800
-1.421000 6.029500
-1.403400 6.347000
-1.385900 6.923300
-1.368300 7.266100
-1.350800 7.756900
-1.333200 7.509300
-1.315700 8.039900
-1.298100 7.527200
-1.280500 6.749200
-1.263000 6.827700
-1.245400 7.108600
-1.227900 7.297100
-1.210300 7.320500
-1.192800 7.804600
-1.175200 7.496600
-1.157700 7.448700
-1.140100 7.851300
-1.122500 8.399700
-1.105000 7.935900
-1.087400 8.005000
-1.069900 8.092200
-1.052300 7.950900
-1.034800 7.754900
-1.017200 7.171900
-0.999700 6.971300
-0.982100 6.861600
-0.964500 7.443700
-0.947000 6.921300
-0.929400 6.036600
-0.911900 5.601700
-0.894300 5.493700
-0.876800 5.370900
-0.859200 5.342200
-0.841700 5.251100
-0.824100 5.216400
-0.806500 5.617500
-0.789000 5.751000
-0.771400 5.721900
-0.753900 5.563400
-0.736300 5.441800
-0.718800 5.297200
-0.701200 5.321300
-0.683700 5.320300
-0.666100 5.407600
-0.648500 5.391200
-0.631000 5.458600
-0.613400 5.512700
-0.595900 5.632300
-0.578300 5.710500
-0.560800 5.522700
-0.543200 5.369700
-0.525600 5.294600
-0.508100 5.348500
-0.490500 5.290100
-0.473000 5.224300
-0.455400 6.077900
-0.437900 5.089100
-0.420300 4.986200
-0.402800 4.970000
-0.385200 4.890500
-0.367600 4.941800
-0.350100 7.578700
-0.332500 5.372500
-0.315000 6.233000
-0.297400 6.484600
-0.279900 6.522900
-0.262300 7.093700
-0.244800 6.434300
-0.227200 6.861900
-0.209600 6.879500
-0.192100 6.890000
-0.174500 7.121400
-0.157000 7.490600
-0.139400 8.211800
-0.121900 8.839700
-0.104300 9.548200
-0.086800 10.325900
-0.069200 11.060400
-0.051600 10.916000
-0.034100 11.410500
-0.016500 11.290700
0.001000 10.554000
0.018600 9.909400
0.036100 11.380900
0.053700 10.654700
0.071200 8.675800
0.088800 8.122000
0.106400 7.795200
0.123900 3.400400
0.141500 0.594900
0.159000 0.584600
0.176600 0.576800
0.194100 0.569000
0.211700 0.566000
0.229200 0.564100
0.246800 0.563100
0.264400 0.562300
0.281900 0.561600
0.299500 0.561100
0.317000 0.557900
0.334600 0.541300
0.352100 0.526700
0.369700 0.512600
0.387300 0.500400
0.404800 0.492900
0.422400 0.486600
0.439900 0.481000
0.457500 0.473500
0.475000 0.469000
0.492600 0.465700
0.510100 0.463200
0.527700 0.461300
0.545300 0.460100
0.562800 0.459100
0.580400 0.458100
0.597900 0.457100
0.615500 0.456300
0.633000 0.455400
0.650600 0.455200
0.668100 0.455400
0.685700 0.455600
0.703300 0.455900
0.720800 0.456500
0.738400 0.457000
0.755900 0.457500
0.773500 0.458100
0.791000 0.458600
0.808600 0.459200
0.826100 0.458400
0.843700 0.457800
0.861300 0.457500
0.878800 0.458000
0.896400 0.458100
0.913900 0.456000
0.931500 0.455000
0.949000 0.454000
0.966600 0.453200
0.984100 0.451700
1.001700 0.450900
1.019300 0.450600
1.036800 0.450300
1.054400 0.450000
1.071900 0.449700
1.089500 0.449300
1.107000 0.449500
1.124600 0.449800
1.142200 0.450200
1.159700 0.450700
1.177300 0.451300
1.194800 0.451900
1.212400 0.452500
1.229900 0.453100
1.247500 0.453800
1.265000 0.454400
1.282600 0.455200
1.300200 0.456100
1.317700 0.457100
1.335300 0.458000
1.352800 0.457800
1.370400 0.458200
1.387900 0.458800
1.405500 0.458200
1.423000 0.458600
1.440600 0.459000
1.458200 0.459600
1.475700 0.460300
1.493300 0.461100
1.510800 0.461800
1.528400 0.462700
1.545900 0.463600
1.563500 0.464500
1.581000 0.465500
1.598600 0.465800
1.616200 0.465900
1.633700 0.466200
1.651300 0.466500
1.668800 0.466900
1.686400 0.467300
1.703900 0.467800
1.721500 0.468400
1.739000 0.469000
1.756600 0.469600
1.774200 0.470200
1.791700 0.470900
1.809300 0.471700
1.826800 0.472500
1.844400 0.473500
1.861900 0.474500
1.879500 0.475500
1.897000 0.476500
1.914600 0.477600
1.932200 0.477800
1.949700 0.478200
1.967300 0.478900
1.984800 0.479500
2.002400 0.480200
2.019900 0.480000
2.037500 0.480600
2.055100 0.481400
2.072600 0.482300
2.090200 0.483300
2.107700 0.484400
2.125300 0.485600
2.142800 0.486700
2.160400 0.487900
2.177900 0.489200
2.195500 0.490400
2.213100 0.491700
2.230600 0.493000
2.248200 0.494400
2.265700 0.495700
2.283300 0.497100
2.300800 0.498500
2.318400 0.499900
2.335900 0.501300
2.353500 0.502700
2.371100 0.504100
2.388600 0.505300
2.406200 0.506300
2.423700 0.507300
2.441300 0.508500
2.458800 0.509800
2.476400 0.511200
2.493900 0.512600
2.511500 0.514200
2.529100 0.516000
2.546600 0.517900
2.564200 0.520000
2.581700 0.521600
2.599300 0.523300
2.616800 0.525400
2.634400 0.527300
2.651900 0.529200
2.669500 0.531200
2.687100 0.533300
2.704600 0.535500
2.722200 0.538000
2.739700 0.540500
2.757300 0.543200
2.774800 0.546000
2.792400 0.548200
2.810000 0.550900
2.827500 0.553700
2.845100 0.556500
2.862600 0.559200
2.880200 0.561900
2.897700 0.564600
2.915300 0.567200
2.932800 0.569600
2.950400 0.595800
2.968000 0.616900
2.985500 0.628900
3.003100 0.629300
3.020600 0.628200
3.038200 0.625700
3.055700 0.622000
3.073300 0.614400
3.090800 0.604900
3.108400 0.595700
3.126000 0.590400
3.143500 0.586900
3.161100 0.584200
3.178600 0.582200
3.196200 0.581400
3.213700 0.578300
3.231300 0.575000
3.248800 0.572200
3.266400 0.569600
3.284000 0.567400
3.301500 0.565500
3.319100 0.564000
3.336600 0.561900
3.354200 0.559900
3.371700 0.558200
3.389300 0.557600
3.406800 0.566000
3.424400 0.578300
3.442000 0.593100
3.459500 0.588200
3.477100 0.566800
3.494600 0.564100
3.512200 0.560900
3.529700 0.557400
3.547300 0.553500
3.564800 0.549800
3.582400 0.548300
3.600000 0.546700
3.617500 0.545100
3.635100 0.543300
3.652600 0.541100
3.670200 0.540600
3.687700 0.608100
3.705300 0.540300
3.722900 0.523700
3.740400 0.522900
3.758000 0.522100
3.775500 0.521400
3.793100 0.520800
3.810600 0.520300
3.828200 0.519900
3.845700 0.519600
3.863300 0.519400
3.880900 0.519100
3.898400 0.519100
3.916000 0.519400
3.933500 0.520000
3.951100 0.529900
3.968600 0.542700
3.986200 0.517100
4.003700 0.517400
4.021300 0.518100
4.038900 0.519300
4.056400 0.521200
4.074000 0.522700
4.091500 0.523100
4.109100 0.523200
4.126600 0.522900
4.144200 0.524200
4.161700 0.527400
4.179300 0.530800
4.196900 0.534100
4.214400 0.537100
4.232000 0.539600
4.249500 0.540400
4.267100 0.543800
4.284600 0.538400
4.302200 0.532100
4.319700 0.532600
4.337300 0.533600
4.354900 0.534900
4.372400 0.536700
4.390000 0.535700
4.407500 0.539700
4.425100 0.544800
4.442600 0.553500
4.460200 0.565700
4.477800 0.566800
4.495300 0.567900
4.512900 0.574900
4.530400 0.596900
4.548000 0.615300
4.565500 0.628700
4.583100 0.635900
4.600600 0.638800
4.618200 0.639700
4.635800 0.638400
4.653300 0.620900
4.670900 0.578500
4.688400 0.568400
4.706000 0.567100
4.723500 0.566000
4.741100 0.565000
4.758600 0.564000
4.776200 0.563300
4.793800 0.562400
4.811300 0.561600
4.828900 0.560800
4.846400 0.560000
4.864000 0.559900
4.881500 0.562500
4.899100 0.577200
4.916600 0.599800
4.934200 0.631100
4.951800 0.679400
4.969300 0.666300
4.986900 0.701300
5.004400 0.576000
5.022000 0.565200
5.039500 0.556300
5.057100 0.549400
5.074600 0.544100
5.092200 0.539700
5.109800 0.534900
5.127300 0.529500
5.144900 0.525000
5.162400 0.520900
5.180000 0.518500
5.197500 0.519500
5.215100 0.523600
5.232600 0.530500
5.250200 0.553400
5.267800 0.541900
5.285300 0.527800
5.302900 0.510000
5.320400 0.507500
5.338000 0.505000
5.355500 0.502500
5.373100 0.499700
5.390700 0.495800
5.408200 0.490800
5.425800 0.485000
5.443300 0.483400
5.460900 0.496000
5.478400 0.514100
5.496000 0.535500
5.513500 0.513800
5.531100 0.499800
5.548700 0.498000
5.566200 0.494500
5.583800 0.489300
5.601300 0.482100
5.618900 0.477900
5.636400 0.475900
5.654000 0.474100
5.671500 0.472000
5.689100 0.469400
5.706700 0.465500
5.724200 0.461400
5.741800 0.458900
5.759300 0.456900
5.776900 0.455400
5.794400 0.454100
5.812000 0.452300
5.829500 0.450200
5.847100 0.462400
5.864700 0.461000
5.882200 0.438300
5.899800 0.434900
5.917300 0.431400
5.934900 0.428000
5.952400 0.424500
5.970000 0.421100
5.987500 0.417700
6.005100 0.414600
6.022700 0.411200
6.040200 0.408100
6.057800 0.405100
6.075300 0.402200
6.092900 0.399600
6.110400 0.396600
6.128000 0.393500
6.145600 0.390500
6.163100 0.387500
6.180700 0.384500
6.198200 0.381500
6.215800 0.378600
6.233300 0.375800
6.250900 0.373000
6.268400 0.389100
6.286000 0.384700
6.303600 0.369100
6.321100 0.367700
6.338700 0.366500
6.356200 0.369800
6.373800 0.375400
6.391300 0.379500
6.408900 0.385200
6.426400 0.391000
6.444000 0.406800
6.461600 0.404200
6.479100 0.402100
6.496700 0.404000
6.514200 0.387300
6.531800 0.389000
6.549300 0.389900
6.566900 0.392100
6.584400 0.394600
6.602000 0.397500
6.619600 0.400300
6.637100 0.402900
6.654700 0.405300
6.672200 0.407500
6.689800 0.434200
6.707300 0.383500
6.724900 0.373600
6.742400 0.368600
6.760000 0.363300
6.777600 0.356200
6.795100 0.353900
6.812700 0.346200
6.830200 0.339100
6.847800 0.333000
6.865300 0.315100
6.882900 0.311400
6.900400 0.307800
6.918000 0.304300
6.935600 0.301200
6.953100 0.298300
6.970700 0.295000
6.988200 0.292700
7.005800 0.290700
7.023300 0.288900
7.040900 0.287100
7.058500 0.285400
7.076000 0.283800
7.093600 0.282300
7.111100 0.280800
7.128700 0.279200
7.146200 0.277600
7.163800 0.275900
7.181300 0.274200
7.198900 0.272500
7.216500 0.270800
7.234000 0.268900
7.251600 0.267000
7.269100 0.277200
7.286700 0.309700
7.304200 0.359500
7.321800 0.431000
7.339300 0.393900
7.356900 0.418700
7.374500 0.435300
7.392000 0.455700
7.409600 0.479300
7.427100 0.506200
7.444700 0.553400
7.462200 0.607200
7.479800 0.657200
7.497300 0.651900
7.514900 0.616300
7.532500 0.607500
7.550000 0.605700
7.567600 0.608600
7.585100 0.617700
7.602700 0.629400
7.620200 0.645500
7.637800 0.667900
7.655300 0.698700
7.672900 0.745100
7.690500 0.753600
7.708000 0.768200
7.725600 0.773700
7.743100 0.770600
7.760700 0.771400
7.778200 0.776100
7.795800 0.883600
7.813400 0.780600
7.830900 0.776900
7.848500 0.776100
7.866000 0.777500
7.883600 0.781200
7.901100 0.787200
7.918700 0.794800
7.936200 0.803700
7.953800 0.814000
7.971400 0.828300
7.988900 0.861400
8.006500 0.896100
8.024000 0.931700
8.041600 0.964200
8.059100 0.961600
8.076700 0.961900
8.094200 1.009000
8.111800 0.953100
8.129400 0.941900
8.146900 0.926900
8.164500 0.909200
8.182000 0.881300
8.199600 0.872400
8.217100 0.877400
8.234700 0.873600
8.252200 0.869600
8.269800 0.858600
8.287400 0.856200
8.304900 0.854200
8.322500 0.852700
8.340000 0.851500
8.357600 0.850700
8.375100 0.850300
8.392700 0.850400
8.410200 0.848800
8.427800 0.837500
8.445400 0.837100
8.462900 0.834400
8.480500 0.831900
8.498000 0.829600
8.515600 0.827500
8.533100 0.815900
8.550700 0.819700
8.568200 0.824300
8.585800 0.825400
8.603400 0.827100
8.620900 0.833100
8.638500 0.840200
8.656000 0.842800
8.673600 0.844500
8.691100 0.846000
8.708700 0.847000
8.726300 0.847200
8.743800 0.848200
8.761400 0.848400
8.778900 0.844600
8.796500 0.841000
8.814000 0.843400
8.831600 0.840700
8.849100 0.837600
8.866700 0.834100
8.884300 0.826900
8.901800 0.825700
8.919400 0.824100
8.936900 0.822000
8.954500 0.819900
8.972000 0.821200
8.989600 0.818500
9.007100 0.819600
9.024700 0.821300
9.042300 0.823200
9.059800 0.825200
9.077400 0.827400
9.094900 0.830400
9.112500 0.834300
9.130000 0.839500
9.147600 0.846100
9.165100 0.848900
9.182700 0.847100
9.200300 0.848000
9.217800 0.861500
9.235400 0.874600
9.252900 0.886800
9.270500 0.897700
9.288000 0.891700
9.305600 0.891800
9.323100 0.891700
9.340700 0.889100
9.358300 0.875300
9.375800 0.873600
9.393400 0.872500
9.410900 0.871600
9.428500 0.869200
9.446000 0.866500
9.463600 0.864000
9.481200 0.862200
9.498700 0.862500
9.516300 0.862700
9.533800 0.862800
9.551400 0.863100
9.568900 0.863700
9.586500 0.866000
9.604000 0.868100
9.621600 0.870500
9.639200 0.874200
9.656700 0.878500
9.674300 0.880700
9.691800 0.881600
9.709400 0.883500
9.726900 0.888100
9.744500 0.894500
9.762000 0.901500
9.779600 0.909100
9.797200 0.917400
9.814700 0.925000
9.832300 0.937700
9.849800 0.953500
9.867400 0.970100
9.884900 0.987600
9.902500 1.006100
9.920000 1.013200
9.937600 0.975700
9.955200 0.945400
9.972700 0.937500
9.990300 0.935200
10.007800 0.932700
10.025400 0.930300
10.042900 0.927700
10.060500 0.925500
10.078000 0.923900
10.095600 0.922100
10.113200 0.920500
10.130700 0.919300
10.148300 0.918600
10.165800 0.917900
10.183400 0.916900
10.200900 0.915300
10.218500 0.912700
10.236000 0.909200
10.253600 0.906000
10.271200 0.904400
10.288700 0.905700
10.306300 0.910800
10.323800 0.901400
10.341400 0.880400
10.358900 0.856600
10.376500 0.847500
10.394100 0.842800
10.411600 0.839100
10.429200 0.835200
10.446700 0.832700
10.464300 0.831400
10.481800 0.828300
10.499400 0.823300
10.516900 0.817500
10.534500 0.813700
10.552100 0.811600
10.569600 0.811600
10.587200 0.812400
10.604700 0.812700
10.622300 0.812400
10.639800 0.810900
10.657400 0.807300
10.674900 0.805100
10.692500 0.804400
10.710100 0.805100
10.727600 0.806800
10.745200 0.808400
10.762700 0.810100
10.780300 0.811900
10.797800 0.813900
10.815400 0.816300
10.832900 0.818100
10.850500 0.818700
10.868100 0.818900
10.885600 0.818900
10.903200 0.818600
10.920700 0.818400
10.938300 0.817200
10.955800 0.816200
10.973400 0.814100
10.990900 0.812800
11.008500 0.812100
11.026100 0.811600
11.043600 0.808600
11.061200 0.804900
11.078700 0.801400
11.096300 0.798100
11.113800 0.797100
11.131400 0.797200
11.149000 0.796500
11.166500 0.795200
11.184100 0.793800
11.201600 0.790900
11.219200 0.787600
11.236700 0.783400
11.254300 0.779300
11.271800 0.774500
11.289400 0.768700
11.307000 0.763000
11.324500 0.759700
11.342100 0.757800
11.359600 0.755800
11.377200 0.753500
11.394700 0.751100
11.412300 0.749500
11.429800 0.748200
11.447400 0.748800
11.465000 0.746800
11.482500 0.745600
11.500100 0.745900
11.517600 0.742900
11.535200 0.739700
11.552700 0.736400
11.570300 0.733300
11.587800 0.730300
11.605400 0.725700
11.623000 0.723100
11.640500 0.720200
11.658100 0.716700
11.675600 0.713200
11.693200 0.710100
11.710700 0.707000
11.728300 0.702800
11.745800 0.699900
11.763400 0.695600
11.781000 0.691200
11.798500 0.686900
11.816100 0.682900
11.833600 0.678800
11.851200 0.673700
11.868700 0.667500
11.886300 0.661100
11.903800 0.664500
11.921400 0.638900
11.939000 0.637800
11.956500 0.637100
11.974100 0.637000
11.991600 0.637400
12.009200 0.638400
12.026700 0.640000
12.044300 0.644100
12.061900 0.645500
12.079400 0.646700
12.097000 0.647200
12.114500 0.646800
12.132100 0.649500
12.149600 0.646900
12.167200 0.643100
12.184700 0.641200
12.202300 0.640700
12.219900 0.637200
12.237400 0.638000
12.255000 0.638900
12.272500 0.639900
12.290100 0.641000
12.307600 0.642200
12.325200 0.643600
12.342700 0.645200
12.360300 0.647000
12.377900 0.649000
12.395400 0.652600
12.413000 0.662000
12.430500 0.675900
12.448100 0.682000
12.465600 0.682500
12.483200 0.685400
12.500700 0.690500
12.518300 0.696200
12.535900 0.701800
12.553400 0.706900
12.571000 0.711500
12.588500 0.715500
12.606100 0.719200
12.623600 0.722700
12.641200 0.726500
12.658700 0.730400
12.676300 0.734500
12.693900 0.749400
12.711400 0.754000
12.729000 0.757800
12.746500 0.763300
12.764100 0.770400
12.781600 0.779000
12.799200 0.789500
12.816800 0.800100
12.834300 0.811000
12.851900 0.821300
12.869400 0.831000
12.887000 0.840400
12.904500 0.849700
12.922100 0.858600
12.939600 0.869100
12.957200 0.886800
12.974800 0.905000
12.992300 0.919700
13.009900 0.930400
13.027400 0.944200
13.045000 0.959500
13.062500 0.967000
13.080100 0.967300
13.097600 0.969900
13.115200 0.978100
13.132800 1.008600
13.150300 1.034700
13.167900 1.018000
13.185400 1.022600
13.203000 1.029900
13.220500 1.032900
13.238100 1.035000
13.255600 1.034600
13.273200 1.035300
13.290800 1.045500
13.308300 1.051800
13.325900 1.059400
13.343400 1.065200
13.361000 1.068700
13.378500 1.070100
13.396100 1.069300
13.413600 1.073800
13.431200 1.080800
13.448800 1.089700
13.466300 1.094500
13.483900 1.100800
13.501400 1.094500
13.519000 1.089100
13.536500 1.084600
13.554100 1.082000
13.571600 1.081900
13.589200 1.082000
13.606800 1.081300
13.624300 1.079200
13.641900 1.076500
13.659400 1.073200
13.677000 1.068900
13.694500 1.064500
13.712100 1.060000
13.729700 1.055700
13.747200 1.052700
13.764800 1.049700
13.782300 1.047000
13.799900 1.044800
13.817400 1.051400
13.835000 1.049300
13.852500 1.045900
13.870100 1.043100
13.887700 1.009400
13.905200 1.007100
13.922800 1.004600
13.940300 1.003600
13.957900 1.004300
13.975400 1.006700
13.993000 1.009700
14.010500 1.011900
14.028100 1.011700
14.045700 1.005800
14.063200 0.999400
14.080800 0.993500
14.098300 0.988200
14.115900 0.985400
14.133400 0.986800
14.151000 0.988900
14.168500 0.991000
14.186100 0.993500
14.203700 0.996000
14.221200 0.997000
14.238800 0.998100
14.256300 1.001100
14.273900 1.003900
14.291400 1.006800
14.309000 1.009500
14.326500 1.010600
14.344100 1.009800
14.361700 1.010600
14.379200 1.011000
14.396800 1.010900
14.414300 1.010400
14.431900 1.009800
14.449400 1.009200
14.467000 1.008300
14.484600 1.011300
14.502100 1.014600
14.519700 1.012100
14.537200 1.010800
14.554800 1.010400
14.572300 1.010800
14.589900 1.012000
14.607400 1.014000
14.625000 1.035200
14.642600 1.058000
14.660100 1.056900
14.677700 1.072300
14.695200 1.099900
14.712800 1.123900
14.730300 1.132000
14.747900 1.124200
14.765400 1.119800
14.783000 1.117300
14.800600 1.110900
14.818100 1.104000
14.835700 1.097600
14.853200 1.091700
14.870800 1.086700
14.888300 1.083300
14.905900 1.077000
14.923400 1.074300
14.941000 1.072300
14.958600 1.070700
14.976100 1.072100
14.993700 1.074800
15.011200 1.078500
15.028800 1.081900
15.046300 1.085000
15.063900 1.087800
15.081400 1.096800
15.099000 1.109900
15.116600 1.125000
15.134100 1.112200
15.151700 1.106700
15.169200 1.100500
15.186800 1.093700
15.204300 1.087300
15.221900 1.088800
15.239400 1.088600
15.257000 1.088700
15.274600 1.105700
15.292100 1.121700
15.309700 1.137500
15.327200 1.140000
15.344800 1.109700
15.362300 1.100100
15.379900 1.083200
15.397500 1.080000
15.415000 1.077700
15.432600 1.076500
15.450100 1.074800
15.467700 1.072900
15.485200 1.070900
15.502800 1.069200
15.520300 1.068300
15.537900 1.067400
15.555500 1.066600
15.573000 1.064900
15.590600 1.063100
15.608100 1.061300
15.625700 1.059600
15.643200 1.057900
15.660800 1.080800
15.678300 1.084300
15.695900 1.087900
15.713500 1.090600
15.731000 1.094500
15.748600 1.127700
15.766100 1.128900
15.783700 1.129100
15.801200 1.128500
15.818800 1.127500
15.836300 1.125500
15.853900 1.084200
15.871500 1.082300
15.889000 1.080900
15.906600 1.079200
15.924100 1.077500
15.941700 1.075700
15.959200 1.073900
15.976800 1.073600
15.994300 1.076400
16.011900 1.079300
16.029500 1.082200
16.047000 1.087200
16.064600 1.091100
16.082100 1.094700
16.099700 1.098200
16.117200 1.093900
16.134800 1.096800
16.152400 1.099500
16.169900 1.101900
16.187500 1.100700
16.205000 1.098600
16.222600 1.102800
16.240100 1.110700
16.257700 1.116100
16.275200 1.113900
16.292800 1.111900
16.310400 1.110000
16.327900 1.107900
16.345500 1.105500
16.363000 1.104500
16.380600 1.107600
16.398100 1.110900
16.415700 1.113800
16.433200 1.116500
16.450800 1.118900
16.468400 1.109200
16.485900 1.096200
16.503500 1.095800
16.521000 1.094800
16.538600 1.092600
16.556100 1.090900
16.573700 1.089600
16.591200 1.091500
16.608800 1.094600
16.626400 1.099100
16.643900 1.102500
16.661500 1.107000
16.679000 1.114500
16.696600 1.124500
16.714100 1.134600
16.731700 1.140000
16.749200 1.144500
16.766800 1.148500
16.784400 1.152100
16.801900 1.155400
16.819500 1.157500
16.837000 1.158300
16.854600 1.158600
16.872100 1.158500
16.889700 1.158500
16.907300 1.159800
16.924800 1.161800
16.942400 1.183300
16.959900 1.172300
16.977500 1.161800
16.995000 1.145600
17.012600 1.131300
17.030100 1.130500
17.047700 1.136400
17.065300 1.144300
17.082800 1.158800
17.100400 1.173500
17.117900 1.185000
17.135500 1.197400
17.153000 1.210500
17.170600 1.224200
17.188100 1.238500
17.205700 1.301800
17.223300 1.253200
17.240800 1.226600
17.258400 1.230800
17.275900 1.236700
17.293500 1.243700
17.311000 1.242800
17.328600 1.237700
17.346100 1.216900
17.363700 1.210300
17.381300 1.201600
17.398800 1.193100
17.416400 1.182900
17.433900 1.180900
17.451500 1.178500
17.469000 1.176500
17.486600 1.174800
17.504100 1.173100
17.521700 1.171900
17.539300 1.171600
17.556800 1.171800
17.574400 1.171400
17.591900 1.168500
17.609500 1.164900
17.627000 1.160600
17.644600 1.150800
17.662100 1.146500
17.679700 1.142200
17.697300 1.137900
17.714800 1.133700
17.732400 1.129400
17.749900 1.124900
17.767500 1.121500
17.785000 1.119400
17.802600 1.118800
17.820200 1.118400
17.837700 1.117400
17.855300 1.115100
17.872800 1.112100
17.890400 1.108300
17.907900 1.104200
17.925500 1.099800
17.943000 1.096200
17.960600 1.093200
17.978200 1.090600
17.995700 1.088200
18.013300 1.086400
18.030800 1.085000
18.048400 1.083600
18.065900 1.083300
18.083500 1.083500
18.101000 1.078300
18.118600 1.079100
18.136200 1.080000
18.153700 1.080800
18.171300 1.081000
18.188800 1.080800
18.206400 1.080600
18.223900 1.080400
18.241500 1.080400
18.259000 1.080000
18.276600 1.078000
18.294200 1.075500
18.311700 1.073000
18.329300 1.070400
18.346800 1.067500
18.364400 1.064000
18.381900 1.059900
18.399500 1.055800
18.417000 1.051700
18.434600 1.051100
18.452200 1.050700
18.469700 1.049600
18.487300 1.048800
18.504800 1.047500
18.522400 1.045900
18.539900 1.043900
18.557500 1.040300
18.575100 1.036500
18.592600 1.033300
18.610200 1.031000
18.627700 1.029100
18.645300 1.027600
18.662800 1.026300
18.680400 1.024800
18.697900 1.024300
18.715500 1.025500
18.733100 1.035000
18.750600 1.036800
18.768200 1.034600
18.785700 1.031100
18.803300 1.020900
18.820800 1.010200
18.838400 1.002500
18.855900 0.994500
18.873500 0.985900
18.891100 0.978100
18.908600 0.970800
18.926200 0.952100
18.943700 0.948800
18.961300 0.946100
18.978800 0.944900
18.996400 0.944500
19.013900 0.945200
19.031500 0.947700
19.049100 0.951000
19.066600 0.954200
19.084200 0.957200
19.101700 0.962100
19.119300 0.977800
19.136800 0.984700
19.154400 0.981000
19.171900 0.976900
19.189500 0.970500
19.207100 0.976400
19.224600 0.973400
19.242200 0.966400
19.259700 0.969400
19.277300 0.977600
19.294800 0.990300
19.312400 1.006900
19.329900 1.032200
19.347500 1.076200
19.365100 1.141100
19.382600 1.148300
19.400200 1.195700
19.417700 1.222300
19.435300 1.234100
19.452800 1.246600
19.470400 1.257700
19.488000 1.268800
19.505500 1.279900
19.523100 1.291300
19.540600 1.302700
19.558200 1.313400
19.575700 1.352400
19.593300 1.350800
19.610800 1.346200
19.628400 1.349000
19.646000 1.359400
19.663500 1.372500
19.681100 1.388200
19.698600 1.407900
19.716200 1.435000
19.733700 1.466300
19.751300 1.501800
19.768800 1.544900
19.786400 1.594900
19.804000 1.482700
19.821500 1.475700
19.839100 1.450300
19.856600 1.417000
19.874200 1.394500
19.891700 1.373400
19.909300 1.359500
19.926800 1.348800
19.944400 1.336600
19.962000 1.329900
19.979500 1.318100
19.997100 1.315000
20.014600 1.329800
20.032200 1.332300
20.049700 1.297300
20.067300 1.267100
20.084800 1.241300
20.102400 1.223900
20.120000 1.222600
20.137500 1.221300
20.155100 1.218200
20.172600 1.215200
20.190200 1.214200
20.207700 1.204700
20.225300 1.195300
20.242900 1.207100
20.260400 1.211400
20.278000 1.214100
20.295500 1.220500
20.313100 1.224600
20.330600 1.228600
20.348200 1.233800
20.365700 1.238900
20.383300 1.242700
20.400900 1.244600
20.418400 1.245200
20.436000 1.257700
20.453500 1.279900
20.471100 1.289200
20.488600 1.274800
20.506200 1.268000
20.523700 1.266500
20.541300 1.260100
20.558900 1.252500
20.576400 1.244500
20.594000 1.237100
20.611500 1.233200
20.629100 1.229300
20.646600 1.226300
20.664200 1.223400
20.681700 1.222500
20.699300 1.222100
20.716900 1.221000
20.734400 1.220200
20.752000 1.219700
20.769500 1.219400
20.787100 1.220100
20.804600 1.225000
20.822200 1.238800
20.839700 1.250300
20.857300 1.253900
20.874900 1.256500
20.892400 1.247700
20.910000 1.233800
20.927500 1.217600
20.945100 1.205400
20.962600 1.206600
20.980200 1.211800
20.997700 1.224000
21.015300 1.242400
21.032900 1.257200
21.050400 1.274300
21.068000 1.283900
21.085500 1.297800
21.103100 1.294500
21.120600 1.290800
21.138200 1.282500
21.155800 1.271500
21.173300 1.258600
21.190900 1.243900
21.208400 1.226000
21.226000 1.208000
21.243500 1.196800
21.261100 1.187700
21.278600 1.179200
21.296200 1.177900
21.313800 1.181300
21.331300 1.176200
21.348900 1.158900
21.366400 1.141200
21.384000 1.111100
21.401500 1.077800
21.419100 1.078600
21.436600 1.075000
21.454200 1.061900
21.471800 1.054100
21.489300 1.047900
21.506900 1.041400
21.524400 1.034300
21.542000 1.025300
21.559500 1.020200
21.577100 1.016300
21.594600 1.013100
21.612200 1.009800
21.629800 1.004900
21.647300 0.992600
21.664900 0.980400
21.682400 0.973800
21.700000 0.967600
21.717500 0.960000
21.735100 0.952700
21.752600 0.945200
21.770200 0.937300
21.787800 0.929000
21.805300 0.922300
21.822900 0.910200
21.840400 0.907500
21.858000 0.904700
21.875500 0.899800
21.893100 0.894100
21.910700 0.882200
21.928200 0.902500
21.945800 0.880200
21.963300 0.862500
21.980900 0.857000
21.998400 0.785200
22.016000 0.785600
22.033500 0.786800
22.051100 0.788600
22.068700 0.790900
22.086200 0.793600
22.103800 0.796800
22.121300 0.797200
22.138900 0.801000
22.156400 0.804300
22.174000 0.794300
22.191500 0.796300
22.209100 0.799300
22.226700 0.805200
22.244200 0.812500
22.261800 0.821300
22.279300 0.828000
22.296900 0.834200
22.314400 0.840100
22.332000 0.845700
22.349500 0.851300
22.367100 0.857700
22.384700 0.866300
22.402200 0.877100
22.419800 0.888300
22.437300 0.893400
22.454900 0.895500
22.472400 0.895700
22.490000 0.897600
22.507500 0.878100
22.525100 0.871300
22.542700 0.866700
22.560200 0.870900
22.577800 0.875500
22.595300 0.888500
22.612900 0.902400
22.630400 0.924900
22.648000 0.911200
22.665500 0.902500
22.683100 0.893500
22.700700 0.891400
22.718200 0.896500
22.735800 0.902100
22.753300 0.907800
22.770900 0.915900
22.788400 0.936300
22.806000 0.923400
22.823600 0.904500
22.841100 0.898000
22.858700 0.887100
22.876200 0.872300
22.893800 0.855900
22.911300 0.832600
22.928900 0.800400
22.946400 0.774700
22.964000 0.749800
22.981600 0.725400
22.999100 0.698300
23.016700 0.675600
23.034200 0.654100
23.051800 0.633800
23.069300 0.612400
23.086900 0.593700
23.104400 0.580900
23.122000 0.572200
23.139600 0.554800
23.157100 0.540700
23.174700 0.527900
23.192200 0.515600
23.209800 0.504200
23.227300 0.493500
23.244900 0.480400
23.262400 0.470100
23.280000 0.460800
23.297600 0.451800
23.315100 0.442100
23.332700 0.424300
23.350200 0.405900
23.367800 0.387300
23.385300 0.376200
23.402900 0.367200
23.420400 0.359400
23.438000 0.352500
23.455600 0.343200
23.473100 0.333700
23.490700 0.325500
23.508200 0.318400
23.525800 0.312000
23.543300 0.305800
23.560900 0.299800
23.578500 0.293900
23.596000 0.288200
23.613600 0.282500
23.631100 0.277700
23.648700 0.273200
23.666200 0.267900
23.683800 0.262200
23.701300 0.258000
23.718900 0.254000
23.736500 0.248700
23.754000 0.243200
23.771600 0.238000
23.789100 0.233000
23.806700 0.228200
23.824200 0.223900
23.841800 0.219900
23.859300 0.216100
23.876900 0.209600
23.894500 0.203600
23.912000 0.200000
23.929600 0.193200
23.947100 0.188100
23.964700 0.181800
23.982200 0.175600
23.999800 0.169800
24.017300 0.164100
24.034900 0.158800
24.052500 0.153800
24.070000 0.149000
24.087600 0.144500
24.105100 0.140500
24.122700 0.137300
24.140200 0.134900
24.157800 0.132500
24.175300 0.128700
24.192900 0.123500
24.210500 0.116600
24.228000 0.110700
24.245600 0.105600
24.263100 0.101500
24.280700 0.098200
24.298200 0.095800
24.315800 0.094400
24.333300 0.093500
24.350900 0.092700
24.368500 0.091800
24.386000 0.091000
24.403600 0.090200
24.421100 0.089400
24.438700 0.088600
24.456200 0.087800
24.473800 0.087100
24.491400 0.086300
24.508900 0.085600
24.526500 0.084800
24.544000 0.084100
24.561600 0.083400
24.579100 0.082700
24.596700 0.082000
24.614200 0.081300
24.631800 0.080600
24.649400 0.079900
24.666900 0.079200
24.684500 0.078600
24.702000 0.077900
24.719600 0.077300
24.737100 0.076700
24.754700 0.076100
24.772200 0.075500
24.789800 0.074900
24.807400 0.074300
24.824900 0.073700
24.842500 0.073100
24.860000 0.072600
24.877600 0.072200
24.895100 0.071800
24.912700 0.071600
24.930200 0.071400
24.947800 0.071100
24.965400 0.070900
24.982900 0.070600
25.000500 0.070300
25.018000 0.069900
25.035600 0.069600
25.053100 0.069200
25.070700 0.069000
25.088200 0.068900
25.105800 0.068900
25.123400 0.068800
25.140900 0.068700
25.158500 0.068500
25.176000 0.068400
25.193600 0.068200
25.211100 0.067900
25.228700 0.067700
25.246300 0.067400
25.263800 0.067200
25.281400 0.066900
25.298900 0.066600
25.316500 0.066300
25.334000 0.065900
25.351600 0.065900
25.369100 0.068600
25.386700 0.073100
25.404300 0.065900
25.421800 0.063300
25.439400 0.061200
25.456900 0.059400
25.474500 0.058100
25.492000 0.057300
25.509600 0.056500
25.527100 0.055800
25.544700 0.055000
25.562300 0.054300
25.579800 0.053600
25.597400 0.052900
25.614900 0.052200
25.632500 0.051500
25.650000 0.050800
25.667600 0.050100
25.685100 0.049400
25.702700 0.048800
25.720300 0.048100
25.737800 0.047500
25.755400 0.046900
25.772900 0.046200
25.790500 0.045600
25.808000 0.045000
25.825600 0.044400
25.843100 0.043800
25.860700 0.043300
25.878300 0.042700
25.895800 0.042100
25.913400 0.041600
25.930900 0.041000
25.948500 0.040500
25.966000 0.040000
25.983600 0.039400
26.001100 0.038900
26.018700 0.038400
26.036300 0.037900
26.053800 0.037500
26.071400 0.037000
26.088900 0.036600
26.106500 0.036200
26.124000 0.035800
26.141600 0.035400
26.159200 0.035000
26.176700 0.034700
26.194300 0.034300
26.211800 0.034000
26.229400 0.033700
26.246900 0.033300
26.264500 0.033000
26.282000 0.032700
26.299600 0.032400
26.317200 0.032200
26.334700 0.031900
26.352300 0.031600
26.369800 0.031400
26.387400 0.031100
26.404900 0.030900
26.422500 0.030700
26.440000 0.030600
26.457600 0.030500
26.475200 0.030400
26.492700 0.030500
26.510300 0.030600
26.527800 0.030300
26.545400 0.030100
26.562900 0.029900
26.580500 0.029700
26.598000 0.029600
26.615600 0.029600
26.633200 0.029500
26.650700 0.029500
26.668300 0.029500
26.685800 0.029500
26.703400 0.029500
26.720900 0.029500
26.738500 0.029600
26.756000 0.029600
26.773600 0.029200
26.791200 0.028000
26.808700 0.027300
26.826300 0.026800
26.843800 0.026600
26.861400 0.026300
26.878900 0.025500
26.896500 0.024700
26.914100 0.023900
26.931600 0.023200
26.949200 0.022400
26.966700 0.021700
26.984300 0.020900
27.001800 0.020200
27.019400 0.019500
27.036900 0.018800
27.054500 0.018100
27.072100 0.017500
27.089600 0.016800
27.107200 0.016200
27.124700 0.015500
27.142300 0.014900
27.159800 0.014300
27.177400 0.013700
27.194900 0.013100
27.212500 0.012600
27.230100 0.012000
27.247600 0.011500
27.265200 0.011000
27.282700 0.010400
27.300300 0.009900
27.317800 0.009400
27.335400 0.009000
27.352900 0.010200
27.370500 0.009500
27.388100 0.008800
27.405600 0.008100
27.423200 0.007500
27.440700 0.006800
27.458300 0.006200
27.475800 0.005700
27.493400 0.005100
27.510900 0.004600
27.528500 0.004100
27.546100 0.003600
27.563600 0.003100
27.581200 0.002700
27.598700 0.000000
27.616300 0.000000
27.633800 0.000000
27.651400 0.000000
27.668900 0.000000
27.686500 0.000000
27.704100 0.000000
27.721600 0.000000
27.739200 0.000000
27.756700 0.000000
27.774300 0.000000
27.791800 0.000000
27.809400 0.000000
27.827000 0.000000
27.844500 0.000000
27.862100 0.000000
27.879600 0.000000
27.897200 0.000000
27.914700 0.000000
27.932300 0.000000
27.949800 0.000000
27.967400 0.000000
27.985000 0.000000
28.002500 0.000000
28.020100 0.000000
28.037600 0.000000
28.055200 0.000000
28.072700 0.000000
28.090300 0.000000
28.107800 0.000000
28.125400 0.000000
28.143000 0.000000
28.160500 0.000000
28.178100 0.000000
28.195600 0.000000
28.213200 0.000000
28.230700 0.000000
28.248300 0.000000
28.265800 0.000000
28.283400 0.000000
28.301000 0.000000
28.318500 0.000000
28.336100 0.000000
28.353600 0.000000
28.371200 0.000000
28.388700 0.000000
28.406300 0.000000
28.423800 0.000000
28.441400 0.000000
28.459000 0.000000
28.476500 0.000000
28.494100 0.000000
28.511600 0.000000
28.529200 0.000000
28.546700 0.000000
28.564300 0.000000
28.581900 0.000000
28.599400 0.000000
28.617000 0.000000
28.634500 0.000000
28.652100 0.000000
28.669600 0.000000
28.687200 0.000000
28.704700 0.000000
28.722300 0.000000
28.739900 0.000000
28.757400 0.000000
28.775000 0.000000
28.792500 0.000000
28.810100 0.000000
28.827600 0.000000
28.845200 0.000000
28.862700 0.000000
28.880300 0.000000
28.897900 0.000000
28.915400 0.000000
28.933000 0.000000
28.950500 0.000000
28.968100 0.000000
28.985600 0.000000
29.003200 0.000000
29.020700 0.000000
29.038300 0.000000
29.055900 0.000000
29.073400 0.000000
29.091000 0.000000
29.108500 0.000000
29.126100 0.000000
29.143600 0.000000
29.161200 0.000000
29.178700 0.000000
e
