set title 'mp-570896 - Density of States'
set xlabel 'Energy (eV)'
set ylabel 'DOS (states/eV)'
set grid
set xrange [-10:10]
set yrange [0:81.612]
set xzeroaxis lt -1
set terminal png size 800,600
set output 'mp-570896_dos_gnuplot.png'
plot '-' using 1:2 with lines title 'DOS'
-6.591400 0.000000
-6.576900 0.000000
-6.562400 0.000000
-6.547900 0.000000
-6.533400 0.000000
-6.518900 0.000000
-6.504400 0.000000
-6.489900 0.000000
-6.475400 0.000000
-6.460900 0.000000
-6.446400 0.000000
-6.431900 0.000000
-6.417300 0.000000
-6.402800 0.000000
-6.388300 0.000000
-6.373800 0.000000
-6.359300 0.000000
-6.344800 0.000000
-6.330300 0.000000
-6.315800 0.000000
-6.301300 0.000000
-6.286800 0.000000
-6.272300 0.000000
-6.257800 0.000000
-6.243300 0.000000
-6.228800 0.000000
-6.214300 0.000000
-6.199800 0.000000
-6.185300 0.000000
-6.170800 0.000000
-6.156300 0.000000
-6.141800 0.000000
-6.127300 0.000000
-6.112800 0.000000
-6.098300 0.000000
-6.083800 0.000000
-6.069300 0.000000
-6.054800 0.000000
-6.040200 0.000000
-6.025700 0.000000
-6.011200 0.000000
-5.996700 0.000000
-5.982200 0.000000
-5.967700 0.000000
-5.953200 0.000000
-5.938700 0.000000
-5.924200 0.000000
-5.909700 0.000000
-5.895200 0.000000
-5.880700 0.000000
-5.866200 0.000000
-5.851700 0.000000
-5.837200 0.000000
-5.822700 0.000000
-5.808200 0.000000
-5.793700 0.000000
-5.779200 0.000000
-5.764700 0.000000
-5.750200 0.000000
-5.735700 0.000000
-5.721200 0.000000
-5.706700 0.000000
-5.692200 0.000000
-5.677700 0.000000
-5.663100 0.000000
-5.648600 0.000000
-5.634100 0.000000
-5.619600 0.000000
-5.605100 0.000000
-5.590600 0.000000
-5.576100 0.000000
-5.561600 0.000000
-5.547100 0.000000
-5.532600 0.000000
-5.518100 0.000000
-5.503600 0.000000
-5.489100 0.000000
-5.474600 0.000000
-5.460100 0.000000
-5.445600 0.000000
-5.431100 0.000000
-5.416600 0.000200
-5.402100 0.001100
-5.387600 0.005700
-5.373100 0.025900
-5.358600 0.101400
-5.344100 0.342600
-5.329600 1.000400
-5.315100 2.530100
-5.300600 5.559100
-5.286100 10.652100
-5.271500 17.894100
-5.257000 26.546100
-5.242500 35.143500
-5.228000 42.130800
-5.213500 46.623100
-5.199000 48.694600
-5.184500 49.023600
-5.170000 48.331000
-5.155500 47.134600
-5.141000 45.871800
-5.126500 45.057600
-5.112000 45.243300
-5.097500 46.844200
-5.083000 49.998500
-5.068500 54.506800
-5.054000 59.831100
-5.039500 65.157400
-5.025000 69.550000
-5.010500 72.180300
-4.996000 72.551400
-4.981500 70.630300
-4.967000 66.839300
-4.952500 61.923900
-4.938000 56.767400
-4.923500 52.234900
-4.909000 49.063400
-4.894400 47.735500
-4.879900 48.319400
-4.865400 50.393500
-4.850900 53.196800
-4.836400 55.965500
-4.821900 58.240000
-4.807400 59.960000
-4.792900 61.329300
-4.778400 62.562100
-4.763900 63.668700
-4.749400 64.438300
-4.734900 64.671100
-4.720400 64.517400
-4.705900 64.620900
-4.691400 65.828000
-4.676900 68.517700
-4.662400 71.953700
-4.647900 74.192900
-4.633400 72.834500
-4.618900 66.314400
-4.604400 54.934700
-4.589900 40.861400
-4.575400 27.044400
-4.560900 15.826200
-4.546400 8.150100
-4.531900 3.679700
-4.517300 1.451900
-4.502800 0.499100
-4.488300 0.149100
-4.473800 0.038600
-4.459300 0.008600
-4.444800 0.001700
-4.430300 0.000300
-4.415800 0.000000
-4.401300 0.000000
-4.386800 0.000000
-4.372300 0.000000
-4.357800 0.000000
-4.343300 0.000000
-4.328800 0.000000
-4.314300 0.000000
-4.299800 0.000000
-4.285300 0.000000
-4.270800 0.000000
-4.256300 0.000000
-4.241800 0.000000
-4.227300 0.000000
-4.212800 0.000000
-4.198300 0.000000
-4.183800 0.000000
-4.169300 0.000000
-4.154800 0.000000
-4.140200 0.000000
-4.125700 0.000000
-4.111200 0.000000
-4.096700 0.000000
-4.082200 0.000000
-4.067700 0.000000
-4.053200 0.000000
-4.038700 0.000000
-4.024200 0.000000
-4.009700 0.000000
-3.995200 0.000000
-3.980700 0.000000
-3.966200 0.000000
-3.951700 0.000000
-3.937200 0.000000
-3.922700 0.000000
-3.908200 0.000000
-3.893700 0.000000
-3.879200 0.000000
-3.864700 0.000000
-3.850200 0.000000
-3.835700 0.000000
-3.821200 0.000000
-3.806700 0.000000
-3.792200 0.000000
-3.777700 0.000000
-3.763200 0.000000
-3.748600 0.000000
-3.734100 0.000000
-3.719600 0.000000
-3.705100 0.000000
-3.690600 0.000000
-3.676100 0.000000
-3.661600 0.000000
-3.647100 0.000000
-3.632600 0.000000
-3.618100 0.000000
-3.603600 0.000000
-3.589100 0.000000
-3.574600 0.000000
-3.560100 0.000000
-3.545600 0.000000
-3.531100 0.000000
-3.516600 0.000000
-3.502100 0.000000
-3.487600 0.000000
-3.473100 0.000000
-3.458600 0.000000
-3.444100 0.000000
-3.429600 0.000000
-3.415100 0.000000
-3.400600 0.000000
-3.386100 0.000000
-3.371500 0.000000
-3.357000 0.000000
-3.342500 0.000100
-3.328000 0.000300
-3.313500 0.001200
-3.299000 0.003500
-3.284500 0.009000
-3.270000 0.019500
-3.255500 0.036300
-3.241000 0.058700
-3.226500 0.083900
-3.212000 0.109000
-3.197500 0.133500
-3.183000 0.160400
-3.168500 0.193300
-3.154000 0.232900
-3.139500 0.275000
-3.125000 0.310200
-3.110500 0.327200
-3.096000 0.319400
-3.081500 0.291100
-3.067000 0.258500
-3.052500 0.243400
-3.038000 0.262100
-3.023500 0.317100
-3.009000 0.394500
-2.994400 0.470900
-2.979900 0.522900
-2.965400 0.537400
-2.950900 0.517200
-2.936400 0.478100
-2.921900 0.438700
-2.907400 0.410200
-2.892900 0.393600
-2.878400 0.386200
-2.863900 0.389400
-2.849400 0.407800
-2.834900 0.442200
-2.820400 0.484700
-2.805900 0.522100
-2.791400 0.544600
-2.776900 0.552500
-2.762400 0.558100
-2.747900 0.578900
-2.733400 0.626300
-2.718900 0.693700
-2.704400 0.753800
-2.689900 0.771400
-2.675400 0.726900
-2.660900 0.632500
-2.646400 0.526100
-2.631900 0.449100
-2.617400 0.425200
-2.602800 0.454200
-2.588300 0.516600
-2.573800 0.584700
-2.559300 0.635700
-2.544800 0.664400
-2.530300 0.682900
-2.515800 0.706800
-2.501300 0.736600
-2.486800 0.756500
-2.472300 0.750300
-2.457800 0.719800
-2.443300 0.687100
-2.428800 0.679900
-2.414300 0.712200
-2.399800 0.774300
-2.385300 0.837500
-2.370800 0.874000
-2.356300 0.875800
-2.341800 0.857900
-2.327300 0.841600
-2.312800 0.833100
-2.298300 0.818300
-2.283800 0.780600
-2.269300 0.721800
-2.254800 0.666300
-2.240300 0.641300
-2.225700 0.654100
-2.211200 0.687200
-2.196700 0.717000
-2.182200 0.734600
-2.167700 0.751200
-2.153200 0.784500
-2.138700 0.842200
-2.124200 0.912800
-2.109700 0.968000
-2.095200 0.976500
-2.080700 0.925200
-2.066200 0.836000
-2.051700 0.761500
-2.037200 0.757300
-2.022700 0.848600
-2.008200 1.012500
-1.993700 1.189800
-1.979200 1.317800
-1.964700 1.362300
-1.950200 1.327200
-1.935700 1.238300
-1.921200 1.119400
-1.906700 0.980100
-1.892200 0.824200
-1.877700 0.667900
-1.863200 0.547900
-1.848600 0.508200
-1.834100 0.570300
-1.819600 0.712800
-1.805100 0.876800
-1.790600 0.999400
-1.776100 1.052200
-1.761600 1.055100
-1.747100 1.053800
-1.732600 1.081300
-1.718100 1.134900
-1.703600 1.185800
-1.689100 1.209500
-1.674600 1.205600
-1.660100 1.192800
-1.645600 1.190100
-1.631100 1.203700
-1.616600 1.231700
-1.602100 1.273000
-1.587600 1.327800
-1.573100 1.387400
-1.558600 1.427500
-1.544100 1.416400
-1.529600 1.335200
-1.515100 1.194600
-1.500600 1.037400
-1.486100 0.920500
-1.471500 0.886700
-1.457000 0.938400
-1.442500 1.035100
-1.428000 1.118900
-1.413500 1.151500
-1.399000 1.134000
-1.384500 1.095400
-1.370000 1.065200
-1.355500 1.052600
-1.341000 1.044100
-1.326500 1.016200
-1.312000 0.955500
-1.297500 0.874900
-1.283000 0.816500
-1.268500 0.832300
-1.254000 0.952000
-1.239500 1.156000
-1.225000 1.378200
-1.210500 1.542800
-1.196000 1.607600
-1.181500 1.578500
-1.167000 1.489600
-1.152500 1.375400
-1.138000 1.259600
-1.123500 1.158800
-1.109000 1.084000
-1.094500 1.038300
-1.079900 1.019100
-1.065400 1.025000
-1.050900 1.060300
-1.036400 1.130500
-1.021900 1.229700
-1.007400 1.332700
-0.992900 1.400800
-0.978400 1.403400
-0.963900 1.338800
-0.949400 1.237000
-0.934900 1.143100
-0.920400 1.094200
-0.905900 1.105200
-0.891400 1.168300
-0.876900 1.264100
-0.862400 1.372700
-0.847900 1.479200
-0.833400 1.573800
-0.818900 1.651300
-0.804400 1.708900
-0.789900 1.743800
-0.775400 1.749500
-0.760900 1.717900
-0.746400 1.645800
-0.731900 1.538900
-0.717400 1.409400
-0.702800 1.269400
-0.688300 1.127800
-0.673800 0.993400
-0.659300 0.878900
-0.644800 0.799800
-0.630300 0.771900
-0.615800 0.810300
-0.601300 0.928500
-0.586800 1.130100
-0.572300 1.394600
-0.557800 1.675300
-0.543300 1.918700
-0.528800 2.091900
-0.514300 2.188600
-0.499800 2.211500
-0.485300 2.158300
-0.470800 2.033300
-0.456300 1.866900
-0.441800 1.710200
-0.427300 1.605400
-0.412800 1.561200
-0.398300 1.556100
-0.383800 1.562200
-0.369300 1.566400
-0.354800 1.574000
-0.340300 1.594700
-0.325700 1.626800
-0.311200 1.654100
-0.296700 1.661000
-0.282200 1.648500
-0.267700 1.636100
-0.253200 1.649300
-0.238700 1.706200
-0.224200 1.808400
-0.209700 1.935900
-0.195200 2.047900
-0.180700 2.093500
-0.166200 2.034700
-0.151700 1.871800
-0.137200 1.655600
-0.122700 1.470700
-0.108200 1.396200
-0.093700 1.466200
-0.079200 1.652700
-0.064700 1.878100
-0.050200 2.052000
-0.035700 2.117400
-0.021200 2.080900
-0.006700 2.009200
0.007800 1.991000
0.022300 2.089800
0.036800 2.311700
0.051300 2.599700
0.065900 2.855500
0.080400 2.985300
0.094900 2.951400
0.109400 2.792600
0.123900 2.587300
0.138400 2.391300
0.152900 2.209800
0.167400 2.026300
0.181900 1.851200
0.196400 1.733100
0.210900 1.722300
0.225400 1.824500
0.239900 1.990500
0.254400 2.147400
0.268900 2.241700
0.283400 2.259700
0.297900 2.220400
0.312400 2.158400
0.326900 2.110400
0.341400 2.107200
0.355900 2.162100
0.370400 2.259900
0.384900 2.356800
0.399400 2.402200
0.413900 2.373800
0.428400 2.298400
0.443000 2.232800
0.457500 2.218200
0.472000 2.248800
0.486500 2.285500
0.501000 2.297800
0.515500 2.292100
0.530000 2.303900
0.544500 2.369500
0.559000 2.507900
0.573500 2.719100
0.588000 2.986700
0.602500 3.274100
0.617000 3.522100
0.631500 3.660400
0.646000 3.639900
0.660500 3.463900
0.675000 3.193400
0.689500 2.914900
0.704000 2.693600
0.718500 2.544500
0.733000 2.441900
0.747500 2.357400
0.762000 2.294700
0.776500 2.287900
0.791000 2.365100
0.805500 2.516900
0.820100 2.703700
0.834600 2.892200
0.849100 3.083700
0.863600 3.306600
0.878100 3.579800
0.892600 3.877300
0.907100 4.125800
0.921600 4.241400
0.936100 4.179800
0.950600 3.961200
0.965100 3.656800
0.979600 3.353500
0.994100 3.121500
1.008600 2.990300
1.023100 2.942700
1.037600 2.928900
1.052100 2.895700
1.066600 2.815300
1.081100 2.698700
1.095600 2.592500
1.110100 2.556100
1.124600 2.627100
1.139100 2.794000
1.153600 2.997400
1.168100 3.162200
1.182600 3.241600
1.197200 3.243700
1.211700 3.219700
1.226200 3.222400
1.240700 3.267900
1.255200 3.331100
1.269700 3.372800
1.284200 3.367400
1.298700 3.310600
1.313200 3.206300
1.327700 3.053900
1.342200 2.852900
1.356700 2.621300
1.371200 2.403200
1.385700 2.248900
1.400200 2.183300
1.414700 2.190500
1.429200 2.223900
1.443700 2.232700
1.458200 2.186000
1.472700 2.086700
1.487200 1.967300
1.501700 1.868800
1.516200 1.819000
1.530700 1.821400
1.545200 1.856400
1.559700 1.888500
1.574200 1.881500
1.588800 1.820000
1.603300 1.721600
1.617800 1.624800
1.632300 1.560500
1.646800 1.529200
1.661300 1.502100
1.675800 1.441600
1.690300 1.326900
1.704800 1.166900
1.719300 0.991900
1.733800 0.833900
1.748300 0.710900
1.762800 0.626500
1.777300 0.576100
1.791800 0.550400
1.806300 0.536800
1.820800 0.522700
1.835300 0.500300
1.849800 0.470100
1.864300 0.438900
1.878800 0.416600
1.893300 0.410800
1.907800 0.423300
1.922300 0.450100
1.936800 0.481200
1.951300 0.501500
1.965900 0.495300
1.980400 0.454400
1.994900 0.384500
2.009400 0.303600
2.023900 0.233100
2.038400 0.187300
2.052900 0.168600
2.067400 0.168100
2.081900 0.170900
2.096400 0.164400
2.110900 0.145200
2.125400 0.120600
2.139900 0.102800
2.154400 0.099800
2.168900 0.110400
2.183400 0.126900
2.197900 0.141300
2.212400 0.150800
2.226900 0.157100
2.241400 0.163600
2.255900 0.173100
2.270400 0.187900
2.284900 0.206900
2.299400 0.222800
2.313900 0.224600
2.328400 0.204700
2.343000 0.166700
2.357500 0.123500
2.372000 0.089800
2.386500 0.075500
2.401000 0.085900
2.415500 0.124500
2.430000 0.192000
2.444500 0.282300
2.459000 0.380300
2.473500 0.468700
2.488000 0.536600
2.502500 0.586000
2.517000 0.630200
2.531500 0.688000
2.546000 0.775200
2.560500 0.893100
2.575000 1.021100
2.589500 1.122700
2.604000 1.168600
2.618500 1.161900
2.633000 1.144200
2.647500 1.176200
2.662000 1.304400
2.676500 1.531700
2.691000 1.810300
2.705500 2.062300
2.720100 2.217700
2.734600 2.248100
2.749100 2.172500
2.763600 2.037900
2.778100 1.896100
2.792600 1.793000
2.807100 1.770900
2.821600 1.871700
2.836100 2.131300
2.850600 2.562600
2.865100 3.130300
2.879600 3.739600
2.894100 4.259600
2.908600 4.580100
2.923100 4.664400
2.937600 4.563400
2.952100 4.387000
2.966600 4.259700
2.981100 4.277700
2.995600 4.475100
3.010100 4.810600
3.024600 5.188400
3.039100 5.511300
3.053600 5.736300
3.068100 5.891500
3.082600 6.039000
3.097100 6.213800
3.111700 6.394500
3.126200 6.527300
3.140700 6.574400
3.155200 6.541700
3.169700 6.478800
3.184200 6.463100
3.198700 6.569400
3.213200 6.825700
3.227700 7.182800
3.242200 7.529200
3.256700 7.742500
3.271200 7.743300
3.285700 7.530500
3.300200 7.190600
3.314700 6.865500
3.329200 6.677400
3.343700 6.660900
3.358200 6.765500
3.372700 6.924300
3.387200 7.115800
3.401700 7.358300
3.416200 7.662300
3.430700 8.003600
3.445200 8.336500
3.459700 8.614700
3.474200 8.796100
3.488800 8.847400
3.503300 8.758500
3.517800 8.558600
3.532300 8.316100
3.546800 8.119500
3.561300 8.040900
3.575800 8.092500
3.590300 8.211200
3.604800 8.298000
3.619300 8.295800
3.633800 8.240900
3.648300 8.242300
3.662800 8.406500
3.677300 8.764800
3.691800 9.251600
3.706300 9.747500
3.720800 10.163900
3.735300 10.510500
3.749800 10.888400
3.764300 11.411800
3.778800 12.123200
3.793300 12.976600
3.807800 13.893400
3.822300 14.825800
3.836800 15.759800
3.851300 16.658200
3.865900 17.416000
3.880400 17.886000
3.894900 17.956400
3.909400 17.615700
3.923900 16.959800
3.938400 16.148800
3.952900 15.345600
3.967400 14.663800
3.981900 14.142400
3.996400 13.758900
4.010900 13.471900
4.025400 13.260700
4.039900 13.129100
4.054400 13.078000
4.068900 13.086000
4.083400 13.118900
4.097900 13.147400
4.112400 13.146800
4.126900 13.082800
4.141400 12.908800
4.155900 12.586600
4.170400 12.115000
4.184900 11.543700
4.199400 10.959700
4.213900 10.450800
4.228400 10.068700
4.242900 9.806900
4.257500 9.600400
4.272000 9.347100
4.286500 8.956500
4.301000 8.405300
4.315500 7.758200
4.330000 7.127900
4.344500 6.606800
4.359000 6.225900
4.373500 5.963900
4.388000 5.779700
4.402500 5.636200
4.417000 5.509300
4.431500 5.394300
4.446000 5.310700
4.460500 5.296000
4.475000 5.385000
4.489500 5.587000
4.504000 5.877400
4.518500 6.207500
4.533000 6.529000
4.547500 6.821500
4.562000 7.104800
4.576500 7.420400
4.591000 7.800800
4.605500 8.259500
4.620000 8.814000
4.634600 9.508700
4.649100 10.391200
4.663600 11.447400
4.678100 12.551500
4.692600 13.483700
4.707100 14.022500
4.721600 14.060000
4.736100 13.664100
4.750600 13.039200
4.765100 12.413200
4.779600 11.934000
4.794100 11.644300
4.808600 11.521300
4.823100 11.516000
4.837600 11.550500
4.852100 11.502600
4.866600 11.227300
4.881100 10.622200
4.895600 9.687000
4.910100 8.526700
4.924600 7.298100
4.939100 6.135100
4.953600 5.101100
4.968100 4.189900
4.982600 3.365700
4.997100 2.608800
5.011700 1.934900
5.026200 1.382200
5.040700 0.983500
5.055200 0.744800
5.069700 0.640500
5.084200 0.624200
5.098700 0.647600
5.113200 0.676900
5.127700 0.699300
5.142200 0.717400
5.156700 0.737500
5.171200 0.761000
5.185700 0.782000
5.200200 0.791200
5.214700 0.784500
5.229200 0.767600
5.243700 0.752000
5.258200 0.745700
5.272700 0.749200
5.287200 0.762500
5.301700 0.795700
5.316200 0.873900
5.330700 1.028300
5.345200 1.281700
5.359700 1.635600
5.374200 2.064700
5.388800 2.520200
5.403300 2.946400
5.417800 3.305300
5.432300 3.592400
5.446800 3.828600
5.461300 4.032300
5.475800 4.194600
5.490300 4.278800
5.504800 4.246400
5.519300 4.093000
5.533800 3.867000
5.548300 3.654500
5.562800 3.536600
5.577300 3.545100
5.591800 3.642500
5.606300 3.738100
5.620800 3.734600
5.635300 3.580200
5.649800 3.296200
5.664300 2.964300
5.678800 2.684700
5.693300 2.533400
5.707800 2.538900
5.722300 2.680000
5.736800 2.894400
5.751300 3.097800
5.765800 3.216500
5.780400 3.218800
5.794900 3.125700
5.809400 2.998100
5.823900 2.911600
5.838400 2.931200
5.852900 3.086200
5.867400 3.352800
5.881900 3.653400
5.896400 3.880700
5.910900 3.942800
5.925400 3.808400
5.939900 3.523200
5.954400 3.183400
5.968900 2.880900
5.983400 2.662800
5.997900 2.530400
6.012400 2.463400
6.026900 2.434100
6.041400 2.408800
6.055900 2.357000
6.070400 2.275000
6.084900 2.195300
6.099400 2.165000
6.113900 2.208100
6.128400 2.304000
6.142900 2.401500
6.157500 2.456600
6.172000 2.465200
6.186500 2.461800
6.201000 2.485500
6.215500 2.545300
6.230000 2.620600
6.244500 2.691300
6.259000 2.762200
6.273500 2.847400
6.288000 2.932700
6.302500 2.960000
6.317000 2.862600
6.331500 2.620800
6.346000 2.286000
6.360500 1.954400
6.375000 1.720900
6.389500 1.651900
6.404000 1.773700
6.418500 2.059200
6.433000 2.417600
6.447500 2.719700
6.462000 2.861300
6.476500 2.819100
6.491000 2.652400
6.505500 2.453500
6.520000 2.291100
6.534600 2.186200
6.549100 2.124100
6.563600 2.081500
6.578100 2.050100
6.592600 2.050000
6.607100 2.129900
6.621600 2.345500
6.636100 2.716100
6.650600 3.185500
6.665100 3.629700
6.679600 3.925800
6.694100 4.030400
6.708600 3.996600
6.723100 3.914200
6.737600 3.835300
6.752100 3.749600
6.766600 3.613400
6.781100 3.393300
6.795600 3.091000
6.810100 2.745700
6.824600 2.423200
6.839100 2.192300
6.853600 2.091100
6.868100 2.101300
6.882600 2.158100
6.897100 2.194200
6.911600 2.182200
6.926200 2.137800
6.940700 2.089700
6.955200 2.053600
6.969700 2.035400
6.984200 2.050300
6.998700 2.130400
7.013200 2.309300
7.027700 2.591300
7.042200 2.930500
7.056700 3.236700
7.071200 3.415200
7.085700 3.421600
7.100200 3.292500
7.114700 3.125000
7.129200 3.017500
7.143700 3.016800
7.158200 3.104800
7.172700 3.220400
7.187200 3.294400
7.201700 3.282200
7.216200 3.184700
7.230700 3.044500
7.245200 2.913000
7.259700 2.813400
7.274200 2.728300
7.288700 2.620200
7.303300 2.461000
7.317800 2.247700
7.332300 2.003200
7.346800 1.770500
7.361300 1.605900
7.375800 1.567300
7.390300 1.695500
7.404800 1.993800
7.419300 2.415400
7.433800 2.873800
7.448300 3.277600
7.462800 3.567800
7.477300 3.728400
7.491800 3.766100
7.506300 3.687500
7.520800 3.502400
7.535300 3.248100
7.549800 2.998300
7.564300 2.833400
7.578800 2.793100
7.593300 2.854800
7.607800 2.955200
7.622300 3.033200
7.636800 3.061600
7.651300 3.051900
7.665800 3.037700
7.680400 3.044100
7.694900 3.056600
7.709400 3.013800
7.723900 2.842500
7.738400 2.516900
7.752900 2.093600
7.767400 1.685600
7.781900 1.396600
7.796400 1.269100
7.810900 1.282600
7.825400 1.385700
7.839900 1.528100
7.854400 1.671100
7.868900 1.786300
7.883400 1.855800
7.897900 1.880800
7.912400 1.887200
7.926900 1.917500
7.941400 2.009300
7.955900 2.170900
7.970400 2.369100
7.984900 2.538600
7.999400 2.610300
8.013900 2.550400
8.028400 2.385800
8.042900 2.194400
8.057500 2.059000
8.072000 2.019800
8.086500 2.063900
8.101000 2.154900
8.115500 2.266300
8.130000 2.385800
8.144500 2.501300
8.159000 2.595300
8.173500 2.653400
8.188000 2.672400
8.202500 2.665600
8.217000 2.667900
8.231500 2.732600
8.246000 2.902100
8.260500 3.165500
8.275000 3.445100
8.289500 3.634400
8.304000 3.661300
8.318500 3.522200
8.333000 3.263600
8.347500 2.935300
8.362000 2.565400
8.376500 2.174700
8.391000 1.806400
8.405500 1.530600
8.420000 1.412700
8.434500 1.473100
8.449100 1.675100
8.463600 1.949400
8.478100 2.228900
8.492600 2.466400
8.507100 2.628900
8.521600 2.692100
8.536100 2.647900
8.550600 2.516200
8.565100 2.342500
8.579600 2.176200
8.594100 2.047300
8.608600 1.961500
8.623100 1.915000
8.637600 1.910100
8.652100 1.955500
8.666600 2.053800
8.681100 2.191800
8.695600 2.339900
8.710100 2.455700
8.724600 2.493900
8.739100 2.427200
8.753600 2.271800
8.768100 2.089500
8.782600 1.954600
8.797100 1.908800
8.811600 1.942600
8.826200 2.018200
8.840700 2.106900
8.855200 2.205900
8.869700 2.326200
8.884200 2.470900
8.898700 2.623100
8.913200 2.743000
8.927700 2.777600
8.942200 2.685100
8.956700 2.469100
8.971200 2.192700
8.985700 1.951100
9.000200 1.818900
9.014700 1.812800
9.029200 1.895700
9.043700 2.007200
9.058200 2.096500
9.072700 2.145100
9.087200 2.175400
9.101700 2.232700
9.116200 2.344900
9.130700 2.490500
9.145200 2.609000
9.159700 2.647400
9.174200 2.596700
9.188700 2.488500
9.203300 2.363300
9.217800 2.244100
9.232300 2.134200
9.246800 2.033900
9.261300 1.955500
9.275800 1.919200
9.290300 1.934600
9.304800 1.983700
9.319300 2.021600
9.333800 1.998900
9.348300 1.893500
9.362800 1.731500
9.377300 1.579000
9.391800 1.507600
9.406300 1.555600
9.420800 1.711200
9.435300 1.925700
9.449800 2.141900
9.464300 2.315700
9.478800 2.419300
9.493300 2.438600
9.507800 2.379900
9.522300 2.281600
9.536800 2.207600
9.551300 2.210900
9.565800 2.294800
9.580400 2.411000
9.594900 2.499800
9.609400 2.532000
9.623900 2.515800
9.638400 2.472500
9.652900 2.414900
9.667400 2.346300
9.681900 2.269300
9.696400 2.192400
9.710900 2.136100
9.725400 2.141200
9.739900 2.258200
9.754400 2.509100
9.768900 2.844900
9.783400 3.146700
9.797900 3.285100
9.812400 3.198200
9.826900 2.927800
9.841400 2.592800
9.855900 2.322400
9.870400 2.196500
9.884900 2.221300
9.899400 2.341900
9.913900 2.478200
9.928400 2.563100
9.942900 2.563700
9.957400 2.479600
9.972000 2.332500
9.986500 2.159700
10.001000 2.005500
10.015500 1.901600
10.030000 1.847600
10.044500 1.817200
10.059000 1.787000
10.073500 1.758200
10.088000 1.745400
10.102500 1.750200
10.117000 1.752400
10.131500 1.731000
10.146000 1.689300
10.160500 1.655600
10.175000 1.659900
10.189500 1.711100
10.204000 1.798400
10.218500 1.904900
10.233000 2.013500
10.247500 2.097600
10.262000 2.120300
10.276500 2.059200
10.291000 1.941800
10.305500 1.847900
10.320000 1.864500
10.334500 2.023300
10.349100 2.278200
10.363600 2.537500
10.378100 2.721900
10.392600 2.802100
10.407100 2.801600
10.421600 2.775100
10.436100 2.778800
10.450600 2.842000
10.465100 2.950900
10.479600 3.053600
10.494100 3.085500
10.508600 3.002600
10.523100 2.806800
10.537600 2.548100
10.552100 2.305200
10.566600 2.156200
10.581100 2.156900
10.595600 2.325800
10.610100 2.630100
10.624600 2.981400
10.639100 3.261700
10.653600 3.380100
10.668100 3.324000
10.682600 3.157500
10.697100 2.969500
10.711600 2.822700
10.726200 2.741400
10.740700 2.727800
10.755200 2.770200
10.769700 2.839000
10.784200 2.891000
10.798700 2.893300
10.813200 2.846700
10.827700 2.780600
10.842200 2.726500
10.856700 2.697200
10.871200 2.687300
10.885700 2.690400
10.900200 2.715500
10.914700 2.784700
10.929200 2.913800
10.943700 3.093400
10.958200 3.292300
10.972700 3.481900
10.987200 3.653900
11.001700 3.812200
11.016200 3.952300
11.030700 4.053000
11.045200 4.087500
11.059700 4.039400
11.074200 3.910900
11.088700 3.722600
11.103200 3.504000
11.117800 3.283300
11.132300 3.082200
11.146800 2.917500
11.161300 2.806000
11.175800 2.762200
11.190300 2.786100
11.204800 2.847900
11.219300 2.885900
11.233800 2.832700
11.248300 2.660300
11.262800 2.411300
11.277300 2.190800
11.291800 2.119300
11.306300 2.271500
11.320800 2.634100
11.335300 3.107600
11.349800 3.551400
11.364300 3.847000
11.378800 3.945300
11.393300 3.875400
11.407800 3.716400
11.422300 3.545700
11.436800 3.393400
11.451300 3.232100
11.465800 3.016400
11.480300 2.741200
11.494900 2.463300
11.509400 2.260600
11.523900 2.167800
11.538400 2.153300
11.552900 2.155200
11.567400 2.134500
11.581900 2.092500
11.596400 2.052800
11.610900 2.038100
11.625400 2.062600
11.639900 2.130700
11.654400 2.239200
11.668900 2.382200
11.683400 2.559200
11.697900 2.770000
11.712400 3.001600
11.726900 3.221900
11.741400 3.394200
11.755900 3.492600
11.770400 3.503800
11.784900 3.423300
11.799400 3.267100
11.813900 3.084200
11.828400 2.944600
11.842900 2.901000
11.857400 2.962100
11.872000 3.099500
11.886500 3.273200
11.901000 3.444200
11.915500 3.575600
11.930000 3.640900
11.944500 3.643600
11.959000 3.624100
11.973500 3.632400
11.988000 3.684200
12.002500 3.745300
12.017000 3.770600
12.031500 3.757300
12.046000 3.747900
12.060500 3.773800
12.075000 3.800400
12.089500 3.742000
12.104000 3.539900
12.118500 3.229100
12.133000 2.925900
12.147500 2.746000
12.162000 2.732000
12.176500 2.847900
12.191000 3.030300
12.205500 3.238200
12.220000 3.465800
12.234500 3.722500
12.249100 4.004200
12.263600 4.275000
12.278100 4.472400
12.292600 4.532100
12.307100 4.424300
12.321600 4.176000
12.336100 3.858200
12.350600 3.542500
12.365100 3.260900
12.379600 3.005500
12.394100 2.764100
12.408600 2.551400
12.423100 2.403700
12.437600 2.343100
12.452100 2.346700
12.466600 2.353700
12.481100 2.315100
12.495600 2.245900
12.510100 2.228300
12.524600 2.352100
12.539100 2.642900
12.553600 3.041300
12.568100 3.450600
12.582600 3.798700
12.597100 4.060100
12.611600 4.232600
12.626100 4.314500
12.640700 4.308900
12.655200 4.234800
12.669700 4.119300
12.684200 3.979600
12.698700 3.826000
12.713200 3.686000
12.727700 3.614100
12.742200 3.667800
12.756700 3.869800
12.771200 4.189800
12.785700 4.552900
12.800200 4.863500
12.814700 5.034700
12.829200 5.021200
12.843700 4.840400
12.858200 4.562500
12.872700 4.269000
12.887200 4.012800
12.901700 3.808300
12.916200 3.646900
12.930700 3.514900
12.945200 3.404100
12.959700 3.322500
12.974200 3.297300
12.988700 3.357200
13.003200 3.501200
13.017800 3.684200
13.032300 3.839100
13.046800 3.918700
13.061300 3.921200
13.075800 3.886300
13.090300 3.866800
13.104800 3.895100
13.119300 3.957500
13.133800 3.997000
13.148300 3.952000
13.162800 3.809900
13.177300 3.632300
13.191800 3.526000
13.206300 3.579100
13.220800 3.810000
13.235300 4.158900
13.249800 4.519400
13.264300 4.780400
13.278800 4.856900
13.293300 4.704700
13.307800 4.328000
13.322300 3.785100
13.336800 3.185300
13.351300 2.663500
13.365800 2.334600
13.380300 2.251800
13.394900 2.397100
13.409400 2.703100
13.423900 3.090800
13.438400 3.494200
13.452900 3.864500
13.467400 4.161600
13.481900 4.349500
13.496400 4.403800
13.510900 4.325500
13.525400 4.146700
13.539900 3.919900
13.554400 3.697500
13.568900 3.516200
13.583400 3.403200
13.597900 3.396200
13.612400 3.547700
13.626900 3.886900
13.641400 4.360500
13.655900 4.822500
13.670400 5.110600
13.684900 5.151400
13.699400 4.994900
13.713900 4.748100
13.728400 4.486300
13.742900 4.229300
13.757400 3.983700
13.771900 3.780600
13.786500 3.667600
13.801000 3.669400
13.815500 3.755300
13.830000 3.837300
13.844500 3.809600
13.859000 3.618900
13.873500 3.312400
13.888000 3.012900
13.902500 2.835100
13.917000 2.816800
13.931500 2.917600
13.946000 3.069200
13.960500 3.223500
13.975000 3.365000
13.989500 3.493900
14.004000 3.600900
14.018500 3.660600
14.033000 3.653400
14.047500 3.597000
14.062000 3.555800
14.076500 3.608900
14.091000 3.799400
14.105500 4.102600
14.120000 4.438100
14.134500 4.711500
14.149000 4.854100
14.163600 4.838000
14.178100 4.672200
14.192600 4.393900
14.207100 4.061300
14.221600 3.739900
14.236100 3.483600
14.250600 3.314400
14.265100 3.213000
14.279600 3.127800
14.294100 3.007400
14.308600 2.838100
14.323100 2.653300
14.337600 2.502400
14.352100 2.413000
14.366600 2.381500
14.381100 2.389500
14.395600 2.416800
14.410100 2.442100
14.424600 2.444900
14.439100 2.412600
14.453600 2.345300
14.468100 2.253100
14.482600 2.154900
14.497100 2.074900
14.511600 2.032900
14.526100 2.030400
14.540700 2.047600
14.555200 2.057500
14.569700 2.045400
14.584200 2.014200
14.598700 1.976000
14.613200 1.943600
14.627700 1.927800
14.642200 1.939000
14.656700 1.985900
14.671200 2.074000
14.685700 2.202100
14.700200 2.354100
14.714700 2.488800
14.729200 2.546700
14.743700 2.481100
14.758200 2.296200
14.772700 2.058900
14.787200 1.869900
14.801700 1.813000
14.816200 1.911000
14.830700 2.113100
14.845200 2.318100
14.859700 2.425700
14.874200 2.385300
14.888700 2.215800
14.903200 1.988500
14.917800 1.791100
14.932300 1.692500
14.946800 1.718000
14.961300 1.841500
14.975800 1.998900
14.990300 2.118600
15.004800 2.153900
15.019300 2.097100
15.033800 1.976300
15.048300 1.839800
15.062800 1.733000
15.077300 1.676700
15.091800 1.659200
15.106300 1.648400
15.120800 1.616900
15.135300 1.561500
15.149800 1.506500
15.164300 1.487300
15.178800 1.522000
15.193300 1.590400
15.207800 1.640100
15.222300 1.620600
15.236800 1.521900
15.251300 1.386300
15.265800 1.285900
15.280300 1.280200
15.294800 1.381900
15.309400 1.549300
15.323900 1.709900
15.338400 1.800000
15.352900 1.795300
15.367400 1.715800
15.381900 1.604300
15.396400 1.495400
15.410900 1.395900
15.425400 1.291900
15.439900 1.172600
15.454400 1.049100
15.468900 0.951700
15.483400 0.909900
15.497900 0.931700
15.512400 0.997400
15.526900 1.069100
15.541400 1.109900
15.555900 1.099500
15.570400 1.045700
15.584900 0.985200
15.599400 0.970500
15.613900 1.041500
15.628400 1.197700
15.642900 1.394700
15.657400 1.572000
15.671900 1.691800
15.686500 1.760000
15.701000 1.817400
15.715500 1.911700
15.730000 2.071200
15.744500 2.295600
15.759000 2.562600
15.773500 2.837500
15.788000 3.076900
15.802500 3.233800
15.817000 3.271300
15.831500 3.179200
15.846000 2.982100
15.860500 2.735000
15.875000 2.508500
15.889500 2.367500
15.904000 2.347000
15.918500 2.437600
15.933000 2.593000
15.947500 2.756500
15.962000 2.891800
15.976500 2.991600
15.991000 3.058600
16.005500 3.079800
16.020000 3.024900
16.034500 2.874400
16.049000 2.646600
16.063600 2.396000
16.078100 2.185200
16.092600 2.055600
16.107100 2.017800
16.121600 2.064700
16.136100 2.187900
16.150600 2.380900
16.165100 2.624700
16.179600 2.875200
16.194100 3.068700
16.208600 3.148800
16.223100 3.104000
16.237600 2.989300
16.252100 2.907000
16.266600 2.948800
16.281100 3.139800
16.295600 3.429200
16.310100 3.730200
16.324600 3.973200
16.339100 4.134800
16.353600 4.230300
16.368100 4.286200
16.382600 4.314200
16.397100 4.307600
16.411600 4.259000
16.426100 4.176400
16.440600 4.078600
16.455200 3.975400
16.469700 3.861200
16.484200 3.732100
16.498700 3.607500
16.513200 3.529400
16.527700 3.537800
16.542200 3.643500
16.556700 3.821400
16.571200 4.023200
16.585700 4.202800
16.600200 4.343500
16.614700 4.468100
16.629200 4.613700
16.643700 4.783200
16.658200 4.922800
16.672700 4.956400
16.687200 4.845700
16.701700 4.618600
16.716200 4.344300
16.730700 4.088000
16.745200 3.885600
16.759700 3.745800
16.774200 3.664100
16.788700 3.630800
16.803200 3.630900
16.817700 3.644400
16.832300 3.652500
16.846800 3.643300
16.861300 3.612700
16.875800 3.563000
16.890300 3.506000
16.904800 3.469700
16.919300 3.494600
16.933800 3.609600
16.948300 3.799900
16.962800 4.000900
16.977300 4.139200
16.991800 4.194300
17.006300 4.223700
17.020800 4.317700
17.035300 4.516400
17.049800 4.766000
17.064300 4.956900
17.078800 5.006500
17.093300 4.912600
17.107800 4.740500
17.122300 4.566600
17.136800 4.433200
17.151300 4.341400
17.165800 4.276800
17.180300 4.235200
17.194800 4.226900
17.209400 4.264400
17.223900 4.354700
17.238400 4.497700
17.252900 4.678000
17.267400 4.850500
17.281900 4.942300
17.296400 4.886400
17.310900 4.662600
17.325400 4.313800
17.339900 3.927300
17.354400 3.601800
17.368900 3.412500
17.383400 3.384100
17.397900 3.480300
17.412400 3.623300
17.426900 3.740600
17.441400 3.807600
17.455900 3.852000
17.470400 3.918000
17.484900 4.026300
17.499400 4.157200
17.513900 4.258000
17.528400 4.270100
17.542900 4.172700
17.557400 4.027700
17.571900 3.976100
17.586500 4.163800
17.601000 4.640400
17.615500 5.311100
17.630000 5.978900
17.644500 6.439800
17.659000 6.564400
17.673500 6.334400
17.688000 5.837100
17.702500 5.231000
17.717000 4.690200
17.731500 4.343200
17.746000 4.234100
17.760500 4.324700
17.775000 4.528600
17.789500 4.753300
17.804000 4.924300
17.818500 4.981500
17.833000 4.867200
17.847500 4.539900
17.862000 4.020700
17.876500 3.425300
17.891000 2.932900
17.905500 2.702000
17.920000 2.795000
17.934500 3.158300
17.949000 3.662300
17.963500 4.166300
17.978100 4.573600
17.992600 4.845300
18.007100 4.974000
18.021600 4.949900
18.036100 4.758100
18.050600 4.411100
18.065100 3.982600
18.079600 3.598800
18.094100 3.383400
18.108600 3.387400
18.123100 3.555700
18.137600 3.758800
18.152100 3.870400
18.166600 3.837000
18.181100 3.690800
18.195600 3.506800
18.210100 3.344600
18.224600 3.222800
18.239100 3.130400
18.253600 3.050700
18.268100 2.968200
18.282600 2.864100
18.297100 2.724400
18.311600 2.562500
18.326100 2.430700
18.340600 2.396500
18.355200 2.498300
18.369700 2.718800
18.384200 2.992700
18.398700 3.239200
18.413200 3.398500
18.427700 3.457900
18.442200 3.453300
18.456700 3.446600
18.471200 3.489700
18.485700 3.595800
18.500200 3.733100
18.514700 3.847100
18.529200 3.892100
18.543700 3.850500
18.558200 3.731900
18.572700 3.563400
18.587200 3.383100
18.601700 3.231700
18.616200 3.138800
18.630700 3.110200
18.645200 3.128300
18.659700 3.168700
18.674200 3.221000
18.688700 3.289400
18.703200 3.371400
18.717700 3.435200
18.732300 3.427500
18.746800 3.312100
18.761300 3.106700
18.775800 2.882100
18.790300 2.723600
18.804800 2.687500
18.819300 2.780900
18.833800 2.971400
18.848300 3.211200
18.862800 3.457900
18.877300 3.685700
18.891800 3.878300
18.906300 4.014300
18.920800 4.063300
18.935300 4.002400
18.949800 3.836200
18.964300 3.596700
18.978800 3.322800
18.993300 3.044000
19.007800 2.782600
19.022300 2.563200
19.036800 2.411800
19.051300 2.345000
19.065800 2.359800
19.080300 2.437800
19.094800 2.558600
19.109400 2.708400
19.123900 2.875200
19.138400 3.032400
19.152900 3.131800
19.167400 3.118100
19.181900 2.959100
19.196400 2.667700
19.210900 2.300700
19.225400 1.937200
19.239900 1.653800
19.254400 1.505200
19.268900 1.510100
19.283400 1.643000
19.297900 1.842400
19.312400 2.037100
19.326900 2.179200
19.341400 2.259500
19.355900 2.296800
19.370400 2.313400
19.384900 2.319500
19.399400 2.316100
19.413900 2.304800
19.428400 2.291700
19.442900 2.282100
19.457400 2.276800
19.471900 2.274100
19.486400 2.273400
19.501000 2.273600
19.515500 2.266800
19.530000 2.236300
19.544500 2.164100
19.559000 2.046500
19.573500 1.905100
19.588000 1.781000
19.602500 1.711500
19.617000 1.706400
19.631500 1.739300
19.646000 1.762400
19.660500 1.736500
19.675000 1.658500
19.689500 1.565700
19.704000 1.511500
19.718500 1.528600
19.733000 1.610400
19.747500 1.720200
19.762000 1.818400
19.776500 1.882300
19.791000 1.911100
19.805500 1.913800
19.820000 1.891800
19.834500 1.830100
19.849000 1.709300
19.863500 1.528700
19.878100 1.320500
19.892600 1.140000
19.907100 1.035600
19.921600 1.019900
19.936100 1.061800
19.950600 1.107600
19.965100 1.113600
19.979600 1.066700
19.994100 0.984300
20.008600 0.900400
20.023100 0.850100
20.037600 0.852700
20.052100 0.900800
20.066600 0.965400
20.081100 1.016800
20.095600 1.050600
20.110100 1.095400
20.124600 1.195000
20.139100 1.375300
20.153600 1.616800
20.168100 1.857100
20.182600 2.026000
20.197100 2.085500
20.211600 2.042100
20.226100 1.924100
20.240600 1.754000
20.255200 1.543600
20.269700 1.311100
20.284200 1.094400
20.298700 0.941800
20.313200 0.886400
20.327700 0.921500
20.342200 0.998100
20.356700 1.049900
20.371200 1.034200
20.385700 0.955300
20.400200 0.850100
20.414700 0.755000
20.429200 0.686000
20.443700 0.643800
20.458200 0.622700
20.472700 0.611200
20.487200 0.591700
20.501700 0.551400
20.516200 0.494800
20.530700 0.440700
20.545200 0.404300
20.559700 0.381400
20.574200 0.352900
20.588700 0.304800
20.603200 0.242800
20.617700 0.190100
20.632200 0.171400
20.646800 0.198300
20.661300 0.265900
20.675800 0.357200
20.690300 0.450500
20.704800 0.524700
20.719300 0.562500
20.733800 0.555600
20.748300 0.510600
20.762800 0.447100
20.777300 0.385600
20.791800 0.335200
20.806300 0.293500
20.820800 0.255400
20.835300 0.221500
20.849800 0.196500
20.864300 0.186600
20.878800 0.198100
20.893300 0.235300
20.907800 0.293200
20.922300 0.352600
20.936800 0.386100
20.951300 0.374900
20.965800 0.320600
20.980300 0.242800
20.994800 0.164700
21.009300 0.101900
21.023900 0.059700
21.038400 0.037100
21.052900 0.030500
21.067400 0.034800
21.081900 0.043800
21.096400 0.050900
21.110900 0.051300
21.125400 0.044000
21.139900 0.032100
21.154400 0.019800
21.168900 0.010300
21.183400 0.004600
21.197900 0.001700
21.212400 0.000500
21.226900 0.000100
21.241400 0.000000
21.255900 0.000000
21.270400 0.000000
21.284900 0.000000
21.299400 0.000000
21.313900 0.000000
21.328400 0.000000
21.342900 0.000000
21.357400 0.000000
21.371900 0.000000
21.386400 0.000000
21.401000 0.000000
21.415500 0.000000
21.430000 0.000000
21.444500 0.000000
21.459000 0.000000
21.473500 0.000000
21.488000 0.000000
21.502500 0.000000
21.517000 0.000000
21.531500 0.000000
21.546000 0.000000
21.560500 0.000000
21.575000 0.000000
21.589500 0.000000
21.604000 0.000000
21.618500 0.000000
21.633000 0.000000
21.647500 0.000000
21.662000 0.000000
21.676500 0.000000
21.691000 0.000000
21.705500 0.000000
21.720000 0.000000
21.734500 0.000000
21.749000 0.000000
21.763500 0.000000
21.778100 0.000000
21.792600 0.000000
21.807100 0.000000
21.821600 0.000000
21.836100 0.000000
21.850600 0.000000
21.865100 0.000000
21.879600 0.000000
21.894100 0.000000
21.908600 0.000000
21.923100 0.000000
21.937600 0.000000
21.952100 0.000000
21.966600 0.000000
21.981100 0.000000
21.995600 0.000000
22.010100 0.000000
22.024600 0.000000
22.039100 0.000000
22.053600 0.000000
22.068100 0.000000
22.082600 0.000000
22.097100 0.000000
22.111600 0.000000
22.126100 0.000000
22.140600 0.000000
22.155100 0.000000
22.169700 0.000000
22.184200 0.000000
22.198700 0.000000
22.213200 0.000000
22.227700 0.000000
22.242200 0.000000
22.256700 0.000000
22.271200 0.000000
22.285700 0.000000
22.300200 0.000000
22.314700 0.000000
22.329200 0.000000
22.343700 0.000000
22.358200 0.000000
22.372700 0.000000
22.387200 0.000000
22.401700 0.000000
22.416200 0.000000
e
