set title 'mp-1078313 - Density of States'
set xlabel 'Energy (eV)'
set ylabel 'DOS (states/eV)'
set grid
set xrange [-10:10]
set yrange [0:32.042]
set xzeroaxis lt -1
set terminal png size 800,600
set output 'mp-1078313_dos_gnuplot.png'
plot '-' using 1:2 with lines title 'DOS'
-8.132000 0.000000
-8.116000 0.000000
-8.099900 0.000000
-8.083900 0.000000
-8.067900 0.000000
-8.051900 0.000000
-8.035900 0.000000
-8.019800 0.000000
-8.003800 0.000000
-7.987800 0.000000
-7.971800 0.000000
-7.955800 0.000000
-7.939800 0.000000
-7.923700 0.000000
-7.907700 0.000000
-7.891700 0.000000
-7.875700 0.000000
-7.859700 0.000000
-7.843600 0.000000
-7.827600 0.000000
-7.811600 0.000000
-7.795600 0.000000
-7.779600 0.000000
-7.763600 0.000000
-7.747500 0.000000
-7.731500 0.000000
-7.715500 0.000000
-7.699500 0.000000
-7.683500 0.000000
-7.667400 0.000000
-7.651400 0.000000
-7.635400 0.000000
-7.619400 0.000000
-7.603400 0.000000
-7.587400 0.000000
-7.571300 0.000000
-7.555300 0.000000
-7.539300 0.000000
-7.523300 0.000000
-7.507300 0.000000
-7.491200 0.000000
-7.475200 0.000000
-7.459200 0.000000
-7.443200 0.000000
-7.427200 0.000000
-7.411100 0.000000
-7.395100 0.000000
-7.379100 0.000000
-7.363100 0.000000
-7.347100 0.000000
-7.331100 0.000000
-7.315000 0.000000
-7.299000 0.000000
-7.283000 0.000000
-7.267000 0.000000
-7.251000 0.000000
-7.234900 0.000000
-7.218900 0.000000
-7.202900 0.000000
-7.186900 0.000000
-7.170900 0.000000
-7.154900 0.000000
-7.138800 0.000000
-7.122800 0.000000
-7.106800 0.000000
-7.090800 0.000000
-7.074800 0.000000
-7.058700 0.000000
-7.042700 0.000000
-7.026700 0.000000
-7.010700 0.000000
-6.994700 0.000000
-6.978700 0.000000
-6.962600 0.000000
-6.946600 0.000000
-6.930600 0.000000
-6.914600 0.000000
-6.898600 0.000000
-6.882500 0.000000
-6.866500 0.000000
-6.850500 0.000000
-6.834500 0.000000
-6.818500 0.000000
-6.802400 0.000000
-6.786400 0.000000
-6.770400 0.000000
-6.754400 0.000000
-6.738400 0.000000
-6.722400 0.000000
-6.706300 0.000000
-6.690300 0.000000
-6.674300 0.000200
-6.658300 0.026800
-6.642300 0.098400
-6.626200 0.215000
-6.610200 0.361300
-6.594200 0.523900
-6.578200 0.593300
-6.562200 0.614900
-6.546200 0.610500
-6.530100 0.650300
-6.514100 0.707400
-6.498100 0.766000
-6.482100 0.825800
-6.466100 0.883400
-6.450000 0.937300
-6.434000 0.987400
-6.418000 1.032900
-6.402000 1.068800
-6.386000 1.109400
-6.369900 1.142900
-6.353900 1.173700
-6.337900 1.203100
-6.321900 1.235300
-6.305900 1.271600
-6.289900 1.311600
-6.273800 1.352700
-6.257800 1.398000
-6.241800 1.448900
-6.225800 1.506400
-6.209800 1.571500
-6.193700 1.640000
-6.177700 1.701400
-6.161700 1.764500
-6.145700 1.828800
-6.129700 1.891700
-6.113700 1.940100
-6.097600 1.967100
-6.081600 1.976800
-6.065600 1.972400
-6.049600 1.983100
-6.033600 2.012700
-6.017500 2.041900
-6.001500 2.070700
-5.985500 2.099200
-5.969500 2.127300
-5.953500 2.230300
-5.937500 2.347100
-5.921400 2.439600
-5.905400 2.449800
-5.889400 2.453600
-5.873400 2.452700
-5.857400 2.447200
-5.841300 2.437100
-5.825300 2.422200
-5.809300 2.400900
-5.793300 2.368100
-5.777300 2.324100
-5.761200 2.274100
-5.745200 3.203700
-5.729200 3.022300
-5.713200 2.436400
-5.697200 2.103300
-5.681200 2.034600
-5.665100 1.968800
-5.649100 1.906000
-5.633100 1.846000
-5.617100 1.802700
-5.601100 1.707400
-5.585000 1.641800
-5.569000 1.570400
-5.553000 1.514600
-5.537000 1.452200
-5.521000 1.391300
-5.505000 1.349200
-5.488900 1.366600
-5.472900 1.445900
-5.456900 1.594200
-5.440900 1.769400
-5.424900 1.969300
-5.408800 2.219500
-5.392800 2.312400
-5.376800 2.322000
-5.360800 2.342900
-5.344800 2.419500
-5.328800 2.761900
-5.312700 2.707200
-5.296700 2.614100
-5.280700 2.628400
-5.264700 2.709400
-5.248700 2.809300
-5.232600 2.931300
-5.216600 3.046100
-5.200600 3.210700
-5.184600 3.395800
-5.168600 3.605500
-5.152500 3.888300
-5.136500 4.393500
-5.120500 4.998500
-5.104500 5.352500
-5.088500 6.096400
-5.072500 5.718400
-5.056400 5.630900
-5.040400 5.234700
-5.024400 4.960500
-5.008400 4.237700
-4.992400 3.494600
-4.976300 2.984400
-4.960300 3.178400
-4.944300 3.206600
-4.928300 3.270900
-4.912300 3.548800
-4.896300 3.876900
-4.880200 4.055400
-4.864200 4.202900
-4.848200 4.123000
-4.832200 4.302600
-4.816200 4.494300
-4.800100 5.825500
-4.784100 4.727400
-4.768100 4.799500
-4.752100 4.711200
-4.736100 4.662200
-4.720000 4.760200
-4.704000 5.244400
-4.688000 5.765600
-4.672000 5.996600
-4.656000 6.256200
-4.640000 6.645000
-4.623900 6.887000
-4.607900 6.846100
-4.591900 6.784900
-4.575900 7.035900
-4.559900 6.018700
-4.543800 5.767500
-4.527800 5.365500
-4.511800 5.053400
-4.495800 5.115900
-4.479800 5.309700
-4.463800 5.707400
-4.447700 6.156100
-4.431700 6.502300
-4.415700 7.035400
-4.399700 7.611100
-4.383700 8.130200
-4.367600 8.237900
-4.351600 8.018200
-4.335600 8.481900
-4.319600 8.835500
-4.303600 9.300400
-4.287600 10.393000
-4.271500 11.420500
-4.255500 13.422700
-4.239500 10.251500
-4.223500 10.146500
-4.207500 9.948500
-4.191400 9.704100
-4.175400 9.480000
-4.159400 9.811600
-4.143400 10.205900
-4.127400 10.350700
-4.111300 10.443000
-4.095300 11.254100
-4.079300 12.242300
-4.063300 13.359400
-4.047300 17.441200
-4.031300 16.176900
-4.015200 13.389800
-3.999200 20.432600
-3.983200 15.266600
-3.967200 14.288300
-3.951200 21.401900
-3.935100 3.861100
-3.919100 0.000000
-3.903100 0.000000
-3.887100 0.000000
-3.871100 0.000000
-3.855100 0.000000
-3.839000 0.000000
-3.823000 0.000000
-3.807000 0.000000
-3.791000 0.000000
-3.775000 0.000000
-3.758900 0.000000
-3.742900 0.000000
-3.726900 0.000000
-3.710900 0.000000
-3.694900 0.000000
-3.678800 0.000000
-3.662800 0.000000
-3.646800 0.000000
-3.630800 0.000000
-3.614800 0.000000
-3.598800 0.000000
-3.582700 0.000000
-3.566700 0.000000
-3.550700 0.000000
-3.534700 0.000000
-3.518700 0.000000
-3.502600 0.000000
-3.486600 0.000000
-3.470600 0.000000
-3.454600 0.000000
-3.438600 0.000000
-3.422600 0.000000
-3.406500 0.000000
-3.390500 0.000000
-3.374500 0.000000
-3.358500 0.000000
-3.342500 0.000000
-3.326400 0.000000
-3.310400 0.000000
-3.294400 0.000000
-3.278400 0.000000
-3.262400 0.000000
-3.246400 0.000000
-3.230300 0.000000
-3.214300 0.000000
-3.198300 0.000000
-3.182300 0.000000
-3.166300 0.000000
-3.150200 0.000000
-3.134200 0.000000
-3.118200 0.000000
-3.102200 0.000000
-3.086200 0.000000
-3.070100 0.000000
-3.054100 0.000000
-3.038100 0.000000
-3.022100 0.000000
-3.006100 0.000000
-2.990100 0.000000
-2.974000 0.000000
-2.958000 0.000000
-2.942000 0.000000
-2.926000 0.000000
-2.910000 0.000000
-2.893900 0.000000
-2.877900 0.000000
-2.861900 0.000000
-2.845900 0.000000
-2.829900 0.000000
-2.813900 0.000000
-2.797800 0.000000
-2.781800 0.000000
-2.765800 0.000000
-2.749800 0.000000
-2.733800 0.000000
-2.717700 0.000000
-2.701700 0.000000
-2.685700 0.000000
-2.669700 0.000000
-2.653700 0.000000
-2.637700 0.000000
-2.621600 0.000000
-2.605600 0.000000
-2.589600 0.000000
-2.573600 0.000000
-2.557600 0.000000
-2.541500 0.000000
-2.525500 0.000000
-2.509500 0.000000
-2.493500 0.000000
-2.477500 0.000000
-2.461400 0.000000
-2.445400 0.000000
-2.429400 0.000000
-2.413400 0.000000
-2.397400 0.000000
-2.381400 0.000000
-2.365300 0.000000
-2.349300 0.000000
-2.333300 0.000000
-2.317300 0.000000
-2.301300 0.000000
-2.285200 0.000000
-2.269200 0.000000
-2.253200 0.000000
-2.237200 0.000000
-2.221200 0.000000
-2.205200 0.000000
-2.189100 0.000000
-2.173100 0.000000
-2.157100 0.000000
-2.141100 0.000000
-2.125100 0.000000
-2.109000 0.000000
-2.093000 0.000000
-2.077000 0.000000
-2.061000 0.000000
-2.045000 0.000000
-2.028900 0.000000
-2.012900 0.000000
-1.996900 0.000000
-1.980900 0.000000
-1.964900 0.000000
-1.948900 0.000000
-1.932800 0.000000
-1.916800 0.000000
-1.900800 0.000000
-1.884800 0.000000
-1.868800 0.000000
-1.852700 0.000000
-1.836700 0.000000
-1.820700 0.000000
-1.804700 0.000000
-1.788700 0.000000
-1.772700 0.000000
-1.756600 0.000000
-1.740600 0.000000
-1.724600 0.000000
-1.708600 0.000000
-1.692600 0.000000
-1.676500 0.000000
-1.660500 0.000000
-1.644500 0.000000
-1.628500 0.000000
-1.612500 0.000000
-1.596500 0.000000
-1.580400 0.000000
-1.564400 0.000000
-1.548400 0.000000
-1.532400 0.000000
-1.516400 0.000000
-1.500300 0.000000
-1.484300 0.000000
-1.468300 0.000000
-1.452300 0.000000
-1.436300 0.000000
-1.420200 0.000000
-1.404200 0.000000
-1.388200 0.000000
-1.372200 0.000000
-1.356200 0.000000
-1.340200 0.000000
-1.324100 0.000000
-1.308100 0.000000
-1.292100 0.000000
-1.276100 0.000000
-1.260100 0.000000
-1.244000 0.000000
-1.228000 0.000000
-1.212000 0.000000
-1.196000 0.000000
-1.180000 0.000000
-1.164000 0.000000
-1.147900 0.000000
-1.131900 0.000000
-1.115900 0.000000
-1.099900 0.000000
-1.083900 0.000000
-1.067800 0.000000
-1.051800 0.000000
-1.035800 0.000000
-1.019800 0.000000
-1.003800 0.000000
-0.987800 0.000000
-0.971700 0.000000
-0.955700 0.000000
-0.939700 0.000000
-0.923700 0.000000
-0.907700 0.000000
-0.891600 0.000000
-0.875600 0.000000
-0.859600 0.000000
-0.843600 0.000000
-0.827600 0.000000
-0.811500 0.000000
-0.795500 0.000000
-0.779500 0.000000
-0.763500 0.000000
-0.747500 0.000000
-0.731500 0.000000
-0.715400 0.000000
-0.699400 0.000000
-0.683400 0.000000
-0.667400 0.000000
-0.651400 0.000000
-0.635300 0.000000
-0.619300 0.000000
-0.603300 0.000000
-0.587300 0.000000
-0.571300 0.000000
-0.555300 0.000000
-0.539200 0.000000
-0.523200 0.000000
-0.507200 0.000000
-0.491200 0.000000
-0.475200 0.000000
-0.459100 0.000000
-0.443100 0.000000
-0.427100 0.000000
-0.411100 0.000000
-0.395100 0.000000
-0.379000 0.000000
-0.363000 0.000000
-0.347000 0.000000
-0.331000 0.000000
-0.315000 0.000000
-0.299000 0.000000
-0.282900 0.000000
-0.266900 0.000000
-0.250900 0.000000
-0.234900 0.000000
-0.218900 0.000000
-0.202800 0.000000
-0.186800 0.000000
-0.170800 0.000000
-0.154800 0.000000
-0.138800 0.000000
-0.122800 0.000000
-0.106700 0.000000
-0.090700 0.000000
-0.074700 0.000000
-0.058700 0.000000
-0.042700 0.000000
-0.026600 0.000000
-0.010600 0.000000
0.005400 0.000000
0.021400 0.000000
0.037400 0.000000
0.053400 0.000000
0.069500 0.000000
0.085500 0.000000
0.101500 0.000000
0.117500 0.000000
0.133500 0.000000
0.149600 0.000000
0.165600 0.000000
0.181600 0.000000
0.197600 0.000000
0.213600 0.000000
0.229700 0.000000
0.245700 0.000000
0.261700 0.000000
0.277700 0.000000
0.293700 0.000000
0.309700 0.000000
0.325800 0.000000
0.341800 0.000000
0.357800 0.000000
0.373800 0.000000
0.389800 0.000000
0.405900 0.000000
0.421900 0.002200
0.437900 0.026400
0.453900 0.077200
0.469900 0.154500
0.485900 0.293100
0.502000 0.584800
0.518000 0.913600
0.534000 1.176200
0.550000 1.447800
0.566000 1.736700
0.582100 2.058800
0.598100 2.417500
0.614100 2.749900
0.630100 3.141200
0.646100 3.558400
0.662100 4.121200
0.678200 5.034000
0.694200 6.319300
0.710200 7.261600
0.726200 7.318700
0.742200 6.720000
0.758300 5.573700
0.774300 5.133700
0.790300 4.744100
0.806300 4.405000
0.822300 4.103100
0.838400 3.835600
0.854400 3.610200
0.870400 3.401100
0.886400 3.232600
0.902400 3.057600
0.918400 3.026200
0.934500 2.969000
0.950500 2.778800
0.966500 2.931600
0.982500 2.976500
0.998500 3.202600
1.014600 3.493100
1.030600 3.975600
1.046600 5.238900
1.062600 5.811400
1.078600 6.882600
1.094600 6.654700
1.110700 6.719700
1.126700 7.067100
1.142700 7.537000
1.158700 6.619500
1.174700 6.635500
1.190800 6.635000
1.206800 6.500600
1.222800 6.435300
1.238800 7.422800
1.254800 7.008100
1.270900 6.107700
1.286900 6.150700
1.302900 6.547500
1.318900 6.556800
1.334900 6.437900
1.350900 5.585200
1.367000 5.528000
1.383000 5.997900
1.399000 6.994200
1.415000 6.458900
1.431000 6.724100
1.447100 7.884900
1.463100 8.550200
1.479100 8.650700
1.495100 8.659500
1.511100 7.131700
1.527100 7.120100
1.543200 6.976000
1.559200 6.979100
1.575200 5.679800
1.591200 5.213200
1.607200 5.347300
1.623300 5.570600
1.639300 5.601600
1.655300 5.571400
1.671300 5.831500
1.687300 6.297400
1.703300 6.447300
1.719400 6.341300
1.735400 6.651800
1.751400 7.051900
1.767400 7.707500
1.783400 8.814100
1.799500 11.958200
1.815500 11.869400
1.831500 12.683000
1.847500 13.664800
1.863500 11.207500
1.879600 13.304900
1.895600 10.018200
1.911600 7.840600
1.927600 8.211800
1.943600 9.592600
1.959600 11.922300
1.975700 9.762100
1.991700 9.619100
2.007700 10.070500
2.023700 11.374200
2.039700 12.881100
2.055800 12.917100
2.071800 13.151500
2.087800 12.115000
2.103800 11.847700
2.119800 10.695100
2.135800 10.803600
2.151900 10.870300
2.167900 10.361300
2.183900 11.774200
2.199900 13.959400
2.215900 15.559400
2.232000 9.096900
2.248000 4.379300
2.264000 4.606700
2.280000 5.638900
2.296000 6.350000
2.312000 6.626900
2.328100 7.184800
2.344100 8.602900
2.360100 10.869100
2.376100 10.417700
2.392100 10.489400
2.408200 12.187500
2.424200 9.687900
2.440200 12.237700
2.456200 15.654500
2.472200 15.765700
2.488300 13.686600
2.504300 21.125700
2.520300 17.919800
2.536300 16.068000
2.552300 15.123100
2.568300 10.334800
2.584400 9.294800
2.600400 14.822100
2.616400 22.530300
2.632400 20.381300
2.648400 14.797500
2.664500 15.636700
2.680500 14.064900
2.696500 12.330500
2.712500 11.775300
2.728500 10.952000
2.744500 10.029000
2.760600 8.687100
2.776600 10.099200
2.792600 13.626500
2.808600 14.875800
2.824600 12.840100
2.840700 13.151300
2.856700 13.696300
2.872700 14.231400
2.888700 15.073300
2.904700 18.084600
2.920800 15.410200
2.936800 14.115600
2.952800 15.342600
2.968800 16.271000
2.984800 17.061400
3.000800 15.643000
3.016900 13.186400
3.032900 12.815500
3.048900 13.463000
3.064900 12.758200
3.080900 10.662900
3.097000 11.747400
3.113000 12.961700
3.129000 12.794200
3.145000 15.494200
3.161000 17.222800
3.177000 15.105700
3.193100 14.519400
3.209100 18.636600
3.225100 22.428800
3.241100 24.627600
3.257100 16.446000
3.273200 10.682800
3.289200 7.851100
3.305200 6.547300
3.321200 5.965900
3.337200 7.029100
3.353200 9.209400
3.369300 11.768400
3.385300 14.055000
3.401300 14.210600
3.417300 16.593400
3.433300 16.263800
3.449400 12.797500
3.465400 13.593900
3.481400 10.973500
3.497400 13.639700
3.513400 16.568200
3.529500 21.810900
3.545500 29.129000
3.561500 6.960900
3.577500 1.427500
3.593500 7.579900
3.609500 10.387100
3.625600 12.377900
3.641600 10.531100
3.657600 11.913400
3.673600 15.797500
3.689600 16.368600
3.705700 16.063100
3.721700 9.989000
3.737700 5.450100
3.753700 4.333600
3.769700 5.130300
3.785700 7.718600
3.801800 12.181500
3.817800 13.578500
3.833800 19.232600
3.849800 19.932500
3.865800 15.398000
3.881900 10.830200
3.897900 9.402600
3.913900 8.932900
3.929900 9.985700
3.945900 9.775000
3.961900 6.687300
3.978000 7.936900
3.994000 9.784900
4.010000 17.058300
4.026000 28.962500
4.042000 21.180800
4.058100 9.680400
4.074100 4.793600
4.090100 1.489800
4.106100 0.698500
4.122100 1.116900
4.138200 1.649700
4.154200 2.275200
4.170200 3.078000
4.186200 3.740200
4.202200 3.617300
4.218200 3.976900
4.234300 5.421400
4.250300 5.213800
4.266300 5.295800
4.282300 5.580300
4.298300 6.943300
4.314400 7.746200
4.330400 8.978800
4.346400 9.178600
4.362400 9.144000
4.378400 9.364400
4.394400 9.294500
4.410500 8.869700
4.426500 8.624000
4.442500 7.402900
4.458500 6.760400
4.474500 6.212100
4.490600 5.734000
4.506600 5.310700
4.522600 4.988100
4.538600 4.708200
4.554600 4.529400
4.570700 4.338600
4.586700 4.554000
4.602700 4.692300
4.618700 4.827300
4.634700 4.775200
4.650700 4.936000
4.666800 4.474000
4.682800 4.440700
4.698800 4.428200
4.714800 4.504400
4.730800 4.617400
4.746900 4.732700
4.762900 4.995400
4.778900 5.463000
4.794900 5.626100
4.810900 5.623900
4.826900 5.417100
4.843000 5.206600
4.859000 5.643100
4.875000 6.010000
4.891000 5.969100
4.907000 5.994000
4.923100 5.907700
4.939100 5.843900
4.955100 5.819800
4.971100 5.932200
4.987100 6.420600
5.003100 7.186600
5.019200 7.428500
5.035200 7.365600
5.051200 7.040700
5.067200 6.098000
5.083200 6.050700
5.099300 5.892000
5.115300 5.661200
5.131300 5.628200
5.147300 5.631100
5.163300 5.709900
5.179400 5.900700
5.195400 6.113900
5.211400 6.125400
5.227400 6.197200
5.243400 6.238900
5.259400 6.317200
5.275500 6.497700
5.291500 6.671900
5.307500 6.909100
5.323500 7.100700
5.339500 7.111800
5.355600 7.196600
5.371600 7.270000
5.387600 7.240500
5.403600 7.493500
5.419600 6.852800
5.435600 6.549700
5.451700 6.304900
5.467700 6.100800
5.483700 5.577000
5.499700 5.726800
5.515700 5.976600
5.531800 5.907000
5.547800 5.678500
5.563800 5.860800
5.579800 6.083800
5.595800 6.326200
5.611800 6.922800
5.627900 6.187900
5.643900 5.767000
5.659900 5.369200
5.675900 4.997200
5.691900 4.633700
5.708000 4.355100
5.724000 4.158500
5.740000 4.020200
5.756000 3.897500
5.772000 3.780400
5.788100 3.682000
5.804100 3.598500
5.820100 3.515400
5.836100 3.450200
5.852100 3.401600
5.868100 3.370600
5.884200 3.357300
5.900200 3.361600
5.916200 3.641400
5.932200 3.752600
5.948200 3.853700
5.964300 3.980700
5.980300 4.099900
5.996300 4.196400
6.012300 4.281100
6.028300 4.383300
6.044300 4.609900
6.060400 5.450600
6.076400 5.150200
6.092400 5.722900
6.108400 5.766600
6.124400 5.475700
6.140500 5.303800
6.156500 5.195800
6.172500 5.099700
6.188500 5.020900
6.204500 4.956900
6.220600 4.865400
6.236600 4.505800
6.252600 3.702200
6.268600 3.298300
6.284600 3.020700
6.300600 2.756100
6.316700 2.468800
6.332700 2.247900
6.348700 2.069200
6.364700 2.186600
6.380700 2.215600
6.396800 2.094700
6.412800 2.129200
6.428800 2.178000
6.444800 2.250000
6.460800 2.463400
6.476800 2.695700
6.492900 2.835300
6.508900 3.005100
6.524900 3.183600
6.540900 3.332400
6.556900 3.449200
6.573000 3.548200
6.589000 3.652500
6.605000 3.816700
6.621000 4.179800
6.637000 4.778500
6.653000 5.163700
6.669100 5.378300
6.685100 5.304000
6.701100 4.985200
6.717100 4.670800
6.733100 4.637800
6.749200 4.367900
6.765200 3.825400
6.781200 3.467400
6.797200 3.178600
6.813200 3.012900
6.829300 2.912700
6.845300 2.822600
6.861300 2.761600
6.877300 2.736500
6.893300 2.733900
6.909300 2.745700
6.925400 2.795700
6.941400 2.890300
6.957400 3.038100
6.973400 3.339700
6.989400 3.590900
7.005500 4.242000
7.021500 4.890300
7.037500 5.786600
7.053500 5.507100
7.069500 5.733800
7.085500 5.872500
7.101600 6.060600
7.117600 6.100200
7.133600 6.108400
7.149600 6.267200
7.165600 6.251100
7.181700 6.181300
7.197700 6.181100
7.213700 5.655500
7.229700 4.265200
7.245700 3.568200
7.261700 3.521900
7.277800 3.153800
7.293800 3.167300
7.309800 3.019300
7.325800 3.205500
7.341800 3.557200
7.357900 4.094900
7.373900 4.816300
7.389900 5.688100
7.405900 6.641900
7.421900 7.450400
7.438000 7.964300
7.454000 8.430600
7.470000 8.868400
7.486000 8.964000
7.502000 10.100000
7.518000 8.742300
7.534100 7.880200
7.550100 5.790100
7.566100 3.693400
7.582100 3.578700
7.598100 3.145200
7.614200 3.088100
7.630200 3.135400
7.646200 3.332200
7.662200 3.635500
7.678200 3.951000
7.694200 4.481100
7.710300 4.749300
7.726300 4.917600
7.742300 4.909700
7.758300 4.823800
7.774300 4.891100
7.790400 4.959900
7.806400 5.080400
7.822400 4.991100
7.838400 4.742100
7.854400 4.877200
7.870500 5.044900
7.886500 5.371700
7.902500 4.723900
7.918500 4.359700
7.934500 4.316000
7.950500 4.322000
7.966600 4.372100
7.982600 4.446600
7.998600 4.498500
8.014600 4.531600
8.030600 4.483800
8.046700 4.314400
8.062700 4.167300
8.078700 4.058000
8.094700 4.061200
8.110700 4.182600
8.126700 4.515500
8.142800 5.002600
8.158800 5.631700
8.174800 6.427700
8.190800 6.856400
8.206800 6.546800
8.222900 5.600900
8.238900 4.941300
8.254900 4.576400
8.270900 4.413700
8.286900 4.269100
8.302900 4.192600
8.319000 4.228500
8.335000 4.157700
8.351000 4.109200
8.367000 4.086900
8.383000 4.110700
8.399100 4.128100
8.415100 4.034200
8.431100 3.907600
8.447100 3.795600
8.463100 3.702700
8.479200 3.638300
8.495200 3.583300
8.511200 3.680700
8.527200 3.832800
8.543200 3.955100
8.559200 4.251400
8.575300 4.450300
8.591300 4.537500
8.607300 4.853600
8.623300 5.127000
8.639300 5.377000
8.655400 5.872500
8.671400 7.058300
8.687400 7.005600
8.703400 7.007900
8.719400 6.988600
8.735400 7.228100
8.751500 7.469600
8.767500 7.709100
8.783500 7.968600
8.799500 8.166200
8.815500 8.201200
8.831600 8.081400
8.847600 7.897000
8.863600 7.699000
8.879600 7.459800
8.895600 7.005900
8.911600 6.679400
8.927700 6.553900
8.943700 6.459300
8.959700 6.429700
8.975700 6.511000
8.991700 6.892700
9.007800 6.246600
9.023800 6.179300
9.039800 6.174700
9.055800 6.492900
9.071800 6.595600
9.087900 6.441800
9.103900 6.305600
9.119900 6.178800
9.135900 6.093100
9.151900 6.043300
9.167900 6.028000
9.184000 6.038400
9.200000 6.105800
9.216000 6.022800
9.232000 5.770300
9.248000 5.493800
9.264100 5.234600
9.280100 4.941700
9.296100 4.723300
9.312100 5.217200
9.328100 5.898000
9.344100 6.595900
9.360200 6.855900
9.376200 6.729700
9.392200 6.553100
9.408200 6.460400
9.424200 6.289500
9.440300 5.703100
9.456300 5.490000
9.472300 5.345100
9.488300 5.185100
9.504300 5.115900
9.520400 5.211600
9.536400 5.406700
9.552400 5.689100
9.568400 6.534700
9.584400 5.759400
9.600400 5.234800
9.616500 4.992100
9.632500 4.845700
9.648500 4.727700
9.664500 4.614200
9.680500 4.511600
9.696600 4.560300
9.712600 4.703800
9.728600 4.780200
9.744600 4.872700
9.760600 4.909000
9.776600 4.921600
9.792700 4.891200
9.808700 5.312400
9.824700 4.776100
9.840700 4.611300
9.856700 4.153800
9.872800 3.692400
9.888800 3.455600
9.904800 3.232300
9.920800 3.264000
9.936800 3.083600
9.952800 2.939500
9.968900 2.670800
9.984900 2.461100
10.000900 2.758200
10.016900 2.263600
10.032900 2.193100
10.049000 2.180500
10.065000 2.201200
10.081000 2.220100
10.097000 2.244200
10.113000 2.282200
10.129100 2.316100
10.145100 2.216200
10.161100 2.147500
10.177100 2.096300
10.193100 2.059500
10.209100 2.037100
10.225200 2.071600
10.241200 2.077300
10.257200 2.091000
10.273200 2.113000
10.289200 2.145800
10.305300 2.192600
10.321300 2.253600
10.337300 2.351200
10.353300 2.611200
10.369300 3.075000
10.385300 3.417400
10.401400 3.467300
10.417400 3.688800
10.433400 3.735400
10.449400 3.792300
10.465400 3.931200
10.481500 4.059500
10.497500 4.190200
10.513500 4.332600
10.529500 4.475500
10.545500 4.618900
10.561500 4.931600
10.577600 5.170400
10.593600 6.016500
10.609600 6.437300
10.625600 6.568300
10.641600 6.548600
10.657700 7.016900
10.673700 5.879000
10.689700 5.166400
10.705700 4.952300
10.721700 4.721300
10.737800 4.459200
10.753800 4.357500
10.769800 4.347600
10.785800 4.352800
10.801800 4.367200
10.817800 4.390300
10.833900 4.348600
10.849900 4.365900
10.865900 4.396900
10.881900 4.427400
10.897900 4.533400
10.914000 4.501600
10.930000 4.422700
10.946000 4.387600
10.962000 4.438200
10.978000 4.508100
10.994000 4.466600
11.010100 4.287100
11.026100 4.165300
11.042100 4.081300
11.058100 3.941400
11.074100 3.405900
11.090200 2.955200
11.106200 2.616400
11.122200 2.377900
11.138200 2.262500
11.154200 2.264100
11.170300 2.325700
11.186300 2.358900
11.202300 2.409800
11.218300 2.476200
11.234300 2.557900
11.250300 2.654800
11.266400 2.767100
11.282400 2.899700
11.298400 3.133400
11.314400 3.447900
11.330400 3.731800
11.346500 3.964400
11.362500 4.018400
11.378500 3.928300
11.394500 3.833300
11.410500 3.728300
11.426500 3.793300
11.442600 3.876500
11.458600 3.990900
11.474600 4.448400
11.490600 4.470600
11.506600 4.587700
11.522700 4.322700
11.538700 4.005200
11.554700 3.769700
11.570700 3.666200
11.586700 3.589700
11.602700 3.524600
11.618800 3.459700
11.634800 3.471500
11.650800 3.216900
11.666800 2.441500
11.682800 1.906400
11.698900 1.502900
11.714900 1.346500
11.730900 1.447000
11.746900 1.578700
11.762900 1.668000
11.779000 1.849700
11.795000 1.935600
11.811000 2.031500
11.827000 2.045800
11.843000 2.145300
11.859000 2.259200
11.875100 2.389400
11.891100 2.538600
11.907100 2.735800
11.923100 2.995500
11.939100 3.267500
11.955200 3.486500
11.971200 3.714700
11.987200 4.028200
12.003200 4.237400
12.019200 4.268300
12.035200 4.257400
12.051300 4.191900
12.067300 4.056300
12.083300 3.623400
12.099300 3.556100
12.115300 3.492200
12.131400 3.650100
12.147400 3.390300
12.163400 3.506800
12.179400 3.672800
12.195400 3.922000
12.211400 3.975100
12.227500 3.782200
12.243500 3.709400
12.259500 3.779900
12.275500 3.955000
12.291500 3.893200
12.307600 3.904600
12.323600 3.880600
12.339600 3.919900
12.355600 4.010800
12.371600 4.113800
12.387700 4.229300
12.403700 4.370600
12.419700 4.563300
12.435700 4.796900
12.451700 5.082300
12.467700 5.849300
12.483800 6.768100
12.499800 6.716900
12.515800 6.602900
12.531800 6.365600
12.547800 6.118700
12.563900 6.114300
12.579900 6.400600
12.595900 6.556700
12.611900 6.354100
12.627900 6.167600
12.643900 5.884200
12.660000 5.678500
12.676000 5.451100
12.692000 5.302500
12.708000 5.211000
12.724000 5.244600
12.740100 5.321300
12.756100 5.407500
12.772100 5.524800
12.788100 6.002800
12.804100 6.498200
12.820200 7.020400
12.836200 6.181700
12.852200 5.774800
12.868200 5.429600
12.884200 4.669900
12.900200 4.334300
12.916300 4.219700
12.932300 4.206200
12.948300 4.189900
12.964300 4.197400
12.980300 4.340500
12.996400 4.391000
13.012400 4.450800
13.028400 4.555200
13.044400 4.752100
13.060400 4.998400
13.076400 5.424200
13.092500 6.165600
13.108500 7.317000
13.124500 8.256800
13.140500 8.609100
13.156500 8.465900
13.172600 7.805600
13.188600 7.226100
13.204600 6.615300
13.220600 5.770200
13.236600 5.859200
13.252600 5.381600
13.268700 5.722800
13.284700 6.285000
13.300700 6.640800
13.316700 6.798000
13.332700 6.845000
13.348800 6.841400
13.364800 7.067200
13.380800 7.230800
13.396800 7.244300
13.412800 7.040000
13.428900 6.566100
13.444900 6.336100
13.460900 6.240000
13.476900 6.019300
13.492900 5.651900
13.508900 5.318500
13.525000 4.931900
13.541000 4.524600
13.557000 4.266100
13.573000 4.303700
13.589000 4.368400
13.605100 4.383000
13.621100 4.663900
13.637100 4.917400
13.653100 5.099300
13.669100 5.358000
13.685100 5.714200
13.701200 6.173100
13.717200 6.742600
13.733200 7.324000
13.749200 7.816800
13.765200 6.909900
13.781300 5.487900
13.797300 4.697800
13.813300 4.589000
13.829300 4.540500
13.845300 4.531000
13.861400 4.552400
13.877400 4.592200
13.893400 4.604300
13.909400 4.809600
13.925400 5.328300
13.941400 6.147700
13.957500 6.872100
13.973500 7.837300
13.989500 7.942800
14.005500 7.970000
14.021500 8.011300
14.037600 7.940000
14.053600 8.315800
14.069600 8.226600
14.085600 8.021700
14.101600 7.732800
14.117600 7.515500
14.133700 7.168000
14.149700 7.920700
14.165700 5.904700
14.181700 5.583400
14.197700 5.327800
14.213800 5.215200
14.229800 5.110300
14.245800 5.085400
14.261800 5.702300
14.277800 7.593200
14.293800 7.351600
14.309900 7.299000
14.325900 7.188500
14.341900 7.125000
14.357900 6.402300
14.373900 6.027000
14.390000 5.864600
14.406000 5.698600
14.422000 5.556200
14.438000 5.457900
14.454000 5.438200
14.470100 5.523500
14.486100 5.725300
14.502100 6.033700
14.518100 6.205400
14.534100 6.434900
14.550100 6.609300
14.566200 6.725600
14.582200 6.798400
14.598200 7.196900
14.614200 7.175900
14.630200 7.089300
14.646300 7.164400
14.662300 7.619400
14.678300 7.632400
14.694300 7.292200
14.710300 7.067400
14.726300 6.836400
14.742400 7.191500
14.758400 7.285700
14.774400 7.419500
14.790400 7.345800
14.806400 7.277100
14.822500 7.383200
14.838500 7.420200
14.854500 7.289100
14.870500 6.998600
14.886500 6.747700
14.902500 6.607900
14.918600 6.462200
14.934600 6.370900
14.950600 6.342500
14.966600 6.304200
14.982600 6.283700
14.998700 6.298400
15.014700 6.305500
15.030700 6.294700
15.046700 6.242400
15.062700 6.257100
15.078800 6.304600
15.094800 6.360100
15.110800 6.508000
15.126800 6.659200
15.142800 6.801000
15.158800 6.892900
15.174900 6.941500
15.190900 7.088300
15.206900 6.820500
15.222900 6.632100
15.238900 6.673400
15.255000 6.903300
15.271000 6.857700
15.287000 6.809200
15.303000 6.686100
15.319000 6.875100
15.335000 7.006700
15.351100 7.126200
15.367100 7.132600
15.383100 7.049600
15.399100 6.762200
15.415100 6.545200
15.431200 6.661900
15.447200 6.764800
15.463200 6.360600
15.479200 6.239900
15.495200 6.151200
15.511300 6.301800
15.527300 6.430900
15.543300 6.264600
15.559300 6.280600
15.575300 6.368200
15.591300 6.523800
15.607400 6.653500
15.623400 6.819300
15.639400 6.948600
15.655400 7.058400
15.671400 7.137400
15.687500 7.304500
15.703500 6.717700
15.719500 6.631600
15.735500 6.548200
15.751500 6.673400
15.767500 6.237700
15.783600 6.126000
15.799600 6.142000
15.815600 6.153600
15.831600 6.068000
15.847600 5.956300
15.863700 5.896400
15.879700 5.875700
15.895700 5.870400
15.911700 5.866200
15.927700 6.124400
15.943700 6.569200
15.959800 7.353000
15.975800 8.509600
15.991800 8.585500
16.007800 8.697300
16.023800 8.756100
16.039900 8.715800
16.055900 8.546700
16.071900 8.001900
16.087900 7.314000
16.103900 7.487500
16.120000 6.928700
16.136000 6.374600
16.152000 6.369400
16.168000 6.387400
16.184000 6.624500
16.200000 6.774200
16.216100 7.168600
16.232100 7.668200
16.248100 8.748600
16.264100 9.280500
16.280100 9.169000
16.296200 9.207300
16.312200 9.240700
16.328200 9.201500
16.344200 8.925700
16.360200 8.719600
16.376200 9.218700
16.392300 8.812200
16.408300 8.631400
16.424300 8.359100
16.440300 8.064400
16.456300 7.883800
16.472400 7.709000
16.488400 7.588100
16.504400 7.495200
16.520400 7.415000
16.536400 8.321000
16.552400 7.980900
16.568500 7.729500
16.584500 7.513500
16.600500 7.292100
16.616500 7.011400
16.632500 6.533500
16.648600 6.417700
16.664600 6.536200
16.680600 6.751800
16.696600 6.852200
16.712600 6.956200
16.728700 7.128800
16.744700 7.641700
16.760700 7.931900
16.776700 7.659800
16.792700 8.239900
16.808700 8.882500
16.824800 9.671700
16.840800 8.363800
16.856800 7.274200
16.872800 6.907200
16.888800 6.398300
16.904900 6.012200
16.920900 5.905600
16.936900 7.461300
16.952900 8.093600
16.968900 8.085100
16.984900 8.191500
17.001000 8.395100
17.017000 8.533900
17.033000 8.084000
17.049000 7.795200
17.065000 7.449400
17.081100 7.175700
17.097100 6.687300
17.113100 6.317900
17.129100 6.127200
17.145100 6.053500
17.161200 6.168400
17.177200 6.403400
17.193200 6.816400
17.209200 7.637300
17.225200 10.118300
17.241200 10.048100
17.257300 7.645700
17.273300 6.340200
17.289300 5.795500
17.305300 5.797000
17.321300 5.657800
17.337400 5.650900
17.353400 5.851400
17.369400 6.128100
17.385400 6.420100
17.401400 6.728900
17.417400 7.056800
17.433500 7.217500
17.449500 7.119100
17.465500 7.048600
17.481500 6.906400
17.497500 6.611300
17.513600 5.976100
17.529600 5.877600
17.545600 6.005500
17.561600 6.592900
17.577600 7.186000
17.593600 7.707900
17.609700 8.162300
17.625700 8.436900
17.641700 9.011600
17.657700 8.534700
17.673700 8.110500
17.689800 7.687300
17.705800 7.305200
17.721800 7.203800
17.737800 7.421500
17.753800 8.718300
17.769900 8.758700
17.785900 8.985100
17.801900 9.034900
17.817900 9.149600
17.833900 9.360100
17.849900 9.394400
17.866000 10.190500
17.882000 9.964800
17.898000 9.885400
17.914000 9.751200
17.930000 9.458700
17.946100 9.118500
17.962100 8.627700
17.978100 7.998400
17.994100 7.643200
18.010100 7.161200
18.026100 7.003000
18.042200 7.190500
18.058200 7.161300
18.074200 7.217000
18.090200 7.438900
18.106200 7.636700
18.122300 7.821900
18.138300 7.746500
18.154300 7.631400
18.170300 7.529800
18.186300 7.724300
18.202300 7.789700
18.218400 7.854000
18.234400 7.657600
18.250400 7.587600
18.266400 8.073400
18.282400 7.368000
18.298500 7.327900
18.314500 7.217500
18.330500 7.068900
18.346500 6.987700
18.362500 7.007700
18.378600 7.130800
18.394600 7.428300
18.410600 7.630500
18.426600 7.743900
18.442600 7.948900
18.458600 8.158300
18.474700 8.054200
18.490700 8.235100
18.506700 8.485800
18.522700 8.603700
18.538700 8.969300
18.554800 9.030000
18.570800 8.924400
18.586800 9.029800
18.602800 9.021700
18.618800 9.052200
18.634800 9.033700
18.650900 8.987600
18.666900 8.936000
18.682900 8.891200
18.698900 8.708000
18.714900 8.507000
18.731000 8.606800
18.747000 8.741100
18.763000 8.991500
18.779000 9.343600
18.795000 9.339400
18.811100 9.612900
18.827100 10.287400
18.843100 9.581100
18.859100 8.825600
18.875100 8.904400
18.891100 8.988700
18.907200 9.314200
18.923200 9.423800
18.939200 9.088800
18.955200 9.225600
18.971200 9.190600
18.987300 9.182300
19.003300 9.279700
19.019300 9.472100
19.035300 9.835500
19.051300 9.728100
19.067300 10.243500
19.083400 10.692700
19.099400 11.036100
19.115400 10.785200
19.131400 10.259200
19.147400 9.390000
19.163500 9.366300
19.179500 9.001200
19.195500 8.663100
19.211500 8.572400
19.227500 8.589100
19.243500 8.691700
19.259600 8.787500
19.275600 8.889700
19.291600 9.108500
19.307600 9.506300
19.323600 10.065200
19.339700 10.644500
19.355700 10.788700
19.371700 10.606500
19.387700 10.012100
19.403700 9.688100
19.419800 9.494700
19.435800 9.625200
19.451800 9.668000
19.467800 9.649100
19.483800 9.589100
19.499800 9.337800
19.515900 9.308500
19.531900 9.375900
19.547900 11.778600
19.563900 9.527300
19.579900 9.342500
19.596000 9.333600
19.612000 8.764100
19.628000 8.748300
19.644000 8.872400
19.660000 9.144600
19.676000 9.755100
19.692100 10.575400
19.708100 10.965500
19.724100 11.299100
19.740100 11.515000
19.756100 11.469500
19.772200 11.167600
19.788200 10.738000
19.804200 10.567000
19.820200 10.357900
19.836200 10.361000
19.852200 10.435000
19.868300 10.396000
19.884300 10.363700
19.900300 10.896900
19.916300 10.932400
19.932300 11.016100
19.948400 11.404200
19.964400 11.706500
19.980400 11.798700
19.996400 11.786500
20.012400 11.200800
20.028500 10.938300
20.044500 10.647100
20.060500 10.464600
20.076500 10.656000
20.092500 10.882400
20.108500 11.026500
20.124600 11.243000
20.140600 11.189500
20.156600 10.982200
20.172600 10.261300
20.188600 9.465100
20.204700 9.147800
20.220700 8.950900
20.236700 8.828300
20.252700 8.991900
20.268700 9.280700
20.284700 10.240300
20.300800 10.751000
20.316800 10.935800
20.332800 10.174000
20.348800 9.838400
20.364800 9.677100
20.380900 9.848200
20.396900 9.985700
20.412900 9.726600
20.428900 9.577700
20.444900 9.476200
20.461000 9.363500
20.477000 9.506600
20.493000 9.165000
20.509000 8.950300
20.525000 8.481700
20.541000 8.119400
20.557100 7.456700
20.573100 7.228200
20.589100 7.154000
20.605100 7.190500
20.621100 7.297800
20.637200 7.072100
20.653200 6.912100
20.669200 6.901400
20.685200 7.241400
20.701200 7.676200
20.717200 8.902500
20.733300 9.433500
20.749300 9.448300
20.765300 9.100100
20.781300 8.713600
20.797300 8.342600
20.813400 7.936700
20.829400 7.762000
20.845400 7.859400
20.861400 8.119100
20.877400 8.456400
20.893400 8.324800
20.909500 8.351300
20.925500 8.294100
20.941500 8.473400
20.957500 8.782700
20.973500 9.056900
20.989600 9.070400
21.005600 8.520100
21.021600 8.362300
21.037600 8.502800
21.053600 8.673300
21.069700 8.773600
21.085700 8.859000
21.101700 8.835600
21.117700 9.169300
21.133700 9.283300
21.149700 9.287800
21.165800 9.386600
21.181800 9.657500
21.197800 9.981000
21.213800 9.594900
21.229800 9.181400
21.245900 9.340200
21.261900 9.409500
21.277900 9.200500
21.293900 9.053100
21.309900 9.093000
21.325900 8.128700
21.342000 7.872900
21.358000 7.725400
21.374000 7.640300
21.390000 7.633200
21.406000 7.819100
21.422100 8.203300
21.438100 8.229300
21.454100 7.382300
21.470100 7.317600
21.486100 7.803300
21.502100 8.420900
21.518200 8.844800
21.534200 11.683100
21.550200 8.934500
21.566200 8.237300
21.582200 7.980600
21.598300 7.749400
21.614300 7.482700
21.630300 7.261400
21.646300 7.031900
21.662300 6.690800
21.678400 6.510600
21.694400 6.655300
21.710400 6.691100
21.726400 6.595300
21.742400 6.142600
21.758400 6.072100
21.774500 5.865400
21.790500 5.495900
21.806500 5.233000
21.822500 5.173700
21.838500 5.185700
21.854600 5.122900
21.870600 5.016000
21.886600 4.777400
21.902600 4.603100
21.918600 4.335500
21.934600 4.139000
21.950700 3.989700
21.966700 3.864400
21.982700 3.768700
21.998700 3.666000
22.014700 3.535000
22.030800 3.408000
22.046800 3.290800
22.062800 3.121100
22.078800 2.871600
22.094800 2.552000
22.110900 2.219500
22.126900 1.935200
22.142900 1.690500
22.158900 1.453500
22.174900 1.263900
22.190900 1.122600
22.207000 1.022500
22.223000 0.958800
22.239000 0.945800
22.255000 0.876900
22.271000 0.772900
22.287100 0.844000
22.303100 0.554400
22.319100 0.381100
22.335100 0.295300
22.351100 0.232200
22.367100 0.180100
22.383200 0.137600
22.399200 0.104600
22.415200 0.079100
22.431200 0.044200
22.447200 0.000700
22.463300 0.000000
22.479300 0.000000
22.495300 0.000000
22.511300 0.000000
22.527300 0.000000
22.543300 0.000000
22.559400 0.000000
22.575400 0.000000
22.591400 0.000000
22.607400 0.000000
22.623400 0.000000
22.639500 0.000000
22.655500 0.000000
22.671500 0.000000
22.687500 0.000000
22.703500 0.000000
22.719600 0.000000
22.735600 0.000000
22.751600 0.000000
22.767600 0.000000
22.783600 0.000000
22.799600 0.000000
22.815700 0.000000
22.831700 0.000000
22.847700 0.000000
22.863700 0.000000
22.879700 0.000000
22.895800 0.000000
22.911800 0.000000
22.927800 0.000000
22.943800 0.000000
22.959800 0.000000
22.975800 0.000000
22.991900 0.000000
23.007900 0.000000
23.023900 0.000000
23.039900 0.000000
23.055900 0.000000
23.072000 0.000000
23.088000 0.000000
23.104000 0.000000
23.120000 0.000000
23.136000 0.000000
23.152000 0.000000
23.168100 0.000000
23.184100 0.000000
23.200100 0.000000
23.216100 0.000000
23.232100 0.000000
23.248200 0.000000
23.264200 0.000000
23.280200 0.000000
23.296200 0.000000
23.312200 0.000000
23.328300 0.000000
23.344300 0.000000
23.360300 0.000000
23.376300 0.000000
23.392300 0.000000
23.408300 0.000000
23.424400 0.000000
23.440400 0.000000
23.456400 0.000000
23.472400 0.000000
23.488400 0.000000
23.504500 0.000000
23.520500 0.000000
23.536500 0.000000
23.552500 0.000000
23.568500 0.000000
23.584500 0.000000
23.600600 0.000000
23.616600 0.000000
23.632600 0.000000
23.648600 0.000000
23.664600 0.000000
23.680700 0.000000
23.696700 0.000000
23.712700 0.000000
23.728700 0.000000
23.744700 0.000000
23.760800 0.000000
23.776800 0.000000
23.792800 0.000000
23.808800 0.000000
23.824800 0.000000
23.840800 0.000000
23.856900 0.000000
23.872900 0.000000
23.888900 0.000000
23.904900 0.000000
e
