set title 'mp-1179643 - Density of States'
set xlabel 'Energy (eV)'
set ylabel 'DOS (states/eV)'
set grid
set xrange [-10:10]
set yrange [0:12.248]
set xzeroaxis lt -1
set terminal png size 800,600
set output 'mp-1179643_dos_gnuplot.png'
plot '-' using 1:2 with lines title 'DOS'
-18.214100 0.000000
-18.193900 0.000000
-18.173800 0.000000
-18.153700 0.000000
-18.133500 0.000000
-18.113400 0.000000
-18.093300 0.000000
-18.073200 0.000000
-18.053000 0.000000
-18.032900 0.000000
-18.012800 0.000000
-17.992700 0.000000
-17.972500 0.000000
-17.952400 0.000000
-17.932300 0.000000
-17.912200 0.000000
-17.892000 0.000000
-17.871900 0.000000
-17.851800 0.000000
-17.831600 0.000000
-17.811500 0.000000
-17.791400 0.000000
-17.771300 0.000000
-17.751100 0.000000
-17.731000 0.000000
-17.710900 0.000000
-17.690800 0.000000
-17.670600 0.000000
-17.650500 0.000000
-17.630400 0.000000
-17.610300 0.000000
-17.590100 0.000000
-17.570000 0.000000
-17.549900 0.000000
-17.529700 0.000000
-17.509600 0.000000
-17.489500 0.000000
-17.469400 0.000000
-17.449200 0.000000
-17.429100 0.000000
-17.409000 0.000000
-17.388900 0.000000
-17.368700 0.000000
-17.348600 0.000000
-17.328500 0.000000
-17.308400 0.000000
-17.288200 0.000000
-17.268100 0.000000
-17.248000 0.000000
-17.227800 0.000000
-17.207700 0.000000
-17.187600 0.000000
-17.167500 0.000000
-17.147300 0.000000
-17.127200 0.000000
-17.107100 0.000000
-17.087000 0.000000
-17.066800 0.000000
-17.046700 0.000000
-17.026600 0.000000
-17.006500 0.000000
-16.986300 0.000000
-16.966200 0.000000
-16.946100 0.000000
-16.925900 0.000000
-16.905800 0.000000
-16.885700 0.000000
-16.865600 0.000000
-16.845400 0.000000
-16.825300 0.000000
-16.805200 0.000000
-16.785100 0.000000
-16.764900 0.000000
-16.744800 0.000000
-16.724700 0.000000
-16.704600 0.000000
-16.684400 0.000000
-16.664300 0.000000
-16.644200 0.000000
-16.624000 0.000000
-16.603900 0.000000
-16.583800 0.000000
-16.563700 0.000000
-16.543500 0.000000
-16.523400 0.000000
-16.503300 0.000000
-16.483200 0.000000
-16.463000 0.000000
-16.442900 0.000000
-16.422800 0.000000
-16.402700 0.000000
-16.382500 0.107100
-16.362400 3.658200
-16.342300 11.026500
-16.322100 10.534000
-16.302000 7.906700
-16.281900 3.682500
-16.261800 3.682500
-16.241600 3.682500
-16.221500 3.682500
-16.201400 3.682500
-16.181300 3.682500
-16.161100 3.682300
-16.141000 3.233800
-16.120900 2.262900
-16.100800 2.217500
-16.080600 2.217500
-16.060500 2.217500
-16.040400 2.217500
-16.020200 2.217500
-16.000100 2.217500
-15.980000 2.217500
-15.959900 2.217500
-15.939700 2.217500
-15.919600 2.217500
-15.899500 2.217500
-15.879400 2.190200
-15.859200 1.979300
-15.839100 1.593000
-15.819000 1.593000
-15.798900 1.593000
-15.778700 1.593000
-15.758600 1.593000
-15.738500 1.593000
-15.718300 1.593000
-15.698200 1.593000
-15.678100 1.593000
-15.658000 1.593000
-15.637800 1.593000
-15.617700 1.593000
-15.597600 1.593000
-15.577500 1.593000
-15.557300 1.593000
-15.537200 1.593000
-15.517100 1.593000
-15.497000 1.593000
-15.476800 1.485000
-15.456700 1.257200
-15.436600 1.249300
-15.416400 1.249300
-15.396300 1.249300
-15.376200 1.249300
-15.356100 1.249300
-15.335900 1.249300
-15.315800 1.249300
-15.295700 1.249300
-15.275600 1.249300
-15.255400 1.249300
-15.235300 1.249300
-15.215200 1.249300
-15.195100 1.249300
-15.174900 1.249300
-15.154800 1.249300
-15.134700 1.249300
-15.114500 1.249300
-15.094400 1.249300
-15.074300 1.249300
-15.054200 1.249300
-15.034000 1.249300
-15.013900 1.249300
-14.993800 1.220900
-14.973700 1.116300
-14.953500 1.034100
-14.933400 1.034100
-14.913300 1.034100
-14.893200 1.034100
-14.873000 1.034100
-14.852900 1.034100
-14.832800 1.034100
-14.812600 1.034100
-14.792500 1.034100
-14.772400 1.034100
-14.752300 1.034100
-14.732100 1.034100
-14.712000 1.034100
-14.691900 1.034100
-14.671800 1.034100
-14.651600 1.034100
-14.631500 1.034100
-14.611400 1.034100
-14.591300 1.034100
-14.571100 1.034100
-14.551000 1.034100
-14.530900 1.034100
-14.510700 1.034100
-14.490600 1.034100
-14.470500 1.034100
-14.450400 1.034100
-14.430200 1.034100
-14.410100 1.034100
-14.390000 6.718900
-14.369900 10.292800
-14.349700 0.000000
-14.329600 0.000000
-14.309500 0.000000
-14.289400 0.000000
-14.269200 0.000000
-14.249100 0.000000
-14.229000 0.000000
-14.208800 0.000000
-14.188700 0.000000
-14.168600 0.000000
-14.148500 0.000000
-14.128300 0.000000
-14.108200 0.000000
-14.088100 0.000000
-14.068000 0.000000
-14.047800 0.000000
-14.027700 0.000000
-14.007600 0.000000
-13.987500 0.000000
-13.967300 0.000000
-13.947200 0.000000
-13.927100 0.000000
-13.906900 0.000000
-13.886800 0.000000
-13.866700 0.000000
-13.846600 0.000000
-13.826400 0.000000
-13.806300 0.000000
-13.786200 0.000000
-13.766100 0.000000
-13.745900 0.000000
-13.725800 0.000000
-13.705700 5.132000
-13.685600 16.178700
-13.665400 0.788400
-13.645300 0.788400
-13.625200 0.788400
-13.605000 0.788400
-13.584900 0.788400
-13.564800 0.788400
-13.544700 0.788400
-13.524500 0.788400
-13.504400 0.788400
-13.484300 0.788400
-13.464200 0.788400
-13.444000 0.788400
-13.423900 0.788400
-13.403800 0.788400
-13.383700 0.788400
-13.363500 0.788400
-13.343400 0.788400
-13.323300 0.788400
-13.303100 0.788400
-13.283000 0.788400
-13.262900 0.788400
-13.242800 0.788400
-13.222600 0.788400
-13.202500 0.788400
-13.182400 0.788400
-13.162300 0.788400
-13.142100 0.788400
-13.122000 0.788400
-13.101900 0.788400
-13.081800 0.788400
-13.061600 0.788400
-13.041500 0.788400
-13.021400 0.788400
-13.001200 0.788400
-12.981100 0.788400
-12.961000 0.788400
-12.940900 0.788400
-12.920700 0.773100
-12.900600 0.732100
-12.880500 0.719800
-12.860400 0.719800
-12.840200 0.719800
-12.820100 0.719800
-12.800000 0.719800
-12.779900 0.719800
-12.759700 0.719800
-12.739600 0.719800
-12.719500 0.719800
-12.699300 0.719800
-12.679200 0.719800
-12.659100 0.719800
-12.639000 0.719800
-12.618800 0.719800
-12.598700 0.719800
-12.578600 0.719800
-12.558500 0.719800
-12.538300 0.719800
-12.518200 0.719800
-12.498100 0.719800
-12.478000 0.719800
-12.457800 0.719800
-12.437700 0.719800
-12.417600 0.719800
-12.397400 0.719800
-12.377300 0.719800
-12.357200 0.719800
-12.337100 0.719800
-12.316900 0.719800
-12.296800 0.719800
-12.276700 0.719800
-12.256600 0.719800
-12.236400 0.719800
-12.216300 0.719800
-12.196200 0.719800
-12.176100 0.719800
-12.155900 0.719800
-12.135800 0.719800
-12.115700 0.719800
-12.095500 0.719800
-12.075400 0.718000
-12.055300 0.700100
-12.035200 0.680600
-12.015000 0.680400
-11.994900 0.680400
-11.974800 0.680400
-11.954700 0.680400
-11.934500 0.680400
-11.914400 0.680400
-11.894300 0.680400
-11.874200 0.680400
-11.854000 0.680400
-11.833900 0.680400
-11.813800 0.680400
-11.793600 0.680400
-11.773500 0.680400
-11.753400 0.680400
-11.733300 0.680400
-11.713100 0.680400
-11.693000 0.680400
-11.672900 0.680400
-11.652800 0.680400
-11.632600 0.680400
-11.612500 0.680400
-11.592400 0.680400
-11.572300 0.680400
-11.552100 0.680400
-11.532000 0.680400
-11.511900 0.680400
-11.491700 0.680400
-11.471600 0.680400
-11.451500 0.680400
-11.431400 0.680400
-11.411200 0.680400
-11.391100 0.680400
-11.371000 0.680400
-11.350900 0.680400
-11.330700 0.680400
-11.310600 0.680400
-11.290500 0.680400
-11.270400 0.680400
-11.250200 0.680400
-11.230100 0.680400
-11.210000 0.680400
-11.189800 0.680400
-11.169700 0.680300
-11.149600 0.680700
-11.129500 0.680200
-11.109300 0.680000
-11.089200 0.680000
-11.069100 0.680000
-11.049000 0.680000
-11.028800 0.680000
-11.008700 0.680000
-10.988600 0.680000
-10.968500 0.680000
-10.948300 0.680000
-10.928200 0.680000
-10.908100 0.680000
-10.887900 0.680000
-10.867800 0.680000
-10.847700 0.680000
-10.827600 0.680000
-10.807400 0.680000
-10.787300 0.680000
-10.767200 0.680000
-10.747100 0.680000
-10.726900 0.680000
-10.706800 0.680000
-10.686700 0.680000
-10.666600 0.680000
-10.646400 0.680000
-10.626300 0.680000
-10.606200 0.680000
-10.586000 0.680000
-10.565900 0.680000
-10.545800 0.680000
-10.525700 0.680000
-10.505500 0.680000
-10.485400 0.680000
-10.465300 0.680000
-10.445200 0.680000
-10.425000 0.680000
-10.404900 0.680000
-10.384800 0.680000
-10.364600 0.680000
-10.344500 0.680000
-10.324400 0.680000
-10.304300 0.680000
-10.284100 0.680000
-10.264000 0.690100
-10.243900 0.746800
-10.223800 0.767500
-10.203600 0.778800
-10.183500 0.778800
-10.163400 0.778800
-10.143300 0.778800
-10.123100 0.778800
-10.103000 0.778800
-10.082900 0.778800
-10.062700 0.778800
-10.042600 0.778800
-10.022500 0.778800
-10.002400 0.778800
-9.982200 0.778800
-9.962100 0.778800
-9.942000 0.778800
-9.921900 0.778800
-9.901700 0.778800
-9.881600 0.778800
-9.861500 0.778800
-9.841400 0.778800
-9.821200 0.778800
-9.801100 0.778800
-9.781000 0.778800
-9.760800 0.778800
-9.740700 0.778800
-9.720600 0.778800
-9.700500 0.778800
-9.680300 0.778800
-9.660200 0.778800
-9.640100 0.778800
-9.620000 0.778800
-9.599800 0.778800
-9.579700 0.778800
-9.559600 0.778800
-9.539500 0.778800
-9.519300 0.778800
-9.499200 0.778800
-9.479100 0.967500
-9.458900 1.302300
-9.438800 1.460800
-9.418700 1.567200
-9.398600 1.658100
-9.378400 1.666300
-9.358300 1.666200
-9.338200 1.666200
-9.318100 1.666100
-9.297900 1.666000
-9.277800 1.665900
-9.257700 1.665800
-9.237600 1.665800
-9.217400 1.665700
-9.197300 1.665600
-9.177200 1.665500
-9.157000 1.665400
-9.136900 1.665400
-9.116800 1.260700
-9.096700 0.848500
-9.076500 0.528900
-9.056400 0.341500
-9.036300 0.195300
-9.016200 0.061600
-8.996000 0.000000
-8.975900 0.000000
-8.955800 0.000000
-8.935700 0.000000
-8.915500 0.000000
-8.895400 0.000000
-8.875300 0.000000
-8.855100 0.000000
-8.835000 0.000000
-8.814900 0.000000
-8.794800 0.000000
-8.774600 0.000000
-8.754500 0.000000
-8.734400 0.000000
-8.714300 0.000000
-8.694100 0.000000
-8.674000 0.000000
-8.653900 0.000000
-8.633800 0.000000
-8.613600 0.000000
-8.593500 0.000000
-8.573400 0.000000
-8.553200 0.000000
-8.533100 0.000000
-8.513000 0.000000
-8.492900 0.000000
-8.472700 0.000000
-8.452600 0.000000
-8.432500 0.000000
-8.412400 0.000000
-8.392200 0.000000
-8.372100 0.000000
-8.352000 0.000000
-8.331900 0.000000
-8.311700 0.000000
-8.291600 0.000000
-8.271500 0.000000
-8.251300 0.000000
-8.231200 0.000000
-8.211100 0.000000
-8.191000 0.000000
-8.170800 0.000000
-8.150700 0.000000
-8.130600 0.000000
-8.110500 0.000000
-8.090300 0.000000
-8.070200 0.000000
-8.050100 0.000000
-8.030000 0.000000
-8.009800 0.000000
-7.989700 0.000000
-7.969600 0.000000
-7.949400 0.000000
-7.929300 0.000000
-7.909200 0.000000
-7.889100 0.000000
-7.868900 0.000000
-7.848800 0.000000
-7.828700 0.000000
-7.808600 0.000000
-7.788400 0.000000
-7.768300 0.000000
-7.748200 0.000000
-7.728100 0.000000
-7.707900 0.000000
-7.687800 0.000000
-7.667700 0.000000
-7.647500 0.000000
-7.627400 0.000000
-7.607300 0.000000
-7.587200 0.000000
-7.567000 0.000000
-7.546900 0.000000
-7.526800 0.000000
-7.506700 0.000000
-7.486500 0.000000
-7.466400 0.000000
-7.446300 0.000000
-7.426200 0.000000
-7.406000 0.000000
-7.385900 0.000000
-7.365800 0.000000
-7.345600 0.000000
-7.325500 0.000000
-7.305400 0.000000
-7.285300 0.000000
-7.265100 0.000000
-7.245000 0.000000
-7.224900 0.000000
-7.204800 0.000000
-7.184600 0.000000
-7.164500 0.000000
-7.144400 1.972900
-7.124300 2.857700
-7.104100 2.857400
-7.084000 2.857100
-7.063900 2.856900
-7.043700 2.856600
-7.023600 2.856300
-7.003500 2.856100
-6.983400 2.855800
-6.963200 2.855500
-6.943100 2.391800
-6.923000 1.872600
-6.902900 1.642900
-6.882700 1.552600
-6.862600 1.552500
-6.842500 1.552300
-6.822400 1.552200
-6.802200 1.552100
-6.782100 1.552000
-6.762000 1.551800
-6.741800 1.551700
-6.721700 1.551600
-6.701600 1.551500
-6.681500 1.551300
-6.661300 1.551200
-6.641200 1.551100
-6.621100 1.551000
-6.601000 1.550800
-6.580800 1.542900
-6.560700 1.518800
-6.540600 1.506600
-6.520500 1.497500
-6.500300 1.491900
-6.480200 1.489600
-6.460100 1.488000
-6.439900 1.487600
-6.419800 1.487500
-6.399700 1.487400
-6.379600 1.487300
-6.359400 1.487100
-6.339300 1.487000
-6.319200 1.486900
-6.299100 1.486800
-6.278900 1.486600
-6.258800 1.486500
-6.238700 1.486400
-6.218600 1.486300
-6.198400 1.486100
-6.178300 1.470400
-6.158200 1.452700
-6.138000 1.442100
-6.117900 1.434100
-6.097800 1.425900
-6.077700 1.419800
-6.057500 1.416400
-6.037400 1.413800
-6.017300 1.411800
-5.997200 1.411000
-5.977000 1.411000
-5.956900 1.410900
-5.936800 1.410900
-5.916700 1.410800
-5.896500 1.410700
-5.876400 1.410700
-5.856300 1.410600
-5.836100 1.410500
-5.816000 1.410500
-5.795900 1.410400
-5.775800 1.410400
-5.755600 1.397200
-5.735500 1.370400
-5.715400 1.355400
-5.695300 1.342300
-5.675100 1.330700
-5.655000 1.316600
-5.634900 1.305800
-5.614800 1.298600
-5.594600 1.292700
-5.574500 1.287000
-5.554400 1.282900
-5.534200 1.282800
-5.514100 1.282800
-5.494000 1.282800
-5.473900 1.282800
-5.453700 1.282800
-5.433600 1.282800
-5.413500 1.282800
-5.393400 1.282800
-5.373200 1.282800
-5.353100 1.282800
-5.333000 1.282700
-5.312900 1.282700
-5.292700 1.282700
-5.272600 1.264500
-5.252500 1.243000
-5.232300 1.229500
-5.212200 1.217500
-5.192100 1.206300
-5.172000 1.192200
-5.151800 1.182000
-5.131700 1.175300
-5.111600 1.169000
-5.091500 1.163100
-5.071300 1.158700
-5.051200 1.158600
-5.031100 1.158600
-5.011000 1.158700
-4.990800 1.158700
-4.970700 1.158700
-4.950600 1.158700
-4.930400 1.158700
-4.910300 1.158700
-4.890200 1.158800
-4.870100 1.158800
-4.849900 1.158800
-4.829800 1.158800
-4.809700 1.158800
-4.789600 1.181800
-4.769400 1.441300
-4.749300 1.774100
-4.729200 5.677700
-4.709100 3.419600
-4.688900 3.302700
-4.668800 3.291700
-4.648700 3.715600
-4.628500 3.211700
-4.608400 2.658900
-4.588300 3.160900
-4.568200 3.125800
-4.548000 2.973300
-4.527900 2.779300
-4.507800 2.799400
-4.487700 2.753400
-4.467500 3.150100
-4.447400 3.739200
-4.427300 3.810600
-4.407200 3.628500
-4.387000 3.544800
-4.366900 3.541600
-4.346800 3.521300
-4.326600 3.496600
-4.306500 3.472600
-4.286400 3.482800
-4.266300 3.493700
-4.246100 3.370700
-4.226000 3.124400
-4.205900 2.829900
-4.185800 2.634200
-4.165600 2.553600
-4.145500 6.268900
-4.125400 4.839500
-4.105300 4.778500
-4.085100 5.273100
-4.065000 4.452400
-4.044900 3.752500
-4.024700 4.112400
-4.004600 3.824900
-3.984500 3.543300
-3.964400 3.010100
-3.944200 2.974500
-3.924100 2.944100
-3.904000 2.916000
-3.883900 2.892700
-3.863700 2.873900
-3.843600 2.857100
-3.823500 2.846600
-3.803400 2.843900
-3.783200 2.856300
-3.763100 2.879700
-3.743000 2.926100
-3.722800 2.968700
-3.702700 3.024000
-3.682600 3.081600
-3.662500 3.268200
-3.642300 3.463600
-3.622200 3.586600
-3.602100 3.730700
-3.582000 3.900800
-3.561800 4.123500
-3.541700 4.322000
-3.521600 3.508500
-3.501500 3.461500
-3.481300 1.138100
-3.461200 0.179200
-3.441100 0.000000
-3.420900 0.034900
-3.400800 0.173000
-3.380700 0.377900
-3.360600 0.511700
-3.340400 0.648400
-3.320300 0.805100
-3.300200 0.993100
-3.280100 1.168100
-3.259900 1.323200
-3.239800 1.359100
-3.219700 1.651900
-3.199600 1.844100
-3.179400 2.016600
-3.159300 2.170900
-3.139200 2.310000
-3.119000 2.436900
-3.098900 2.555300
-3.078800 2.668400
-3.058700 2.781400
-3.038500 2.892400
-3.018400 3.021100
-2.998300 3.376000
-2.978200 3.404300
-2.958000 3.345000
-2.937900 3.309500
-2.917800 3.319100
-2.897700 3.319400
-2.877500 3.193400
-2.857400 3.076000
-2.837300 2.908700
-2.817100 2.880800
-2.797000 2.523500
-2.776900 2.297000
-2.756800 2.161400
-2.736600 2.319700
-2.716500 2.698300
-2.696400 2.429900
-2.676300 2.277800
-2.656100 2.256700
-2.636000 2.486200
-2.615900 2.570100
-2.595800 2.653100
-2.575600 2.714600
-2.555500 2.862200
-2.535400 2.957800
-2.515200 2.946900
-2.495100 2.974600
-2.475000 3.098100
-2.454900 3.194600
-2.434700 3.224100
-2.414600 3.425000
-2.394500 3.625200
-2.374400 3.651400
-2.354200 3.595200
-2.334100 3.509200
-2.314000 3.521400
-2.293900 3.596300
-2.273700 3.679100
-2.253600 3.853500
-2.233500 4.037000
-2.213300 4.029800
-2.193200 4.055300
-2.173100 4.546000
-2.153000 3.454100
-2.132800 4.579300
-2.112700 4.490000
-2.092600 4.838400
-2.072500 4.403600
-2.052300 4.388100
-2.032200 4.322300
-2.012100 4.204700
-1.992000 4.047100
-1.971800 3.947900
-1.951700 3.750300
-1.931600 3.467400
-1.911400 2.903700
-1.891300 2.528900
-1.871200 2.317300
-1.851100 2.118200
-1.830900 1.950800
-1.810800 1.806200
-1.790700 1.745300
-1.770600 1.736800
-1.750400 1.675400
-1.730300 1.740200
-1.710200 1.864200
-1.690100 1.996500
-1.669900 2.164500
-1.649800 2.523300
-1.629700 2.916800
-1.609500 3.219100
-1.589400 3.397700
-1.569300 3.501900
-1.549200 3.589200
-1.529000 4.083200
-1.508900 5.362800
-1.488800 6.525700
-1.468700 7.353000
-1.448500 6.461100
-1.428400 5.695200
-1.408300 4.501900
-1.388200 3.919200
-1.368000 3.621600
-1.347900 3.426400
-1.327800 3.206800
-1.307600 2.977900
-1.287500 2.726800
-1.267400 2.443500
-1.247300 1.914000
-1.227100 1.603500
-1.207000 1.544500
-1.186900 1.544500
-1.166800 1.544500
-1.146600 1.544700
-1.126500 1.546700
-1.106400 1.548800
-1.086300 1.551000
-1.066100 1.553300
-1.046000 1.555900
-1.025900 1.558800
-1.005700 1.562000
-0.985600 1.566000
-0.965500 1.570600
-0.945400 1.577400
-0.925200 1.582700
-0.905100 1.584000
-0.885000 1.591100
-0.864900 1.606000
-0.844700 1.617000
-0.824600 1.627300
-0.804500 1.637600
-0.784400 1.648600
-0.764200 1.660700
-0.744100 1.672200
-0.724000 1.684200
-0.703800 1.697900
-0.683700 1.711900
-0.663600 1.721800
-0.643500 1.722000
-0.623300 1.722300
-0.603200 1.722500
-0.583100 1.722700
-0.563000 1.722900
-0.542800 1.700500
-0.522700 1.644700
-0.502600 1.587000
-0.482500 1.530400
-0.462300 1.468200
-0.442200 1.398800
-0.422100 1.324200
-0.401900 1.236300
-0.381800 1.130800
-0.361700 0.952200
-0.341600 0.794600
-0.321400 0.820500
-0.301300 0.865700
-0.281200 0.925800
-0.261100 0.993000
-0.240900 1.302300
-0.220800 1.621800
-0.200700 1.710200
-0.180600 1.780800
-0.160400 1.840500
-0.140300 1.891900
-0.120200 1.941000
-0.100000 1.986900
-0.079900 2.031200
-0.059800 2.053000
-0.039700 2.013600
-0.019500 1.985700
0.000600 1.975600
0.020700 1.969600
0.040800 1.968100
0.061000 1.977500
0.081100 1.999200
0.101200 2.045800
0.121300 2.093200
0.141500 2.111800
0.161600 2.134400
0.181700 2.159600
0.201900 2.194300
0.222000 2.217700
0.242100 2.242900
0.262200 2.338600
0.282400 2.508700
0.302500 2.668300
0.322600 2.831600
0.342700 3.014000
0.362900 3.168200
0.383000 3.206600
0.403100 3.399200
0.423300 3.457900
0.443400 3.383200
0.463500 3.258200
0.483600 3.043800
0.503800 2.613300
0.523900 2.281300
0.544000 2.149300
0.564100 2.039800
0.584300 1.947700
0.604400 1.810600
0.624500 1.715500
0.644600 1.659300
0.664800 1.588000
0.684900 1.492200
0.705000 1.400700
0.725200 1.320400
0.745300 1.243200
0.765400 1.173700
0.785500 1.118000
0.805700 1.041500
0.825800 0.932300
0.845900 0.827200
0.866000 0.732900
0.886200 0.640200
0.906300 0.536700
0.926400 0.470700
0.946500 0.462800
0.966700 0.462800
0.986800 0.462800
1.006900 0.462800
1.027100 0.462800
1.047200 0.462500
1.067300 0.450600
1.087400 0.443600
1.107600 0.436600
1.127700 0.428400
1.147800 0.426800
1.167900 0.426800
1.188100 0.426800
1.208200 0.426800
1.228300 0.426800
1.248400 0.426800
1.268600 0.426800
1.288700 0.426800
1.308800 0.426800
1.329000 0.426800
1.349100 0.426800
1.369200 0.426800
1.389300 0.426800
1.409500 0.426800
1.429600 0.426800
1.449700 0.426800
1.469800 0.426800
1.490000 0.426800
1.510100 0.426800
1.530200 0.426800
1.550300 0.426800
1.570500 0.426800
1.590600 0.426800
1.610700 0.426800
1.630900 0.426800
1.651000 0.426800
1.671100 0.426800
1.691200 0.426800
1.711400 0.426800
1.731500 0.426800
1.751600 0.426800
1.771700 0.426800
1.791900 0.426800
1.812000 0.426800
1.832100 0.426800
1.852200 0.426800
1.872400 0.426800
1.892500 0.426800
1.912600 0.426800
1.932800 0.426800
1.952900 0.426800
1.973000 0.426800
1.993100 0.426800
2.013300 0.426800
2.033400 0.426800
2.053500 0.426800
2.073600 0.426800
2.093800 0.426800
2.113900 0.426800
2.134000 0.426800
2.154100 0.426800
2.174300 0.426800
2.194400 0.426800
2.214500 0.426800
2.234700 0.426800
2.254800 0.426800
2.274900 0.426800
2.295000 0.426800
2.315200 0.426800
2.335300 0.426800
2.355400 0.426800
2.375500 0.426800
2.395700 0.426800
2.415800 0.426800
2.435900 0.426800
2.456000 0.426800
2.476200 0.426800
2.496300 0.426800
2.516400 0.444700
2.536600 0.499300
2.556700 0.517800
2.576800 0.517800
2.596900 0.517800
2.617100 0.517800
2.637200 0.517700
2.657300 0.517700
2.677400 0.517700
2.697600 0.517700
2.717700 0.517700
2.737800 0.517700
2.757900 0.522400
2.778100 0.564400
2.798200 0.648700
2.818300 0.762600
2.838500 0.895100
2.858600 1.023200
2.878700 1.136000
2.898800 1.216300
2.919000 1.272600
2.939100 1.333000
2.959200 1.414300
2.979300 1.507900
2.999500 1.609800
3.019600 1.725100
3.039700 1.853200
3.059800 1.964900
3.080000 2.082600
3.100100 2.231900
3.120200 2.453100
3.140400 2.870800
3.160500 3.424200
3.180600 3.944700
3.200700 4.404200
3.220900 4.324500
3.241000 4.606500
3.261100 5.111200
3.281200 5.793500
3.301400 9.438400
3.321500 11.134500
3.341600 10.937100
3.361700 9.952800
3.381900 7.341300
3.402000 5.776900
3.422100 4.918800
3.442300 4.095300
3.462400 3.524100
3.482500 3.257600
3.502600 3.121100
3.522800 2.994900
3.542900 2.938600
3.563000 3.242500
3.583100 3.698000
3.603300 3.978900
3.623400 4.156600
3.643500 3.779400
3.663600 3.577700
3.683800 3.499100
3.703900 3.340300
3.724000 3.202800
3.744200 3.193700
3.764300 3.344700
3.784400 3.315800
3.804500 3.330300
3.824700 3.455800
3.844800 2.636700
3.864900 1.749400
3.885000 1.708500
3.905200 1.671000
3.925300 1.633500
3.945400 1.596000
3.965500 1.556300
3.985700 1.515900
4.005800 1.480500
4.025900 1.437000
4.046100 1.402800
4.066200 1.368000
4.086300 1.332300
4.106400 1.312400
4.126600 1.292400
4.146700 1.272200
4.166800 1.251800
4.186900 1.232100
4.207100 1.213600
4.227200 1.195100
4.247300 1.176600
4.267400 1.158200
4.287600 1.144100
4.307700 1.171000
4.327800 1.223100
4.348000 1.282500
4.368100 1.408200
4.388200 1.445100
4.408300 1.484200
4.428500 1.526000
4.448600 1.445500
4.468700 1.365800
4.488800 1.286800
4.509000 0.803500
4.529100 0.315200
4.549200 0.342500
4.569300 0.363300
4.589500 0.380600
4.609600 0.395000
4.629700 0.412100
4.649900 0.437800
4.670000 0.469700
4.690100 0.502700
4.710200 0.532800
4.730400 0.557700
4.750500 0.579600
4.770600 0.601200
4.790700 0.623200
4.810900 0.647700
4.831000 0.675200
4.851100 0.705200
4.871200 0.737200
4.891400 0.773300
4.911500 0.812300
4.931600 0.854000
4.951800 0.898100
4.971900 0.992700
4.992000 1.092900
5.012100 1.190200
5.032300 1.264900
5.052400 1.277000
5.072500 1.308400
5.092600 1.387500
5.112800 1.459100
5.132900 1.527900
5.153000 1.598000
5.173100 1.703300
5.193300 2.060000
5.213400 2.221900
5.233500 2.255300
5.253700 2.159000
5.273800 2.031700
5.293900 2.034300
5.314000 2.207900
5.334200 2.624900
5.354300 3.061500
5.374400 3.253800
5.394500 2.735700
5.414700 2.672900
5.434800 2.672600
5.454900 2.655000
5.475000 2.635000
5.495200 2.624100
5.515300 2.606300
5.535400 2.586000
5.555600 2.584100
5.575700 2.593100
5.595800 2.612600
5.615900 2.646600
5.636100 2.699700
5.656200 2.772200
5.676300 2.868800
5.696400 2.991300
5.716600 3.350300
5.736700 3.727000
5.756800 3.717600
5.776900 3.633600
5.797100 3.646700
5.817200 3.696300
5.837300 3.838800
5.857500 4.009200
5.877600 4.125900
5.897700 4.216500
5.917800 4.210800
5.938000 4.123900
5.958100 3.853800
5.978200 3.603100
5.998300 3.476900
6.018500 3.644800
6.038600 3.269700
6.058700 3.180300
6.078800 3.142500
6.099000 2.907300
6.119100 2.781200
6.139200 2.690700
6.159400 2.750700
6.179500 2.657900
6.199600 2.577500
6.219700 2.491300
6.239900 2.521000
6.260000 2.664200
6.280100 2.933300
6.300200 2.981700
6.320400 3.060900
6.340500 3.369200
6.360600 3.730100
6.380700 4.296100
6.400900 4.928600
6.421000 5.806000
6.441100 5.452600
6.461300 5.398200
6.481400 5.692800
6.501500 6.027100
6.521600 6.367500
6.541800 6.486500
6.561900 6.414600
6.582000 6.281800
6.602100 6.050700
6.622300 5.921300
6.642400 5.736900
6.662500 5.621400
6.682600 5.536800
6.702800 5.346200
6.722900 5.239800
6.743000 5.133000
6.763200 4.915000
6.783300 4.768300
6.803400 4.550600
6.823500 4.339700
6.843700 4.185600
6.863800 4.051300
6.883900 3.943600
6.904000 3.847500
6.924200 3.783100
6.944300 3.746500
6.964400 3.592500
6.984500 3.382200
7.004700 3.214700
7.024800 3.094300
7.044900 2.987700
7.065100 2.830700
7.085200 2.674500
7.105300 2.459300
7.125400 2.215900
7.145600 1.957200
7.165700 1.772700
7.185800 1.705400
7.205900 1.720400
7.226100 1.837100
7.246200 1.845800
7.266300 1.807700
7.286400 1.713600
7.306600 1.442700
7.326700 1.453700
7.346800 1.463100
7.367000 1.474400
7.387100 1.519800
7.407200 1.575900
7.427300 1.660700
7.447500 1.724400
7.467600 1.781500
7.487700 1.832200
7.507800 1.887000
7.528000 1.963900
7.548100 2.058000
7.568200 2.187100
7.588300 2.312000
7.608500 2.429500
7.628600 2.507100
7.648700 2.566200
7.668900 2.577900
7.689000 2.604700
7.709100 2.694300
7.729200 3.134100
7.749400 3.182600
7.769500 2.998900
7.789600 3.082100
7.809700 3.178600
7.829900 3.310200
7.850000 3.438800
7.870100 3.546000
7.890200 3.677900
7.910400 3.861200
7.930500 4.062200
7.950600 4.381800
7.970800 4.415700
7.990900 4.448800
8.011000 4.486500
8.031100 4.491100
8.051300 4.731400
8.071400 4.493900
8.091500 4.672200
8.111600 4.873300
8.131800 4.682600
8.151900 4.607600
8.172000 4.619100
8.192100 4.662600
8.212300 4.698700
8.232400 4.819600
8.252500 5.033000
8.272700 5.527500
8.292800 4.984200
8.312900 5.483200
8.333000 5.470800
8.353200 5.570600
8.373300 5.098500
8.393400 4.807800
8.413500 4.773000
8.433700 4.760000
8.453800 4.754500
8.473900 4.757200
8.494000 4.812500
8.514200 4.974300
8.534300 5.156700
8.554400 5.402100
8.574600 5.667700
8.594700 5.811700
8.614800 5.749200
8.634900 5.446100
8.655100 5.178000
8.675200 5.095100
8.695300 5.006300
8.715400 4.932900
8.735600 4.873400
8.755700 4.811400
8.775800 4.759400
8.795900 4.739400
8.816100 4.746500
8.836200 4.731000
8.856300 4.612900
8.876500 4.524000
8.896600 4.474400
8.916700 4.401900
8.936800 4.317300
8.957000 4.301100
8.977100 4.360500
8.997200 4.400100
9.017300 4.473900
9.037500 4.553400
9.057600 4.631000
9.077700 4.670600
9.097800 4.719300
9.118000 4.832800
9.138100 4.882200
9.158200 4.835800
9.178400 4.848900
9.198500 4.904700
9.218600 5.146900
9.238700 4.911600
9.258900 4.683000
9.279000 4.508900
9.299100 4.382300
9.319200 4.312000
9.339400 4.392700
9.359500 4.540700
9.379600 4.606700
9.399700 4.780800
9.419900 4.876400
9.440000 4.933300
9.460100 4.987600
9.480300 4.836200
9.500400 4.636800
9.520500 4.548400
9.540600 4.617000
9.560800 4.588400
9.580900 4.505700
9.601000 4.456100
9.621100 4.403900
9.641300 4.353900
9.661400 4.283100
9.681500 4.202800
9.701600 4.136200
9.721800 4.189300
9.741900 4.278500
9.762000 4.339700
9.782200 4.340700
9.802300 4.169800
9.822400 3.880600
9.842500 3.680500
9.862700 3.721700
9.882800 3.470400
9.902900 3.384400
9.923000 3.294800
9.943200 3.156600
9.963300 3.120700
9.983400 3.147600
10.003500 3.184900
10.023700 3.247200
10.043800 3.337100
10.063900 3.414900
10.084100 3.498200
10.104200 3.577200
10.124300 3.659300
10.144400 3.743700
10.164600 3.800800
10.184700 3.888300
10.204800 3.965100
10.224900 4.045000
10.245100 4.152200
10.265200 4.310500
10.285300 4.591300
10.305400 4.908200
10.325600 5.086000
10.345700 5.248700
10.365800 5.411600
10.386000 5.554300
10.406100 5.593000
10.426200 5.527400
10.446300 5.434800
10.466500 5.356200
10.486600 5.264200
10.506700 5.131700
10.526800 5.021600
10.547000 5.031900
10.567100 5.039000
10.587200 4.788900
10.607300 4.656100
10.627500 4.602100
10.647600 4.506900
10.667700 4.497800
10.687900 4.527300
10.708000 4.552300
10.728100 4.563100
10.748200 4.545000
10.768400 4.435700
10.788500 4.416200
10.808600 4.412300
10.828700 4.633200
10.848900 5.224600
10.869000 5.371200
10.889100 5.480200
10.909200 5.604100
10.929400 5.637100
10.949500 5.544200
10.969600 5.715000
10.989800 5.613900
11.009900 5.490500
11.030000 5.554300
11.050100 5.301300
11.070300 5.342100
11.090400 5.335100
11.110500 5.321700
11.130600 5.297100
11.150800 5.354600
11.170900 5.285500
11.191000 5.061900
11.211100 5.001300
11.231300 4.969200
11.251400 4.926400
11.271500 5.000900
11.291700 4.981200
11.311800 4.864400
11.331900 4.633300
11.352000 4.645200
11.372200 4.696000
11.392300 4.270500
11.412400 4.057300
11.432500 4.048500
11.452700 4.098800
11.472800 4.140400
11.492900 4.224900
11.513100 4.297000
11.533200 4.306600
11.553300 4.190600
11.573400 4.101700
11.593600 4.055400
11.613700 4.016300
11.633800 3.839300
11.653900 3.624200
11.674100 3.478900
11.694200 3.356000
11.714300 3.309300
11.734400 3.239700
11.754600 3.137500
11.774700 3.059900
11.794800 2.999600
11.815000 2.929500
11.835100 2.837400
11.855200 3.035900
11.875300 3.529600
11.895500 3.776900
11.915600 3.739700
11.935700 3.678400
11.955800 3.618100
11.976000 3.608300
11.996100 3.629300
12.016200 3.495600
12.036300 3.416100
12.056500 3.572300
12.076600 3.650700
12.096700 3.807100
12.116900 3.931800
12.137000 4.025100
12.157100 4.175100
12.177200 4.265300
12.197400 4.087800
12.217500 3.983000
12.237600 3.955900
12.257700 3.934000
12.277900 3.916500
12.298000 3.819500
12.318100 3.649000
12.338200 3.545600
12.358400 3.433500
12.378500 3.519600
12.398600 3.625400
12.418800 3.667600
12.438900 3.778200
12.459000 3.874800
12.479100 3.975500
12.499300 4.105700
12.519400 4.204300
12.539500 4.321400
12.559600 4.425400
12.579800 4.614300
12.599900 4.810000
12.620000 4.923300
12.640100 5.027200
12.660300 5.301500
12.680400 5.214400
12.700500 4.825200
12.720700 4.391500
12.740800 4.192400
12.760900 4.150600
12.781000 4.169100
12.801200 4.114600
12.821300 3.997100
12.841400 4.012800
12.861500 4.080800
12.881700 4.050200
12.901800 3.977700
12.921900 3.947700
12.942000 4.013200
12.962200 3.930100
12.982300 3.901500
13.002400 3.798700
13.022600 3.713600
13.042700 3.681400
13.062800 3.598400
13.082900 3.636400
13.103100 3.798600
13.123200 4.146200
13.143300 4.548300
13.163400 4.759600
13.183600 4.751800
13.203700 4.639200
13.223800 4.510400
13.243900 4.461300
13.264100 4.485300
13.284200 4.542300
13.304300 4.604400
13.324500 4.628700
13.344600 4.685700
13.364700 4.716600
13.384800 4.676000
13.405000 4.629500
13.425100 4.545500
13.445200 4.545600
13.465300 4.589500
13.485500 4.638700
13.505600 4.694400
13.525700 4.845400
13.545800 4.936600
13.566000 4.605600
13.586100 4.503500
13.606200 4.294600
13.626400 4.116300
13.646500 3.995600
13.666600 3.948800
13.686700 3.951500
13.706900 3.976000
13.727000 4.032900
13.747100 4.068400
13.767200 4.098500
13.787400 4.114900
13.807500 4.162500
13.827600 4.234800
13.847700 4.361100
13.867900 4.496800
13.888000 4.719400
13.908100 4.675400
13.928300 4.622900
13.948400 4.618600
13.968500 4.636400
13.988600 4.623000
14.008800 4.541600
14.028900 4.536400
14.049000 4.445500
14.069100 4.499400
14.089300 4.594600
14.109400 4.709700
14.129500 4.852700
14.149600 5.067700
14.169800 5.176400
14.189900 5.214800
14.210000 5.205500
14.230200 5.303100
14.250300 5.169000
14.270400 5.052800
14.290500 4.976300
14.310700 4.915700
14.330800 4.804200
14.350900 4.625600
14.371000 4.558700
14.391200 4.611900
14.411300 4.677800
14.431400 4.751700
14.451500 4.681300
14.471700 4.622700
14.491800 4.713300
14.511900 4.834200
14.532100 4.911600
14.552200 4.926700
14.572300 4.920900
14.592400 4.896600
14.612600 4.891900
14.632700 4.954300
14.652800 5.013800
14.672900 5.012400
14.693100 5.086900
14.713200 5.177800
14.733300 5.237000
14.753400 5.461600
14.773600 5.723000
14.793700 5.904700
14.813800 6.046100
14.834000 6.110200
14.854100 6.231700
14.874200 6.179400
14.894300 5.980500
14.914500 5.808500
14.934600 5.653400
14.954700 5.475400
14.974800 5.256900
14.995000 5.086300
15.015100 5.073700
15.035200 5.300900
15.055300 5.447500
15.075500 5.422700
15.095600 5.431300
15.115700 5.362400
15.135900 5.480200
15.156000 5.574400
15.176100 5.486100
15.196200 5.513300
15.216400 5.587600
15.236500 5.697200
15.256600 5.826500
15.276700 5.643300
15.296900 5.573000
15.317000 5.661000
15.337100 5.687400
15.357200 5.704200
15.377400 5.666000
15.397500 5.504800
15.417600 5.242500
15.437800 5.021200
15.457900 4.885200
15.478000 4.737600
15.498100 4.630400
15.518300 4.474200
15.538400 4.312300
15.558500 4.235200
15.578600 4.290600
15.598800 4.386100
15.618900 4.520700
15.639000 4.667700
15.659100 4.857800
15.679300 4.876600
15.699400 4.998600
15.719500 4.998500
15.739700 4.948700
15.759800 4.953100
15.779900 5.150200
15.800000 5.022500
15.820200 4.598600
15.840300 4.540100
15.860400 4.554800
15.880500 4.590500
15.900700 4.657000
15.920800 4.708500
15.940900 4.722500
15.961000 4.757200
15.981200 4.828100
16.001300 4.761900
16.021400 4.708000
16.041600 4.669300
16.061700 4.623800
16.081800 4.550200
16.101900 4.457200
16.122100 4.385900
16.142200 4.357800
16.162300 4.384300
16.182400 4.414600
16.202600 4.550800
16.222700 4.660700
16.242800 4.748000
16.262900 4.848900
16.283100 4.842100
16.303200 4.769100
16.323300 4.822000
16.343500 4.890300
16.363600 4.939900
16.383700 4.906200
16.403800 4.904600
16.424000 4.898800
16.444100 4.912000
16.464200 4.954100
16.484300 5.030200
16.504500 5.108300
16.524600 5.215400
16.544700 5.379100
16.564800 5.655300
16.585000 6.148600
16.605100 6.396800
16.625200 6.540900
16.645400 6.557400
16.665500 6.581800
16.685600 6.582900
16.705700 6.465900
16.725900 6.371400
16.746000 6.252300
16.766100 6.212700
16.786200 6.140400
16.806400 6.059100
16.826500 5.830900
16.846600 5.643500
16.866700 5.463400
16.886900 5.494300
16.907000 5.037600
16.927100 4.707800
16.947300 4.658200
16.967400 4.655200
16.987500 4.579600
17.007600 4.588100
17.027800 4.628300
17.047900 4.730100
17.068000 5.349400
17.088100 5.240700
17.108300 5.372200
17.128400 5.570300
17.148500 5.705300
17.168600 5.764200
17.188800 5.831700
17.208900 5.943300
17.229000 6.037300
17.249200 6.181300
17.269300 6.349900
17.289400 6.502000
17.309500 6.465000
17.329700 6.562400
17.349800 6.561300
17.369900 6.633000
17.390000 6.628800
17.410200 6.303400
17.430300 5.713200
17.450400 5.540300
17.470500 5.366400
17.490700 5.258900
17.510800 5.241600
17.530900 5.293400
17.551100 5.806900
17.571200 5.852100
17.591300 5.455200
17.611400 5.094100
17.631600 4.867000
17.651700 4.618300
17.671800 4.470600
17.691900 4.346700
17.712100 4.209700
17.732200 4.109400
17.752300 4.049000
17.772400 3.828900
17.792600 3.878900
17.812700 3.943800
17.832800 4.022500
17.853000 4.079900
17.873100 4.112700
17.893200 4.198500
17.913300 4.312800
17.933500 4.357000
17.953600 4.422000
17.973700 4.471000
17.993800 4.511100
18.014000 4.549100
18.034100 4.606100
18.054200 4.693400
18.074300 4.780300
18.094500 4.864100
18.114600 4.967200
18.134700 4.957800
18.154900 5.216300
18.175000 5.388100
18.195100 5.380300
18.215200 5.297800
18.235400 5.314700
18.255500 5.344700
18.275600 5.416100
18.295700 5.445500
18.315900 5.494700
18.336000 5.547200
18.356100 5.567000
18.376200 5.598800
18.396400 5.547100
18.416500 5.524500
18.436600 5.492700
18.456800 5.436600
18.476900 5.344100
18.497000 5.187200
18.517100 5.167100
18.537300 5.346200
18.557400 5.481000
18.577500 5.636100
18.597600 5.824400
18.617800 5.917400
18.637900 5.857500
18.658000 5.767400
18.678100 5.563400
18.698300 5.491500
18.718400 5.603100
18.738500 5.766600
18.758700 5.811000
18.778800 6.041100
18.798900 6.153300
18.819000 6.136900
18.839200 6.051900
18.859300 5.978100
18.879400 5.855900
18.899500 5.703000
18.919700 5.741000
18.939800 5.669000
18.959900 5.509600
18.980000 5.263400
19.000200 5.062500
19.020300 4.942100
19.040400 4.820700
19.060600 4.438100
19.080700 3.922200
19.100800 3.612100
19.120900 3.273900
19.141100 2.935700
19.161200 2.684000
19.181300 2.482100
19.201400 2.322700
19.221600 2.223200
19.241700 2.130500
19.261800 2.071300
19.281900 2.059600
19.302100 2.056000
19.322200 2.079200
19.342300 2.087700
19.362500 2.113100
19.382600 2.125800
19.402700 2.261500
19.422800 2.081200
19.443000 1.977600
19.463100 1.749600
19.483200 1.582300
19.503300 1.414600
19.523500 1.102700
19.543600 0.912200
19.563700 0.782700
19.583800 0.698000
19.604000 0.617500
19.624100 0.544700
19.644200 0.478000
19.664400 0.410500
19.684500 0.344300
19.704600 0.283200
19.724700 0.217200
19.744900 0.169600
19.765000 0.132100
19.785100 0.103300
19.805200 0.078200
19.825400 0.056200
19.845500 0.041600
19.865600 0.031300
19.885700 0.022700
19.905900 0.015700
19.926000 0.010300
19.946100 0.006400
19.966300 0.004200
19.986400 0.003300
20.006500 0.002700
20.026600 0.002200
20.046800 0.001800
20.066900 0.001400
20.087000 0.001000
20.107100 0.000700
20.127300 0.000500
20.147400 0.000300
20.167500 0.000100
20.187600 0.000000
20.207800 0.000000
20.227900 0.000000
20.248000 0.000000
20.268200 0.000000
20.288300 0.000000
20.308400 0.000000
20.328500 0.000000
20.348700 0.000000
20.368800 0.000000
20.388900 0.000000
20.409000 0.000000
20.429200 0.000000
20.449300 0.000000
20.469400 0.000000
20.489500 0.000000
20.509700 0.000000
20.529800 0.000000
20.549900 0.000000
20.570100 0.000000
20.590200 0.000000
20.610300 0.000000
20.630400 0.000000
20.650600 0.000000
20.670700 0.000000
20.690800 0.000000
20.710900 0.000000
20.731100 0.000000
20.751200 0.000000
20.771300 0.000000
20.791400 0.000000
20.811600 0.000000
20.831700 0.000000
20.851800 0.000000
20.872000 0.000000
20.892100 0.000000
20.912200 0.000000
20.932300 0.000000
20.952500 0.000000
20.972600 0.000000
20.992700 0.000000
21.012800 0.000000
21.033000 0.000000
21.053100 0.000000
21.073200 0.000000
21.093300 0.000000
21.113500 0.000000
21.133600 0.000000
21.153700 0.000000
21.173900 0.000000
21.194000 0.000000
21.214100 0.000000
21.234200 0.000000
21.254400 0.000000
21.274500 0.000000
21.294600 0.000000
21.314700 0.000000
21.334900 0.000000
21.355000 0.000000
21.375100 0.000000
21.395200 0.000000
21.415400 0.000000
21.435500 0.000000
21.455600 0.000000
21.475800 0.000000
21.495900 0.000000
21.516000 0.000000
21.536100 0.000000
21.556300 0.000000
21.576400 0.000000
21.596500 0.000000
21.616600 0.000000
21.636800 0.000000
21.656900 0.000000
21.677000 0.000000
21.697100 0.000000
21.717300 0.000000
21.737400 0.000000
21.757500 0.000000
21.777700 0.000000
21.797800 0.000000
21.817900 0.000000
21.838000 0.000000
21.858200 0.000000
21.878300 0.000000
21.898400 0.000000
21.918500 0.000000
21.938700 0.000000
21.958800 0.000000
21.978900 0.000000
21.999000 0.000000
22.019200 0.000000
22.039300 0.000000
e
