set title 'mp-1183650 - Density of States'
set xlabel 'Energy (eV)'
set ylabel 'DOS (states/eV)'
set grid
set xrange [-10:10]
set yrange [0:82.500]
set xzeroaxis lt -1
set terminal png size 800,600
set output 'mp-1183650_dos_gnuplot.png'
plot '-' using 1:2 with lines title 'DOS'
-8.456500 0.000000
-8.439800 0.000000
-8.423200 0.000000
-8.406600 0.000000
-8.390000 0.000000
-8.373300 0.000000
-8.356700 0.000000
-8.340100 0.000000
-8.323500 0.000000
-8.306800 0.000000
-8.290200 0.000000
-8.273600 0.000000
-8.257000 0.000000
-8.240300 0.000000
-8.223700 0.000000
-8.207100 0.000000
-8.190400 0.000000
-8.173800 0.000000
-8.157200 0.000000
-8.140600 0.000000
-8.123900 0.000000
-8.107300 0.000000
-8.090700 0.000000
-8.074100 0.000000
-8.057400 0.000000
-8.040800 0.000000
-8.024200 0.000000
-8.007600 0.000000
-7.990900 0.000000
-7.974300 0.000000
-7.957700 0.000000
-7.941100 0.000000
-7.924400 0.000000
-7.907800 0.000000
-7.891200 0.000000
-7.874600 0.000000
-7.857900 0.000000
-7.841300 0.000000
-7.824700 0.000000
-7.808100 0.000000
-7.791400 0.000000
-7.774800 0.000000
-7.758200 0.000000
-7.741600 0.000000
-7.724900 0.000000
-7.708300 0.000000
-7.691700 0.000000
-7.675000 0.000000
-7.658400 0.000000
-7.641800 0.000000
-7.625200 0.000000
-7.608500 0.000000
-7.591900 0.000000
-7.575300 0.000000
-7.558700 0.000000
-7.542000 0.000000
-7.525400 0.000000
-7.508800 0.000000
-7.492200 0.000000
-7.475500 0.000000
-7.458900 0.000000
-7.442300 0.000000
-7.425700 0.000000
-7.409000 0.000000
-7.392400 0.000000
-7.375800 0.000000
-7.359200 0.000000
-7.342500 0.000000
-7.325900 0.000000
-7.309300 0.000000
-7.292700 0.000000
-7.276000 0.000000
-7.259400 0.000000
-7.242800 0.000000
-7.226200 0.000000
-7.209500 0.000000
-7.192900 0.000000
-7.176300 0.000000
-7.159700 0.000000
-7.143000 0.000000
-7.126400 0.000000
-7.109800 0.000000
-7.093100 0.000000
-7.076500 0.000300
-7.059900 0.001800
-7.043300 0.009600
-7.026600 0.043100
-7.010000 0.162900
-6.993400 0.522100
-6.976800 1.434200
-6.960100 3.413700
-6.943500 7.120000
-6.926900 13.167600
-6.910300 21.876700
-6.893600 33.093300
-6.877000 46.062900
-6.860400 59.200100
-6.843800 69.894400
-6.827100 75.000300
-6.810500 72.376100
-6.793900 62.523000
-6.777300 48.615300
-6.760600 34.562000
-6.744000 22.881600
-6.727400 14.203600
-6.710800 8.154400
-6.694100 4.210200
-6.677500 1.898600
-6.660900 0.731000
-6.644300 0.236600
-6.627600 0.063700
-6.611000 0.014200
-6.594400 0.002600
-6.577700 0.000400
-6.561100 0.000000
-6.544500 0.000000
-6.527900 0.000000
-6.511200 0.000000
-6.494600 0.000000
-6.478000 0.000000
-6.461400 0.000000
-6.444700 0.000000
-6.428100 0.000000
-6.411500 0.000000
-6.394900 0.000000
-6.378200 0.000000
-6.361600 0.000000
-6.345000 0.000000
-6.328400 0.000000
-6.311700 0.000000
-6.295100 0.000000
-6.278500 0.000000
-6.261900 0.000000
-6.245200 0.000100
-6.228600 0.000500
-6.212000 0.001800
-6.195400 0.005200
-6.178700 0.012400
-6.162100 0.024400
-6.145500 0.039700
-6.128900 0.056000
-6.112200 0.072200
-6.095600 0.090800
-6.079000 0.115900
-6.062300 0.151100
-6.045700 0.200000
-6.029100 0.263500
-6.012500 0.330200
-5.995800 0.374600
-5.979200 0.371200
-5.962600 0.316000
-5.946000 0.232800
-5.929300 0.160600
-5.912700 0.133900
-5.896100 0.168700
-5.879500 0.258600
-5.862800 0.376500
-5.846200 0.484700
-5.829600 0.551900
-5.813000 0.570000
-5.796300 0.557000
-5.779700 0.546900
-5.763100 0.568900
-5.746500 0.627700
-5.729800 0.698500
-5.713200 0.751200
-5.696600 0.789100
-5.680000 0.865400
-5.663300 1.059800
-5.646700 1.446900
-5.630100 2.097100
-5.613500 3.098900
-5.596800 4.534600
-5.580200 6.387600
-5.563600 8.465100
-5.547000 10.450000
-5.530300 12.069500
-5.513700 13.228800
-5.497100 14.012000
-5.480400 14.610000
-5.463800 15.254800
-5.447200 16.135800
-5.430600 17.284500
-5.413900 18.549000
-5.397300 19.746000
-5.380700 20.840800
-5.364100 21.910900
-5.347400 22.931600
-5.330800 23.684900
-5.314200 23.945700
-5.297600 23.741800
-5.280900 23.394700
-5.264300 23.305100
-5.247700 23.692800
-5.231100 24.526200
-5.214400 25.679400
-5.197800 27.105900
-5.181200 28.786100
-5.164600 30.500200
-5.147900 31.743600
-5.131300 31.969900
-5.114700 30.973800
-5.098100 29.068400
-5.081400 26.901800
-5.064800 25.081900
-5.048200 23.942000
-5.031600 23.564800
-5.014900 23.851600
-4.998300 24.494000
-4.981700 25.022100
-4.965000 25.047700
-4.948400 24.485300
-4.931800 23.533800
-4.915200 22.497500
-4.898500 21.642000
-4.881900 21.148600
-4.865300 21.144200
-4.848700 21.777200
-4.832000 23.251200
-4.815400 25.690500
-4.798800 28.881200
-4.782200 32.186600
-4.765500 34.841500
-4.748900 36.387100
-4.732300 36.819400
-4.715700 36.389400
-4.699000 35.379100
-4.682400 34.033700
-4.665800 32.522500
-4.649200 30.864800
-4.632500 28.951000
-4.615900 26.726000
-4.599300 24.393000
-4.582700 22.410700
-4.566000 21.221100
-4.549400 20.947800
-4.532800 21.370700
-4.516200 22.173300
-4.499500 23.160500
-4.482900 24.225800
-4.466300 25.139500
-4.449700 25.428400
-4.433000 24.563600
-4.416400 22.359200
-4.399800 19.197900
-4.383100 15.823000
-4.366500 12.881500
-4.349900 10.623700
-4.333300 8.949700
-4.316600 7.651500
-4.300000 6.604800
-4.283400 5.789300
-4.266800 5.183500
-4.250100 4.681300
-4.233500 4.138700
-4.216900 3.516100
-4.200300 2.943600
-4.183600 2.606600
-4.167000 2.558400
-4.150400 2.668400
-4.133800 2.751900
-4.117100 2.712900
-4.100500 2.553000
-4.083900 2.300600
-4.067300 1.975700
-4.050600 1.601400
-4.034000 1.216800
-4.017400 0.875800
-4.000800 0.630700
-3.984100 0.503300
-3.967500 0.468800
-3.950900 0.472900
-3.934300 0.467800
-3.917600 0.441500
-3.901000 0.425900
-3.884400 0.475700
-3.867700 0.628500
-3.851100 0.871100
-3.834500 1.135400
-3.817900 1.325800
-3.801200 1.367300
-3.784600 1.252400
-3.768000 1.054700
-3.751400 0.890100
-3.734700 0.845400
-3.718100 0.930000
-3.701500 1.089600
-3.684900 1.256400
-3.668200 1.381100
-3.651600 1.433500
-3.635000 1.398100
-3.618400 1.283500
-3.601700 1.128800
-3.585100 0.985300
-3.568500 0.886900
-3.551900 0.833900
-3.535200 0.800200
-3.518600 0.755300
-3.502000 0.692700
-3.485400 0.646500
-3.468700 0.677500
-3.452100 0.827000
-3.435500 1.067200
-3.418900 1.298000
-3.402200 1.401300
-3.385600 1.313600
-3.369000 1.061000
-3.352400 0.738700
-3.335700 0.459300
-3.319100 0.307900
-3.302500 0.325700
-3.285800 0.510000
-3.269200 0.808700
-3.252600 1.119000
-3.236000 1.317200
-3.219300 1.319300
-3.202700 1.132000
-3.186100 0.849000
-3.169500 0.591600
-3.152800 0.437600
-3.136200 0.393400
-3.119600 0.420700
-3.103000 0.487300
-3.086300 0.594200
-3.069700 0.761500
-3.053100 0.986400
-3.036500 1.214000
-3.019800 1.360800
-3.003200 1.387700
-2.986600 1.351600
-2.970000 1.367600
-2.953300 1.502400
-2.936700 1.709700
-2.920100 1.874600
-2.903500 1.913100
-2.886800 1.822100
-2.870200 1.652800
-2.853600 1.464300
-2.837000 1.301700
-2.820300 1.187900
-2.803700 1.115200
-2.787100 1.048000
-2.770400 0.950300
-2.753800 0.818900
-2.737200 0.688400
-2.720600 0.600200
-2.703900 0.569600
-2.687300 0.587800
-2.670700 0.644600
-2.654100 0.729500
-2.637400 0.807800
-2.620800 0.824500
-2.604200 0.753600
-2.587600 0.628900
-2.570900 0.510100
-2.554300 0.430800
-2.537700 0.391200
-2.521100 0.392900
-2.504400 0.463200
-2.487800 0.635700
-2.471200 0.908600
-2.454600 1.233900
-2.437900 1.551700
-2.421300 1.819600
-2.404700 2.001400
-2.388100 2.054200
-2.371400 1.958900
-2.354800 1.752800
-2.338200 1.518000
-2.321600 1.343400
-2.304900 1.286200
-2.288300 1.333700
-2.271700 1.396500
-2.255100 1.379300
-2.238400 1.281200
-2.221800 1.198900
-2.205200 1.211900
-2.188500 1.282400
-2.171900 1.292100
-2.155300 1.168100
-2.138700 0.950500
-2.122000 0.737700
-2.105400 0.589800
-2.088800 0.499700
-2.072200 0.443600
-2.055500 0.437600
-2.038900 0.527100
-2.022300 0.722600
-2.005700 0.957400
-1.989000 1.125400
-1.972400 1.163700
-1.955800 1.093300
-1.939200 0.981000
-1.922500 0.880500
-1.905900 0.813200
-1.889300 0.783700
-1.872700 0.801500
-1.856000 0.895100
-1.839400 1.094800
-1.822800 1.385300
-1.806200 1.675900
-1.789500 1.840700
-1.772900 1.807500
-1.756300 1.613300
-1.739700 1.368600
-1.723000 1.174100
-1.706400 1.080300
-1.689800 1.104800
-1.673100 1.248500
-1.656500 1.484900
-1.639900 1.756400
-1.623300 1.992500
-1.606600 2.127700
-1.590000 2.116900
-1.573400 1.958900
-1.556800 1.706600
-1.540100 1.441800
-1.523500 1.233800
-1.506900 1.112600
-1.490300 1.075700
-1.473600 1.113300
-1.457000 1.210900
-1.440400 1.324400
-1.423800 1.385300
-1.407100 1.361500
-1.390500 1.295900
-1.373900 1.257800
-1.357300 1.265600
-1.340600 1.271800
-1.324000 1.219300
-1.307400 1.101500
-1.290800 0.970900
-1.274100 0.889100
-1.257500 0.867400
-1.240900 0.862100
-1.224300 0.835700
-1.207600 0.813600
-1.191000 0.867400
-1.174400 1.049100
-1.157700 1.352100
-1.141100 1.719800
-1.124500 2.062100
-1.107900 2.271400
-1.091200 2.267600
-1.074600 2.055700
-1.058000 1.733200
-1.041400 1.428300
-1.024700 1.229100
-1.008100 1.159900
-0.991500 1.198000
-0.974900 1.294400
-0.958200 1.388600
-0.941600 1.430600
-0.925000 1.402500
-0.908400 1.316400
-0.891700 1.195600
-0.875100 1.067800
-0.858500 0.974800
-0.841900 0.965900
-0.825200 1.065500
-0.808600 1.247000
-0.792000 1.439500
-0.775400 1.559700
-0.758700 1.548000
-0.742100 1.394400
-0.725500 1.152000
-0.708900 0.925500
-0.692200 0.828500
-0.675600 0.925700
-0.659000 1.206500
-0.642400 1.605700
-0.625700 2.042600
-0.609100 2.446200
-0.592500 2.754100
-0.575800 2.898100
-0.559200 2.810400
-0.542600 2.478300
-0.526000 2.002100
-0.509300 1.567100
-0.492700 1.323600
-0.476100 1.293900
-0.459500 1.400800
-0.442800 1.562900
-0.426200 1.744100
-0.409600 1.922600
-0.393000 2.050300
-0.376300 2.070600
-0.359700 1.978800
-0.343100 1.840700
-0.326500 1.736300
-0.309800 1.697800
-0.293200 1.709500
-0.276600 1.741500
-0.260000 1.759500
-0.243300 1.722700
-0.226700 1.603500
-0.210100 1.414400
-0.193500 1.204400
-0.176800 1.020300
-0.160200 0.878100
-0.143600 0.776300
-0.127000 0.729100
-0.110300 0.772500
-0.093700 0.932100
-0.077100 1.185000
-0.060400 1.457000
-0.043800 1.669400
-0.027200 1.795700
-0.010600 1.870800
0.006100 1.933800
0.022700 1.968600
0.039300 1.916300
0.055900 1.754300
0.072600 1.549100
0.089200 1.408800
0.105800 1.373700
0.122400 1.372000
0.139100 1.298800
0.155700 1.129200
0.172300 0.938400
0.188900 0.821200
0.205600 0.817100
0.222200 0.916700
0.238800 1.106600
0.255400 1.375500
0.272100 1.673100
0.288700 1.888700
0.305300 1.904800
0.321900 1.689100
0.338600 1.330200
0.355200 0.978900
0.371800 0.756000
0.388400 0.706100
0.405100 0.812600
0.421700 1.033900
0.438300 1.328000
0.454900 1.656500
0.471600 1.985900
0.488200 2.289400
0.504800 2.533700
0.521500 2.650300
0.538100 2.551500
0.554700 2.212500
0.571300 1.731400
0.588000 1.282600
0.604600 1.007900
0.621200 0.949300
0.637800 1.056200
0.654500 1.239200
0.671100 1.432100
0.687700 1.618800
0.704300 1.798700
0.721000 1.938800
0.737600 1.990300
0.754200 1.949700
0.770800 1.867700
0.787500 1.785600
0.804100 1.687700
0.820700 1.533000
0.837300 1.318000
0.854000 1.098400
0.870600 0.957000
0.887200 0.950100
0.903800 1.068400
0.920500 1.244400
0.937100 1.403300
0.953700 1.505200
0.970300 1.540500
0.987000 1.511100
1.003600 1.436800
1.020200 1.359400
1.036900 1.320100
1.053500 1.340100
1.070100 1.421500
1.086700 1.552800
1.103400 1.719700
1.120000 1.928900
1.136600 2.207900
1.153200 2.549700
1.169900 2.867700
1.186500 3.038400
1.203100 2.993200
1.219700 2.747900
1.236400 2.365500
1.253000 1.921900
1.269600 1.496400
1.286200 1.151900
1.302900 0.908400
1.319500 0.747400
1.336100 0.645900
1.352700 0.605200
1.369400 0.644400
1.386000 0.764800
1.402600 0.922200
1.419200 1.048300
1.435900 1.105800
1.452500 1.112900
1.469100 1.112500
1.485700 1.135100
1.502400 1.194300
1.519000 1.289400
1.535600 1.386600
1.552200 1.412300
1.568900 1.302400
1.585500 1.069300
1.602100 0.805600
1.618800 0.609900
1.635400 0.520200
1.652000 0.514200
1.668600 0.550600
1.685300 0.597300
1.701900 0.639700
1.718500 0.675400
1.735100 0.698600
1.751800 0.689600
1.768400 0.631800
1.785000 0.545400
1.801600 0.491000
1.818300 0.525700
1.834900 0.653100
1.851500 0.813100
1.868100 0.925300
1.884800 0.952300
1.901400 0.930100
1.918000 0.937400
1.934600 1.022400
1.951300 1.156800
1.967900 1.263900
1.984500 1.297700
2.001100 1.289800
2.017800 1.314800
2.034400 1.416400
2.051000 1.581600
2.067600 1.772800
2.084300 1.949100
2.100900 2.051200
2.117500 2.009000
2.134200 1.799300
2.150800 1.489500
2.167400 1.208200
2.184000 1.067800
2.200700 1.107900
2.217300 1.291500
2.233900 1.528500
2.250500 1.704900
2.267200 1.727100
2.283800 1.582800
2.300400 1.357600
2.317000 1.166300
2.333700 1.056000
2.350300 0.989600
2.366900 0.930100
2.383500 0.919400
2.400200 1.047300
2.416800 1.342700
2.433400 1.711600
2.450000 1.993700
2.466700 2.083500
2.483300 2.000100
2.499900 1.846100
2.516500 1.707700
2.533200 1.597200
2.549800 1.477500
2.566400 1.323300
2.583000 1.146900
2.599700 0.976300
2.616300 0.831900
2.632900 0.735500
2.649500 0.727100
2.666200 0.844200
2.682800 1.073500
2.699400 1.332800
2.716100 1.514400
2.732700 1.555100
2.749300 1.469800
2.765900 1.332400
2.782600 1.229900
2.799200 1.215900
2.815800 1.280100
2.832400 1.364100
2.849100 1.421300
2.865700 1.459000
2.882300 1.509500
2.898900 1.579100
2.915600 1.649600
2.932200 1.723800
2.948800 1.846300
2.965400 2.063300
2.982100 2.351100
2.998700 2.596500
3.015300 2.687900
3.031900 2.627700
3.048600 2.514700
3.065200 2.418600
3.081800 2.320400
3.098400 2.186000
3.115100 2.039800
3.131700 1.932100
3.148300 1.866300
3.164900 1.799900
3.181600 1.708200
3.198200 1.620500
3.214800 1.593000
3.231500 1.662800
3.248100 1.818700
3.264700 2.002500
3.281300 2.155600
3.298000 2.273200
3.314600 2.400100
3.331200 2.559600
3.347800 2.701100
3.364500 2.727900
3.381100 2.577200
3.397700 2.278000
3.414300 1.944900
3.431000 1.713500
3.447600 1.662200
3.464200 1.770400
3.480800 1.944400
3.497500 2.085900
3.514100 2.151000
3.530700 2.151700
3.547300 2.116000
3.564000 2.065000
3.580600 2.022300
3.597200 2.012000
3.613800 2.029100
3.630500 2.036600
3.647100 2.019600
3.663700 2.030500
3.680300 2.144100
3.697000 2.355000
3.713600 2.546900
3.730200 2.588500
3.746900 2.454200
3.763500 2.241000
3.780100 2.075200
3.796700 2.011600
3.813400 2.018900
3.830000 2.049400
3.846600 2.104600
3.863200 2.219600
3.879900 2.391700
3.896500 2.537400
3.913100 2.533900
3.929700 2.310100
3.946400 1.905900
3.963000 1.453200
3.979600 1.104100
3.996200 0.966000
4.012900 1.069400
4.029500 1.366200
4.046100 1.743000
4.062700 2.049900
4.079400 2.149500
4.096000 1.978300
4.112600 1.586600
4.129200 1.115800
4.145900 0.717200
4.162500 0.473600
4.179100 0.381800
4.195700 0.395100
4.212400 0.471100
4.229000 0.588400
4.245600 0.743200
4.262200 0.944200
4.278900 1.203000
4.295500 1.504400
4.312100 1.782700
4.328800 1.949400
4.345400 1.972700
4.362000 1.927400
4.378600 1.946400
4.395300 2.106900
4.411900 2.361700
4.428500 2.571700
4.445100 2.603100
4.461800 2.418200
4.478400 2.106200
4.495000 1.827400
4.511600 1.700800
4.528300 1.724200
4.544900 1.803700
4.561500 1.849300
4.578100 1.828900
4.594800 1.750200
4.611400 1.639400
4.628000 1.554100
4.644600 1.581800
4.661300 1.782600
4.677900 2.112700
4.694500 2.418000
4.711100 2.529500
4.727800 2.378700
4.744400 2.037900
4.761000 1.662600
4.777600 1.393800
4.794300 1.289900
4.810900 1.329400
4.827500 1.458200
4.844200 1.619000
4.860800 1.746700
4.877400 1.778300
4.894000 1.696800
4.910700 1.550900
4.927300 1.416000
4.943900 1.339500
4.960500 1.326700
4.977200 1.364700
4.993800 1.444000
5.010400 1.549900
5.027000 1.642800
5.043700 1.670600
5.060300 1.615400
5.076900 1.520900
5.093500 1.461600
5.110200 1.491700
5.126800 1.631900
5.143400 1.879700
5.160000 2.199800
5.176700 2.519100
5.193300 2.778600
5.209900 2.995600
5.226500 3.229600
5.243200 3.461200
5.259800 3.545900
5.276400 3.332800
5.293000 2.827600
5.309700 2.216300
5.326300 1.720700
5.342900 1.433900
5.359500 1.290000
5.376200 1.179600
5.392800 1.081300
5.409400 1.077700
5.426100 1.252100
5.442700 1.575700
5.459300 1.898600
5.475900 2.057900
5.492600 2.004100
5.509200 1.831900
5.525800 1.690800
5.542400 1.670000
5.559100 1.762400
5.575700 1.912000
5.592300 2.066100
5.608900 2.188700
5.625600 2.252900
5.642200 2.236500
5.658800 2.125900
5.675400 1.929800
5.692100 1.693600
5.708700 1.493500
5.725300 1.399200
5.741900 1.430200
5.758600 1.545500
5.775200 1.667600
5.791800 1.719700
5.808400 1.667000
5.825100 1.546200
5.841700 1.442800
5.858300 1.422900
5.874900 1.489000
5.891600 1.609100
5.908200 1.762500
5.924800 1.941300
5.941500 2.129100
5.958100 2.304600
5.974700 2.450000
5.991300 2.531000
6.008000 2.489500
6.024600 2.296500
6.041200 2.015900
6.057800 1.782000
6.074500 1.698600
6.091100 1.767400
6.107700 1.909800
6.124300 2.040600
6.141000 2.121100
6.157600 2.166100
6.174200 2.215100
6.190800 2.288300
6.207500 2.363400
6.224100 2.399500
6.240700 2.381800
6.257300 2.341500
6.274000 2.319500
6.290600 2.307700
6.307200 2.244400
6.323800 2.079600
6.340500 1.838600
6.357100 1.617300
6.373700 1.524200
6.390300 1.609100
6.407000 1.814900
6.423600 2.001300
6.440200 2.053600
6.456800 1.983700
6.473500 1.911700
6.490100 1.944200
6.506700 2.089800
6.523400 2.283300
6.540000 2.454000
6.556600 2.553900
6.573200 2.550500
6.589900 2.428300
6.606500 2.206700
6.623100 1.944600
6.639700 1.710800
6.656400 1.540700
6.673000 1.427300
6.689600 1.354100
6.706200 1.328700
6.722900 1.377000
6.739500 1.514300
6.756100 1.730800
6.772700 2.009000
6.789400 2.341200
6.806000 2.713100
6.822600 3.071600
6.839200 3.342400
6.855900 3.491800
6.872500 3.541600
6.889100 3.509700
6.905700 3.374100
6.922400 3.115700
6.939000 2.773100
6.955600 2.430300
6.972200 2.152200
6.988900 1.943600
7.005500 1.770200
7.022100 1.607600
7.038800 1.459000
7.055400 1.334800
7.072000 1.234700
7.088600 1.159200
7.105300 1.135400
7.121900 1.217300
7.138500 1.449300
7.155100 1.819400
7.171800 2.240100
7.188400 2.589100
7.205000 2.787300
7.221600 2.833300
7.238300 2.760600
7.254900 2.589700
7.271500 2.342500
7.288100 2.080200
7.304800 1.889600
7.321400 1.828400
7.338000 1.897200
7.354600 2.055200
7.371300 2.241600
7.387900 2.397600
7.404500 2.506100
7.421100 2.615500
7.437800 2.782400
7.454400 2.979000
7.471000 3.100900
7.487600 3.089400
7.504300 3.018700
7.520900 3.038000
7.537500 3.224200
7.554200 3.485800
7.570800 3.618000
7.587400 3.480500
7.604000 3.129500
7.620700 2.759900
7.637300 2.526400
7.653900 2.441300
7.670500 2.425800
7.687200 2.426600
7.703800 2.476000
7.720400 2.648800
7.737000 2.952300
7.753700 3.263400
7.770300 3.408200
7.786900 3.316300
7.803500 3.072900
7.820200 2.825600
7.836800 2.671700
7.853400 2.635900
7.870000 2.708200
7.886700 2.864000
7.903300 3.042500
7.919900 3.136400
7.936500 3.039100
7.953200 2.726300
7.969800 2.289900
7.986400 1.885700
8.003000 1.636400
8.019700 1.574700
8.036300 1.658300
8.052900 1.808300
8.069500 1.934400
8.086200 1.966300
8.102800 1.907300
8.119400 1.851100
8.136100 1.916900
8.152700 2.153600
8.169300 2.495900
8.185900 2.802200
8.202600 2.953600
8.219200 2.940800
8.235800 2.851900
8.252400 2.759900
8.269100 2.638100
8.285700 2.411700
8.302300 2.080100
8.318900 1.751200
8.335600 1.543700
8.352200 1.479500
8.368800 1.486900
8.385400 1.500500
8.402100 1.545600
8.418700 1.713200
8.435300 2.053200
8.451900 2.503300
8.468600 2.934100
8.485200 3.255500
8.501800 3.466400
8.518400 3.606700
8.535100 3.687900
8.551700 3.680600
8.568300 3.556400
8.584900 3.334700
8.601600 3.087900
8.618200 2.891400
8.634800 2.767300
8.651500 2.703400
8.668100 2.724900
8.684700 2.885400
8.701300 3.155100
8.718000 3.370400
8.734600 3.352700
8.751200 3.083700
8.767800 2.749200
8.784500 2.606300
8.801100 2.788400
8.817700 3.202600
8.834300 3.598000
8.851000 3.747500
8.867600 3.593500
8.884200 3.249900
8.900800 2.884000
8.917500 2.589700
8.934100 2.351300
8.950700 2.111100
8.967300 1.857800
8.984000 1.644500
9.000600 1.541100
9.017200 1.594200
9.033800 1.818900
9.050500 2.184500
9.067100 2.587300
9.083700 2.868700
9.100300 2.915400
9.117000 2.759900
9.133600 2.568800
9.150200 2.518600
9.166800 2.683000
9.183500 3.008600
9.200100 3.352700
9.216700 3.548200
9.233400 3.485700
9.250000 3.171000
9.266600 2.712600
9.283200 2.257600
9.299900 1.931100
9.316500 1.808400
9.333100 1.900900
9.349700 2.141700
9.366400 2.390300
9.383000 2.486200
9.399600 2.338700
9.416200 1.996300
9.432900 1.632000
9.449500 1.440400
9.466100 1.514200
9.482700 1.782600
9.499400 2.061300
9.516000 2.203200
9.532600 2.233000
9.549200 2.327400
9.565900 2.633500
9.582500 3.091400
9.599100 3.441800
9.615700 3.429900
9.632400 3.021900
9.649000 2.427800
9.665600 1.931000
9.682200 1.697600
9.698900 1.712100
9.715500 1.849100
9.732100 1.996500
9.748800 2.122000
9.765400 2.242500
9.782000 2.356000
9.798600 2.418800
9.815300 2.388200
9.831900 2.278100
9.848500 2.166500
9.865100 2.138300
9.881800 2.222200
9.898400 2.378500
9.915000 2.537100
9.931600 2.642100
9.948300 2.678700
9.964900 2.677400
9.981500 2.693700
9.998100 2.770200
10.014800 2.908700
10.031400 3.071800
10.048000 3.198100
10.064600 3.215600
10.081300 3.075300
10.097900 2.806200
10.114500 2.528100
10.131100 2.377400
10.147800 2.403200
10.164400 2.543600
10.181000 2.690100
10.197600 2.753700
10.214300 2.694000
10.230900 2.536700
10.247500 2.369600
10.264100 2.275700
10.280800 2.247900
10.297400 2.195800
10.314000 2.050700
10.330700 1.841700
10.347300 1.656200
10.363900 1.548700
10.380500 1.510200
10.397200 1.505700
10.413800 1.513700
10.430400 1.533600
10.447000 1.577000
10.463700 1.656800
10.480300 1.765300
10.496900 1.861500
10.513500 1.898200
10.530200 1.872800
10.546800 1.842300
10.563400 1.869700
10.580000 1.957800
10.596700 2.056000
10.613300 2.130100
10.629900 2.197700
10.646500 2.284100
10.663200 2.375800
10.679800 2.441100
10.696400 2.475100
10.713000 2.489300
10.729700 2.473600
10.746300 2.409500
10.762900 2.307500
10.779500 2.190500
10.796200 2.049900
10.812800 1.870300
10.829400 1.705400
10.846100 1.671000
10.862700 1.822800
10.879300 2.060300
10.895900 2.194200
10.912600 2.120400
10.929200 1.918100
10.945800 1.780800
10.962400 1.857200
10.979100 2.143600
10.995700 2.504000
11.012300 2.784600
11.028900 2.912600
11.045600 2.900800
11.062200 2.784500
11.078800 2.586500
11.095400 2.347600
11.112100 2.152600
11.128700 2.088200
11.145300 2.169200
11.161900 2.323800
11.178600 2.465600
11.195200 2.573600
11.211800 2.684300
11.228400 2.802900
11.245100 2.849600
11.261700 2.727300
11.278300 2.440800
11.294900 2.118100
11.311600 1.901800
11.328200 1.826900
11.344800 1.809000
11.361400 1.742800
11.378100 1.606400
11.394700 1.476900
11.411300 1.452600
11.428000 1.564400
11.444600 1.754800
11.461200 1.939100
11.477800 2.081700
11.494500 2.198900
11.511100 2.288600
11.527700 2.295800
11.544300 2.172200
11.561000 1.944700
11.577600 1.700100
11.594200 1.518200
11.610800 1.436700
11.627500 1.448700
11.644100 1.497900
11.660700 1.496500
11.677300 1.399800
11.694000 1.266700
11.710600 1.208800
11.727200 1.261800
11.743800 1.335400
11.760500 1.312100
11.777100 1.187400
11.793700 1.091000
11.810300 1.168100
11.827000 1.445200
11.843600 1.816100
11.860200 2.150300
11.876800 2.403300
11.893500 2.617200
11.910100 2.828100
11.926700 2.997500
11.943400 3.034100
11.960000 2.872700
11.976600 2.533600
11.993200 2.123700
12.009900 1.790000
12.026500 1.655300
12.043100 1.763800
12.059700 2.055100
12.076400 2.386300
12.093000 2.606400
12.109600 2.647600
12.126200 2.556700
12.142900 2.432100
12.159500 2.320900
12.176100 2.183200
12.192700 1.964400
12.209400 1.686700
12.226000 1.460000
12.242600 1.424200
12.259200 1.688000
12.275900 2.272400
12.292500 3.045000
12.309100 3.718800
12.325700 3.997300
12.342400 3.793400
12.359000 3.309300
12.375600 2.872400
12.392200 2.678300
12.408900 2.679200
12.425500 2.684600
12.442100 2.547400
12.458800 2.272700
12.475400 1.988800
12.492000 1.835600
12.508600 1.870100
12.525300 2.052000
12.541900 2.292600
12.558500 2.509800
12.575100 2.652500
12.591800 2.701400
12.608400 2.664300
12.625000 2.566900
12.641600 2.440500
12.658300 2.308100
12.674900 2.178600
12.691500 2.055700
12.708100 1.954900
12.724800 1.903000
12.741400 1.913400
12.758000 1.972000
12.774600 2.061200
12.791300 2.193900
12.807900 2.406400
12.824500 2.701300
12.841100 3.006200
12.857800 3.214700
12.874400 3.287800
12.891000 3.297100
12.907600 3.343100
12.924300 3.435500
12.940900 3.475800
12.957500 3.361900
12.974100 3.101200
12.990800 2.813500
13.007400 2.643400
13.024000 2.684000
13.040700 2.951500
13.057300 3.369400
13.073900 3.765700
13.090500 3.949400
13.107200 3.848400
13.123800 3.556700
13.140400 3.224100
13.157000 2.926400
13.173700 2.668400
13.190300 2.469300
13.206900 2.389000
13.223500 2.469500
13.240200 2.683800
13.256800 2.951800
13.273400 3.192300
13.290000 3.359800
13.306700 3.468200
13.323300 3.596700
13.339900 3.842600
13.356500 4.215400
13.373200 4.580400
13.389800 4.749600
13.406400 4.652700
13.423000 4.387600
13.439700 4.095600
13.456300 3.825600
13.472900 3.546900
13.489500 3.252100
13.506200 2.998700
13.522800 2.855900
13.539400 2.841700
13.556100 2.914200
13.572700 3.010100
13.589300 3.096600
13.605900 3.192100
13.622600 3.324500
13.639200 3.465700
13.655800 3.535500
13.672400 3.486200
13.689100 3.352300
13.705700 3.190300
13.722300 3.003300
13.738900 2.772100
13.755600 2.538300
13.772200 2.397600
13.788800 2.402300
13.805400 2.512100
13.822100 2.659700
13.838700 2.833600
13.855300 3.068800
13.871900 3.371800
13.888600 3.696800
13.905200 3.992800
13.921800 4.233600
13.938400 4.394300
13.955100 4.439900
13.971700 4.361700
13.988300 4.195900
14.004900 3.984800
14.021600 3.739100
14.038200 3.455600
14.054800 3.158700
14.071400 2.899500
14.088100 2.707600
14.104700 2.573400
14.121300 2.501800
14.138000 2.560900
14.154600 2.826700
14.171200 3.266100
14.187800 3.709000
14.204500 3.961100
14.221100 3.937700
14.237700 3.695100
14.254300 3.372100
14.271000 3.111400
14.287600 2.997700
14.304200 3.028700
14.320800 3.142100
14.337500 3.281000
14.354100 3.430100
14.370700 3.584400
14.387300 3.701500
14.404000 3.714600
14.420600 3.601500
14.437200 3.433800
14.453800 3.349300
14.470500 3.457600
14.487100 3.744600
14.503700 4.055900
14.520300 4.190400
14.537000 4.044600
14.553600 3.687800
14.570200 3.297000
14.586800 3.008600
14.603500 2.829800
14.620100 2.698400
14.636700 2.606400
14.653400 2.629400
14.670000 2.828600
14.686600 3.155900
14.703200 3.473500
14.719900 3.660500
14.736500 3.691200
14.753100 3.617200
14.769700 3.490600
14.786400 3.317900
14.803000 3.087800
14.819600 2.825800
14.836200 2.615300
14.852900 2.562900
14.869500 2.725200
14.886100 3.043300
14.902700 3.366200
14.919400 3.575000
14.936000 3.688800
14.952600 3.829700
14.969200 4.088600
14.985900 4.436700
15.002500 4.745800
15.019100 4.877100
15.035700 4.770000
15.052400 4.471000
15.069000 4.079100
15.085600 3.665300
15.102200 3.259000
15.118900 2.906200
15.135500 2.701600
15.152100 2.730400
15.168700 2.992100
15.185400 3.405100
15.202000 3.869300
15.218600 4.284000
15.235300 4.519200
15.251900 4.452600
15.268500 4.092400
15.285100 3.620600
15.301800 3.247400
15.318400 3.023600
15.335000 2.828800
15.351600 2.527100
15.368300 2.103200
15.384900 1.666400
15.401500 1.366900
15.418100 1.303100
15.434800 1.470100
15.451400 1.775600
15.468000 2.100400
15.484600 2.347900
15.501300 2.462700
15.517900 2.446400
15.534500 2.366700
15.551100 2.325500
15.567800 2.395000
15.584400 2.574300
15.601000 2.790100
15.617600 2.934700
15.634300 2.937600
15.650900 2.833700
15.667500 2.745100
15.684100 2.777300
15.700800 2.931300
15.717400 3.113500
15.734000 3.230300
15.750700 3.282800
15.767300 3.366400
15.783900 3.546100
15.800500 3.739100
15.817200 3.773800
15.833800 3.585100
15.850400 3.297500
15.867000 3.081200
15.883700 2.978100
15.900300 2.920000
15.916900 2.874500
15.933500 2.900400
15.950200 3.059400
15.966800 3.317100
15.983400 3.544900
16.000000 3.602000
16.016700 3.422200
16.033300 3.059700
16.049900 2.666300
16.066500 2.401000
16.083200 2.336800
16.099800 2.444000
16.116400 2.652100
16.133000 2.899500
16.149700 3.127300
16.166300 3.277500
16.182900 3.338800
16.199500 3.370500
16.216200 3.437400
16.232800 3.517700
16.249400 3.505000
16.266100 3.309100
16.282700 2.942700
16.299300 2.504300
16.315900 2.103900
16.332600 1.821900
16.349200 1.714300
16.365800 1.808800
16.382400 2.076000
16.399100 2.413900
16.415700 2.684000
16.432300 2.786200
16.448900 2.709900
16.465600 2.526100
16.482200 2.349900
16.498800 2.304600
16.515400 2.464400
16.532100 2.783700
16.548700 3.099000
16.565300 3.242100
16.581900 3.164700
16.598600 2.944300
16.615200 2.691500
16.631800 2.471000
16.648400 2.289000
16.665100 2.123500
16.681700 1.967400
16.698300 1.859500
16.714900 1.872400
16.731600 2.052100
16.748200 2.356700
16.764800 2.646100
16.781400 2.755500
16.798100 2.616100
16.814700 2.326000
16.831300 2.087700
16.848000 2.048800
16.864600 2.187700
16.881200 2.349200
16.897800 2.386000
16.914500 2.267400
16.931100 2.075900
16.947700 1.930700
16.964300 1.917600
16.981000 2.057900
16.997600 2.295100
17.014200 2.505500
17.030800 2.565000
17.047500 2.442000
17.064100 2.219300
17.080700 2.011800
17.097300 1.881300
17.114000 1.831900
17.130600 1.853900
17.147200 1.936700
17.163800 2.046600
17.180500 2.130500
17.197100 2.165200
17.213700 2.192700
17.230300 2.275000
17.247000 2.407300
17.263600 2.493900
17.280200 2.427200
17.296800 2.188900
17.313500 1.873400
17.330100 1.631200
17.346700 1.595500
17.363400 1.824800
17.380000 2.250500
17.396600 2.664000
17.413200 2.813000
17.429900 2.575900
17.446500 2.056500
17.463100 1.501500
17.479700 1.121800
17.496400 0.985500
17.513000 1.043900
17.529600 1.226100
17.546200 1.499000
17.562900 1.853200
17.579500 2.259900
17.596100 2.657900
17.612700 2.973400
17.629400 3.141200
17.646000 3.127900
17.662600 2.968900
17.679200 2.773100
17.695900 2.651300
17.712500 2.641500
17.729100 2.727200
17.745700 2.890400
17.762400 3.101000
17.779000 3.279600
17.795600 3.340200
17.812200 3.279600
17.828900 3.190000
17.845500 3.165100
17.862100 3.206300
17.878700 3.236700
17.895400 3.190000
17.912000 3.065400
17.928600 2.910500
17.945300 2.786300
17.961900 2.753800
17.978500 2.857000
17.995100 3.090300
18.011800 3.382600
18.028400 3.634100
18.045000 3.783000
18.061600 3.834200
18.078300 3.816500
18.094900 3.718500
18.111500 3.491200
18.128100 3.127200
18.144800 2.715500
18.161400 2.389000
18.178000 2.228700
18.194600 2.228800
18.211300 2.333600
18.227900 2.483800
18.244500 2.644900
18.261100 2.814900
18.277800 3.005200
18.294400 3.205000
18.311000 3.373800
18.327600 3.480100
18.344300 3.534300
18.360900 3.567000
18.377500 3.579900
18.394100 3.536200
18.410800 3.401400
18.427400 3.196500
18.444000 3.014200
18.460700 2.986100
18.477300 3.216700
18.493900 3.700100
18.510500 4.266200
18.527200 4.642000
18.543800 4.636100
18.560400 4.292100
18.577000 3.848600
18.593700 3.540800
18.610300 3.437500
18.626900 3.456400
18.643500 3.500100
18.660200 3.539000
18.676800 3.575600
18.693400 3.599900
18.710000 3.614200
18.726700 3.654500
18.743300 3.736900
18.759900 3.810900
18.776500 3.802900
18.793200 3.681800
18.809800 3.458600
18.826400 3.156600
18.843000 2.824600
18.859700 2.562900
18.876300 2.492500
18.892900 2.685600
18.909500 3.123200
18.926200 3.690600
18.942800 4.198000
18.959400 4.453300
18.976000 4.381700
18.992700 4.083100
19.009300 3.740200
19.025900 3.470900
19.042600 3.282000
19.059200 3.135500
19.075800 3.014100
19.092400 2.927600
19.109100 2.900700
19.125700 2.957100
19.142300 3.086700
19.158900 3.222800
19.175600 3.278600
19.192200 3.216200
19.208800 3.076700
19.225400 2.942200
19.242100 2.876700
19.258700 2.897400
19.275300 2.982700
19.291900 3.089300
19.308600 3.175800
19.325200 3.229700
19.341800 3.269600
19.358400 3.307000
19.375100 3.320700
19.391700 3.298200
19.408300 3.293000
19.424900 3.403000
19.441600 3.674700
19.458200 4.028500
19.474800 4.287800
19.491400 4.304900
19.508100 4.076800
19.524700 3.727400
19.541300 3.379700
19.558000 3.074400
19.574600 2.817400
19.591200 2.643400
19.607800 2.587400
19.624500 2.624100
19.641100 2.692500
19.657700 2.772300
19.674300 2.889400
19.691000 3.045900
19.707600 3.194600
19.724200 3.299700
19.740800 3.383200
19.757500 3.482700
19.774100 3.574500
19.790700 3.551900
19.807300 3.295800
19.824000 2.795100
19.840600 2.213900
19.857200 1.823800
19.873800 1.848500
19.890500 2.331300
19.907100 3.090600
19.923700 3.788900
19.940300 4.115700
19.957000 3.987000
19.973600 3.587500
19.990200 3.214600
20.006800 3.080100
20.023500 3.221900
20.040100 3.525200
20.056700 3.803700
20.073300 3.913600
20.090000 3.835000
20.106600 3.650600
20.123200 3.452200
20.139900 3.271500
20.156500 3.084500
20.173100 2.871300
20.189700 2.675000
20.206400 2.591300
20.223000 2.678700
20.239600 2.886800
20.256200 3.091800
20.272900 3.203800
20.289500 3.227700
20.306100 3.218800
20.322700 3.191400
20.339400 3.082100
20.356000 2.815000
20.372600 2.403900
20.389200 1.981800
20.405900 1.716500
20.422500 1.686600
20.439100 1.822700
20.455700 1.960500
20.472400 1.961300
20.489000 1.808400
20.505600 1.601700
20.522200 1.469900
20.538900 1.489900
20.555500 1.664500
20.572100 1.927500
20.588700 2.155400
20.605400 2.219700
20.622000 2.081100
20.638600 1.832900
20.655300 1.628800
20.671900 1.558800
20.688500 1.592900
20.705100 1.625800
20.721800 1.560200
20.738400 1.364400
20.755000 1.081400
20.771600 0.797200
20.788300 0.592100
20.804900 0.503800
20.821500 0.521400
20.838100 0.603700
20.854800 0.702600
20.871400 0.776600
20.888000 0.797600
20.904600 0.758100
20.921300 0.679300
20.937900 0.608300
20.954500 0.589700
20.971100 0.629000
20.987800 0.685200
21.004400 0.710200
21.021000 0.698100
21.037600 0.694500
21.054300 0.753800
21.070900 0.887700
21.087500 1.058000
21.104100 1.218200
21.120800 1.350700
21.137400 1.458100
21.154000 1.523800
21.170700 1.497300
21.187300 1.337500
21.203900 1.073000
21.220500 0.799600
21.237200 0.602900
21.253800 0.496400
21.270400 0.441300
21.287000 0.414300
21.303700 0.435200
21.320300 0.526800
21.336900 0.662100
21.353500 0.768000
21.370200 0.784200
21.386800 0.710900
21.403400 0.595100
21.420000 0.481800
21.436700 0.387500
21.453300 0.313500
21.469900 0.266400
21.486500 0.255300
21.503200 0.272200
21.519800 0.285600
21.536400 0.263900
21.553000 0.203000
21.569700 0.127300
21.586300 0.064600
21.602900 0.026600
21.619500 0.009500
21.636200 0.005600
21.652800 0.011600
21.669400 0.030100
21.686000 0.066500
21.702700 0.121500
21.719300 0.188900
21.735900 0.263700
21.752600 0.352700
21.769200 0.465200
21.785800 0.586300
21.802400 0.667700
21.819100 0.662300
21.835700 0.566600
21.852300 0.424600
21.868900 0.292000
21.885600 0.199000
21.902200 0.142600
21.918800 0.104100
21.935400 0.070700
21.952100 0.041500
21.968700 0.020200
21.985300 0.008100
22.001900 0.003100
22.018600 0.002700
22.035200 0.006700
22.051800 0.017400
22.068400 0.037400
22.085100 0.065800
22.101700 0.096400
22.118300 0.121300
22.134900 0.138100
22.151600 0.152400
22.168200 0.172300
22.184800 0.201100
22.201400 0.236800
22.218100 0.275000
22.234700 0.306000
22.251300 0.313000
22.268000 0.281300
22.284600 0.214300
22.301200 0.135500
22.317800 0.070300
22.334500 0.029800
22.351100 0.010900
22.367700 0.006000
22.384300 0.011900
22.401000 0.032800
22.417600 0.078100
22.434200 0.153300
22.450800 0.249400
22.467500 0.338300
22.484100 0.386000
22.500700 0.373800
22.517300 0.309300
22.534000 0.219700
22.550600 0.133900
22.567200 0.069800
22.583800 0.031400
22.600500 0.014200
22.617100 0.013400
22.633700 0.028200
22.650300 0.060700
22.667000 0.107900
22.683600 0.154600
22.700200 0.178400
22.716800 0.165700
22.733500 0.123900
22.750100 0.074500
22.766700 0.036100
22.783300 0.014100
22.800000 0.004400
22.816600 0.001100
22.833200 0.000200
22.849900 0.000000
22.866500 0.000000
22.883100 0.000000
22.899700 0.000000
22.916400 0.000000
22.933000 0.000000
22.949600 0.000000
22.966200 0.000000
22.982900 0.000000
22.999500 0.000000
23.016100 0.000000
23.032700 0.000000
23.049400 0.000000
23.066000 0.000000
23.082600 0.000000
23.099200 0.000000
23.115900 0.000000
23.132500 0.000000
23.149100 0.000000
23.165700 0.000100
23.182400 0.000400
23.199000 0.001500
23.215600 0.004500
23.232200 0.011000
23.248900 0.021600
23.265500 0.034000
23.282100 0.043100
23.298700 0.043900
23.315400 0.036100
23.332000 0.023800
23.348600 0.012700
23.365300 0.005400
23.381900 0.001900
23.398500 0.000500
23.415100 0.000100
23.431800 0.000000
23.448400 0.000000
23.465000 0.000000
23.481600 0.000000
23.498300 0.000000
23.514900 0.000000
23.531500 0.000000
23.548100 0.000000
23.564800 0.000000
23.581400 0.000000
23.598000 0.000000
23.614600 0.000000
23.631300 0.000000
23.647900 0.000000
23.664500 0.000000
23.681100 0.000000
23.697800 0.000000
23.714400 0.000000
23.731000 0.000000
23.747600 0.000000
23.764300 0.000000
23.780900 0.000000
23.797500 0.000000
23.814100 0.000000
23.830800 0.000000
23.847400 0.000000
23.864000 0.000000
23.880600 0.000000
23.897300 0.000000
23.913900 0.000000
23.930500 0.000000
23.947200 0.000000
23.963800 0.000000
23.980400 0.000000
23.997000 0.000000
24.013700 0.000000
24.030300 0.000000
24.046900 0.000000
24.063500 0.000000
24.080200 0.000000
24.096800 0.000000
24.113400 0.000000
24.130000 0.000000
24.146700 0.000000
24.163300 0.000000
24.179900 0.000000
24.196500 0.000000
24.213200 0.000000
24.229800 0.000000
24.246400 0.000000
24.263000 0.000000
24.279700 0.000000
24.296300 0.000000
24.312900 0.000000
24.329500 0.000000
24.346200 0.000000
24.362800 0.000000
24.379400 0.000000
24.396000 0.000000
24.412700 0.000000
24.429300 0.000000
24.445900 0.000000
24.462600 0.000000
24.479200 0.000000
24.495800 0.000000
24.512400 0.000000
24.529100 0.000000
24.545700 0.000000
24.562300 0.000000
24.578900 0.000000
24.595600 0.000000
24.612200 0.000000
24.628800 0.000000
24.645400 0.000000
24.662100 0.000000
24.678700 0.000000
24.695300 0.000000
24.711900 0.000000
24.728600 0.000000
24.745200 0.000000
24.761800 0.000000
24.778400 0.000000
24.795100 0.000000
e
