set title 'mp-972351 - Density of States'
set xlabel 'Energy (eV)'
set ylabel 'DOS (states/eV)'
set grid
set xrange [-10:10]
set yrange [0:79.113]
set xzeroaxis lt -1
set terminal png size 800,600
set output 'mp-972351_dos_gnuplot.png'
plot '-' using 1:2 with lines title 'DOS'
-7.952900 0.000000
-7.933700 0.000000
-7.914400 0.000000
-7.895100 0.000000
-7.875900 0.000000
-7.856600 0.000000
-7.837400 0.000000
-7.818100 0.000000
-7.798900 0.000000
-7.779600 0.000000
-7.760300 0.000000
-7.741100 0.000000
-7.721800 0.000000
-7.702600 0.000000
-7.683300 0.000000
-7.664100 0.000000
-7.644800 0.000000
-7.625500 0.000000
-7.606300 0.000000
-7.587000 0.000000
-7.567800 0.000000
-7.548500 0.000000
-7.529300 0.000000
-7.510000 0.000000
-7.490800 0.000000
-7.471500 0.000000
-7.452200 0.000000
-7.433000 0.000000
-7.413700 0.000000
-7.394500 0.000000
-7.375200 0.000000
-7.356000 0.000000
-7.336700 0.000000
-7.317400 0.000000
-7.298200 0.000000
-7.278900 0.000000
-7.259700 0.000000
-7.240400 0.000000
-7.221200 0.000000
-7.201900 0.000000
-7.182600 0.000000
-7.163400 0.000000
-7.144100 0.000000
-7.124900 0.000000
-7.105600 0.000000
-7.086400 0.000000
-7.067100 0.000000
-7.047800 0.000000
-7.028600 0.000000
-7.009300 0.000000
-6.990100 0.000000
-6.970800 0.000000
-6.951600 0.000000
-6.932300 0.000000
-6.913000 0.000000
-6.893800 0.000000
-6.874500 0.000000
-6.855300 0.000000
-6.836000 0.000000
-6.816800 0.000000
-6.797500 0.000000
-6.778200 0.000000
-6.759000 0.000000
-6.739700 0.000000
-6.720500 0.000000
-6.701200 0.000000
-6.682000 0.000000
-6.662700 0.000000
-6.643500 0.000000
-6.624200 0.000000
-6.604900 0.000000
-6.585700 0.000000
-6.566400 0.000000
-6.547200 0.000000
-6.527900 0.000000
-6.508700 0.000000
-6.489400 0.000000
-6.470100 0.000000
-6.450900 0.000000
-6.431600 0.000000
-6.412400 0.000000
-6.393100 0.000000
-6.373900 0.000000
-6.354600 0.000000
-6.335300 0.000000
-6.316100 0.000000
-6.296800 0.000000
-6.277600 0.000000
-6.258300 0.000000
-6.239100 0.000000
-6.219800 0.000000
-6.200500 0.118100
-6.181300 3.892900
-6.162000 8.246600
-6.142800 21.801700
-6.123500 34.262000
-6.104300 32.545300
-6.085000 47.899600
-6.065700 39.550900
-6.046500 33.732200
-6.027200 46.420800
-6.008000 49.246400
-5.988700 71.921200
-5.969500 48.323000
-5.950200 49.191200
-5.931000 57.882000
-5.911700 71.516800
-5.892400 26.130200
-5.873200 36.423900
-5.853900 49.968800
-5.834700 50.918900
-5.815400 25.764600
-5.796200 37.272200
-5.776900 42.279900
-5.757600 49.085800
-5.738400 43.193600
-5.719100 51.718100
-5.699900 60.653300
-5.680600 44.978400
-5.661400 45.556700
-5.642100 55.278900
-5.622800 60.507300
-5.603600 57.389000
-5.584300 65.440700
-5.565100 38.615000
-5.545800 51.708900
-5.526600 53.872000
-5.507300 10.663700
-5.488000 0.000000
-5.468800 0.000000
-5.449500 0.000000
-5.430300 0.000000
-5.411000 0.000000
-5.391800 0.000000
-5.372500 0.000000
-5.353200 0.000000
-5.334000 0.000000
-5.314700 0.000000
-5.295500 0.000000
-5.276200 0.000000
-5.257000 0.000000
-5.237700 0.000000
-5.218400 0.000000
-5.199200 0.000000
-5.179900 0.000000
-5.160700 0.000000
-5.141400 0.000000
-5.122200 0.000000
-5.102900 0.000000
-5.083700 0.000000
-5.064400 0.000000
-5.045100 0.000000
-5.025900 0.000000
-5.006600 0.000000
-4.987400 0.000000
-4.968100 0.000000
-4.948900 0.000000
-4.929600 0.000000
-4.910300 0.000000
-4.891100 0.000000
-4.871800 0.000000
-4.852600 0.000000
-4.833300 0.000000
-4.814100 0.000000
-4.794800 0.000000
-4.775500 0.000000
-4.756300 0.000000
-4.737000 0.000000
-4.717800 0.000000
-4.698500 0.000000
-4.679300 0.000000
-4.660000 0.000000
-4.640700 0.000000
-4.621500 0.000000
-4.602200 0.000000
-4.583000 0.000000
-4.563700 0.000000
-4.544500 0.000000
-4.525200 0.000000
-4.505900 0.000000
-4.486700 0.000000
-4.467400 0.000000
-4.448200 0.000000
-4.428900 0.000000
-4.409700 0.000000
-4.390400 0.000000
-4.371100 0.000000
-4.351900 0.000000
-4.332600 0.000000
-4.313400 0.000000
-4.294100 0.000000
-4.274900 0.000000
-4.255600 0.000000
-4.236400 0.000000
-4.217100 0.000000
-4.197800 0.000000
-4.178600 0.000000
-4.159300 0.000000
-4.140100 0.000000
-4.120800 0.000000
-4.101600 0.000000
-4.082300 0.000000
-4.063000 0.000000
-4.043800 0.000000
-4.024500 0.000000
-4.005300 0.000000
-3.986000 0.000000
-3.966800 0.000000
-3.947500 0.000000
-3.928200 0.000000
-3.909000 0.000000
-3.889700 0.000000
-3.870500 0.000000
-3.851200 0.000000
-3.832000 0.000000
-3.812700 0.000000
-3.793400 0.000000
-3.774200 0.007000
-3.754900 0.024000
-3.735700 0.048100
-3.716400 0.076600
-3.697200 0.108100
-3.677900 0.142600
-3.658600 0.180200
-3.639400 0.220600
-3.620100 0.236200
-3.600900 0.224800
-3.581600 0.232200
-3.562400 0.240300
-3.543100 0.248100
-3.523900 0.257600
-3.504600 0.269400
-3.485300 0.281300
-3.466100 0.292500
-3.446800 0.303000
-3.427600 0.312900
-3.408300 0.323400
-3.389100 0.334700
-3.369800 0.346500
-3.350500 0.358600
-3.331300 0.370900
-3.312000 0.386200
-3.292800 0.402700
-3.273500 0.416700
-3.254300 0.428000
-3.235000 0.436700
-3.215700 0.443100
-3.196500 0.446800
-3.177200 0.447100
-3.158000 0.443900
-3.138700 0.437400
-3.119500 0.427900
-3.100200 0.420600
-3.080900 0.421600
-3.061700 0.422800
-3.042400 0.424100
-3.023200 0.425500
-3.003900 0.435100
-2.984700 0.453800
-2.965400 0.469700
-2.946100 0.482800
-2.926900 0.493200
-2.907600 0.500800
-2.888400 0.506400
-2.869100 0.512200
-2.849900 0.518200
-2.830600 0.524300
-2.811300 0.530300
-2.792100 0.535700
-2.772800 0.541600
-2.753600 0.547700
-2.734300 0.553200
-2.715100 0.558200
-2.695800 0.563600
-2.676600 0.569500
-2.657300 0.576100
-2.638000 0.583200
-2.618800 0.587100
-2.599500 0.591400
-2.580300 0.597200
-2.561000 0.603100
-2.541800 0.609100
-2.522500 0.615300
-2.503200 0.621100
-2.484000 0.625900
-2.464700 0.630600
-2.445500 0.635400
-2.426200 0.640000
-2.407000 0.644400
-2.387700 0.648700
-2.368400 0.652900
-2.349200 0.657100
-2.329900 0.661400
-2.310700 0.665600
-2.291400 0.669800
-2.272200 0.674200
-2.252900 0.678700
-2.233600 0.683300
-2.214400 0.687900
-2.195100 0.692500
-2.175900 0.697200
-2.156600 0.701800
-2.137400 0.706300
-2.118100 0.710800
-2.098800 0.715300
-2.079600 0.720800
-2.060300 0.726300
-2.041100 0.731800
-2.021800 0.737300
-2.002600 0.742700
-1.983300 0.748100
-1.964100 0.753600
-1.944800 0.759100
-1.925500 0.764800
-1.906300 0.770300
-1.887000 0.775400
-1.867800 0.780500
-1.848500 0.785800
-1.829300 0.791100
-1.810000 0.796700
-1.790700 0.802000
-1.771500 0.807100
-1.752200 0.812100
-1.733000 0.816900
-1.713700 0.821700
-1.694500 0.826300
-1.675200 0.830900
-1.655900 0.835400
-1.636700 0.840100
-1.617400 0.845100
-1.598200 0.850100
-1.578900 0.855300
-1.559700 0.860600
-1.540400 0.865900
-1.521100 0.874500
-1.501900 0.883200
-1.482600 0.891400
-1.463400 0.898900
-1.444100 0.905700
-1.424900 0.911900
-1.405600 0.917400
-1.386300 0.922200
-1.367100 0.926300
-1.347800 0.929800
-1.328600 0.932300
-1.309300 0.934200
-1.290100 0.935400
-1.270800 0.936000
-1.251500 0.935900
-1.232300 0.938600
-1.213000 0.943600
-1.193800 0.948400
-1.174500 0.952900
-1.155300 0.957300
-1.136000 0.961400
-1.116800 0.965200
-1.097500 0.968700
-1.078200 0.971800
-1.059000 0.974500
-1.039700 0.976500
-1.020500 0.977900
-1.001200 1.207300
-0.982000 1.022100
-0.962700 1.027200
-0.943400 1.032800
-0.924200 1.038700
-0.904900 1.045000
-0.885700 1.051800
-0.866400 1.058900
-0.847200 1.066400
-0.827900 1.074300
-0.808600 1.082600
-0.789400 1.091400
-0.770100 1.100600
-0.750900 1.110700
-0.731600 1.121900
-0.712400 1.133600
-0.693100 1.145700
-0.673800 1.158100
-0.654600 1.170600
-0.635300 1.183100
-0.616100 1.195700
-0.596800 1.208300
-0.577600 1.220900
-0.558300 1.233600
-0.539000 1.246500
-0.519800 1.260000
-0.500500 1.273900
-0.481300 1.301600
-0.462000 1.350500
-0.442800 1.425600
-0.423500 1.483500
-0.404200 1.524000
-0.385000 1.547900
-0.365700 1.564000
-0.346500 1.576300
-0.327200 1.586300
-0.308000 1.594500
-0.288700 1.600800
-0.269500 1.604500
-0.250200 1.605500
-0.230900 1.603700
-0.211700 1.585400
-0.192400 1.569900
-0.173200 1.553800
-0.153900 1.536800
-0.134700 1.507700
-0.115400 1.464600
-0.096100 1.411300
-0.076900 1.366100
-0.057600 1.332300
-0.038400 1.306500
-0.019100 1.288900
0.000100 1.281600
0.019400 1.279500
0.038700 1.277900
0.057900 1.276900
0.077200 1.276400
0.096400 1.276400
0.115700 1.277000
0.134900 1.278300
0.154200 1.281100
0.173500 1.296400
0.192700 1.328300
0.212000 1.369200
0.231200 1.417600
0.250500 1.472100
0.269700 1.524600
0.289000 1.599100
0.308300 1.659400
0.327500 1.667600
0.346800 1.627500
0.366000 1.626700
0.385300 1.658900
0.404500 1.662800
0.423800 1.630600
0.443000 1.563100
0.462300 1.465100
0.481600 1.390700
0.500800 1.365800
0.520100 1.348400
0.539300 1.335300
0.558600 1.325800
0.577800 1.319900
0.597100 1.325800
0.616400 1.335000
0.635600 1.345000
0.654900 1.357700
0.674100 1.426800
0.693400 1.474000
0.712600 1.490900
0.731900 1.496500
0.751200 1.501400
0.770400 1.509500
0.789700 1.510100
0.808900 1.510100
0.828200 1.492700
0.847400 1.471700
0.866700 1.454700
0.886000 1.485000
0.905200 1.503800
0.924500 1.506800
0.943700 1.836400
0.963000 1.479600
0.982200 1.443700
1.001500 1.429600
1.020800 1.456600
1.040000 1.494900
1.059300 1.518900
1.078500 1.533000
1.097800 1.532100
1.117000 1.531600
1.136300 1.590400
1.155600 2.051700
1.174800 1.852900
1.194100 1.865600
1.213300 1.956100
1.232600 2.193400
1.251800 4.693600
1.271100 4.140000
1.290300 4.162900
1.309600 3.249100
1.328900 2.749800
1.348100 2.624700
1.367400 2.499000
1.386600 2.362300
1.405900 2.211200
1.425100 1.947200
1.444400 1.849500
1.463700 1.773000
1.482900 1.711400
1.502200 1.657100
1.521400 1.603900
1.540700 1.547900
1.559900 1.491000
1.579200 1.447500
1.598500 1.415200
1.617700 1.347900
1.637000 1.289200
1.656200 1.254600
1.675500 1.258000
1.694700 1.287400
1.714000 1.257000
1.733300 1.114800
1.752500 0.945900
1.771800 0.778000
1.791000 0.618500
1.810300 0.466700
1.829500 0.317100
1.848800 0.166700
1.868100 0.000000
1.887300 0.000000
1.906600 0.000000
1.925800 0.000000
1.945100 0.000000
1.964300 0.000000
1.983600 0.000000
2.002900 0.000000
2.022100 0.000000
2.041400 0.000000
2.060600 0.000000
2.079900 0.000000
2.099100 0.000000
2.118400 0.000000
2.137600 0.000000
2.156900 0.000000
2.176200 0.000000
2.195400 0.000000
2.214700 0.000000
2.233900 0.000000
2.253200 0.000000
2.272400 0.000000
2.291700 0.000000
2.311000 0.000000
2.330200 0.000000
2.349500 0.000000
2.368700 0.000000
2.388000 0.000000
2.407200 0.000000
2.426500 0.000000
2.445800 0.000000
2.465000 0.000000
2.484300 0.000000
2.503500 0.000000
2.522800 0.000000
2.542000 0.000000
2.561300 0.000000
2.580600 0.000000
2.599800 0.000000
2.619100 0.000000
2.638300 0.000000
2.657600 0.000000
2.676800 0.000000
2.696100 0.000000
2.715400 0.000000
2.734600 0.000000
2.753900 0.000000
2.773100 0.000000
2.792400 0.000000
2.811600 0.000000
2.830900 0.000000
2.850100 0.000000
2.869400 0.000000
2.888700 0.000000
2.907900 0.000000
2.927200 0.000000
2.946400 0.000000
2.965700 0.000000
2.984900 0.000000
3.004200 0.000000
3.023500 0.000000
3.042700 0.000000
3.062000 0.000000
3.081200 0.000000
3.100500 0.000000
3.119700 0.000000
3.139000 0.000000
3.158300 0.000000
3.177500 0.000000
3.196800 0.000000
3.216000 0.000000
3.235300 0.000000
3.254500 0.000000
3.273800 0.000000
3.293100 0.000000
3.312300 0.000000
3.331600 0.000000
3.350800 0.001600
3.370100 0.005100
3.389300 0.009500
3.408600 0.014700
3.427900 0.027200
3.447100 0.044100
3.466400 0.060700
3.485600 0.081300
3.504900 0.106100
3.524100 0.133000
3.543400 0.161900
3.562700 0.192800
3.581900 0.225700
3.601200 0.261800
3.620400 0.301100
3.639700 0.343700
3.658900 0.390600
3.678200 0.455300
3.697400 0.531400
3.716700 0.610300
3.736000 0.694600
3.755200 0.740700
3.774500 0.751100
3.793700 0.756900
3.813000 0.760200
3.832200 0.760800
3.851500 0.758900
3.870800 0.754300
3.890000 0.748800
3.909300 0.747600
3.928500 0.746200
3.947800 0.749400
3.967000 0.751700
3.986300 0.753600
4.005600 0.758400
4.024800 0.766200
4.044100 0.817600
4.063300 0.873000
4.082600 0.921400
4.101800 0.964800
4.121100 1.001500
4.140400 1.031600
4.159600 1.056500
4.178900 1.087200
4.198100 1.123600
4.217400 1.159200
4.236600 1.194900
4.255900 1.231600
4.275200 1.269900
4.294400 1.308600
4.313700 1.347100
4.332900 1.385300
4.352200 1.424800
4.371400 1.466400
4.390700 1.564600
4.410000 1.634200
4.429200 1.692200
4.448500 1.746100
4.467700 1.796200
4.487000 1.848100
4.506200 1.901500
4.525500 1.954800
4.544700 2.041200
4.564000 2.117900
4.583300 2.111300
4.602500 1.995800
4.621800 1.794200
4.641000 1.788600
4.660300 1.819400
4.679500 1.863200
4.698800 1.930800
4.718100 2.027700
4.737300 2.215400
4.756600 2.427700
4.775800 2.613500
4.795100 2.765000
4.814300 2.852400
4.833600 2.903200
4.852900 2.532700
4.872100 2.436800
4.891400 2.275400
4.910600 2.170400
4.929900 2.117300
4.949100 2.081800
4.968400 2.062300
4.987700 2.038700
5.006900 1.988800
5.026200 1.938700
5.045400 1.898900
5.064700 1.863800
5.083900 1.825700
5.103200 1.784300
5.122500 1.737200
5.141700 1.683700
5.161000 1.626700
5.180200 1.566300
5.199500 1.506000
5.218700 1.471700
5.238000 1.451300
5.257200 1.431000
5.276500 1.416200
5.295800 1.408000
5.315000 1.406200
5.334300 1.405300
5.353500 1.393200
5.372800 1.367900
5.392000 1.336400
5.411300 1.311200
5.430600 1.291400
5.449800 1.279000
5.469100 1.275100
5.488300 1.273900
5.507600 1.275200
5.526800 1.279100
5.546100 1.285100
5.565400 1.299500
5.584600 1.323300
5.603900 1.387900
5.623100 1.439200
5.642400 1.460500
5.661600 1.450900
5.680900 1.450600
5.700200 1.467800
5.719400 1.483200
5.738700 1.496400
5.757900 1.509400
5.777200 1.527700
5.796400 1.547500
5.815700 1.565500
5.835000 1.588200
5.854200 1.650700
5.873500 1.762000
5.892700 1.772800
5.912000 1.819900
5.931200 1.958600
5.950500 2.104100
5.969800 2.209300
5.989000 2.263200
6.008300 2.267800
6.027500 2.243300
6.046800 2.153400
6.066000 2.028600
6.085300 1.883000
6.104500 1.702500
6.123800 1.619400
6.143100 1.557800
6.162300 1.511800
6.181600 1.480300
6.200800 1.454900
6.220100 1.435900
6.239300 1.420700
6.258600 1.408600
6.277900 1.398900
6.297100 1.390000
6.316400 1.380900
6.335600 1.371400
6.354900 1.360300
6.374100 1.348300
6.393400 1.333900
6.412700 1.316800
6.431900 1.296700
6.451200 1.274300
6.470400 1.253600
6.489700 1.248800
6.508900 1.247900
6.528200 1.249200
6.547500 1.252000
6.566700 1.256000
6.586000 1.255600
6.605200 1.252900
6.624500 1.259000
6.643700 1.268800
6.663000 1.283300
6.682300 1.297500
6.701500 1.310100
6.720800 1.321100
6.740000 1.330500
6.759300 1.338300
6.778500 1.357100
6.797800 1.393600
6.817000 1.447700
6.836300 1.518100
6.855600 1.556600
6.874800 1.559800
6.894100 1.569900
6.913300 1.581600
6.932600 1.594100
6.951800 1.607300
6.971100 1.620400
6.990400 1.636200
7.009600 1.680500
7.028900 1.763500
7.048100 1.781100
7.067400 1.755100
7.086600 1.777600
7.105900 1.801900
7.125200 1.835000
7.144400 1.863900
7.163700 1.881200
7.182900 1.887100
7.202200 1.883500
7.221400 1.870300
7.240700 1.852100
7.260000 1.833400
7.279200 1.814100
7.298500 1.794200
7.317700 1.773400
7.337000 1.752500
7.356200 1.734500
7.375500 1.715600
7.394800 1.695100
7.414000 1.672700
7.433300 1.649000
7.452500 1.632700
7.471800 1.623400
7.491000 1.615800
7.510300 1.609600
7.529600 1.604900
7.548800 1.602700
7.568100 1.602700
7.587300 1.604200
7.606600 1.606300
7.625800 1.610600
7.645100 1.616000
7.664300 1.622000
7.683600 1.628900
7.702900 1.636400
7.722100 1.644100
7.741400 1.652100
7.760600 1.662300
7.779900 1.684200
7.799100 1.723300
7.818400 1.760300
7.837700 1.782400
7.856900 1.797200
7.876200 1.804100
7.895400 1.803400
7.914700 1.795100
7.933900 1.801700
7.953200 1.806600
7.972500 1.808000
7.991700 1.805300
8.011000 1.802700
8.030200 1.824600
8.049500 1.824300
8.068700 1.775200
8.088000 1.702500
8.107300 1.687400
8.126500 1.691400
8.145800 1.694800
8.165000 1.696200
8.184300 1.697400
8.203500 1.701100
8.222800 1.706900
8.242100 1.712000
8.261300 1.717300
8.280600 1.729100
8.299800 1.748400
8.319100 1.775600
8.338300 1.823100
8.357600 1.890900
8.376900 1.886900
8.396100 1.858800
8.415400 1.806600
8.434600 1.797900
8.453900 1.797000
8.473100 1.798500
8.492400 1.802300
8.511600 1.808600
8.530900 1.817300
8.550200 1.828000
8.569400 1.841400
8.588700 1.855700
8.607900 1.869600
8.627200 1.893300
8.646400 1.939100
8.665700 1.980300
8.685000 2.016900
8.704200 2.048900
8.723500 2.076400
8.742700 2.099200
8.762000 2.116700
8.781200 2.124500
8.800500 2.122900
8.819800 2.110900
8.839000 2.099700
8.858300 2.091100
8.877500 2.083900
8.896800 2.075900
8.916000 2.066900
8.935300 2.057400
8.954600 2.047700
8.973800 2.039200
8.993100 2.364700
9.012300 2.202100
9.031600 2.092300
9.050800 2.081100
9.070100 2.082100
9.089400 2.081500
9.108600 2.079300
9.127900 2.075700
9.147100 2.074700
9.166400 2.071400
9.185600 2.065500
9.204900 2.058000
9.224100 2.049100
9.243400 2.040200
9.262700 2.033100
9.281900 2.025400
9.301200 2.013600
9.320400 1.998200
9.339700 1.985000
9.358900 1.975100
9.378200 1.969800
9.397500 1.969800
9.416700 1.974300
9.436000 1.984200
9.455200 1.997400
9.474500 2.013100
9.493700 2.031400
9.513000 2.052500
9.532300 2.076100
9.551500 2.103900
9.570800 2.135900
9.590000 2.171900
9.609300 2.268500
9.628500 2.296200
9.647800 2.537400
9.667100 2.270200
9.686300 2.173800
9.705600 2.061100
9.724800 1.938500
9.744100 1.911600
9.763300 1.880400
9.782600 1.848800
9.801900 1.820700
9.821100 1.795900
9.840400 1.774500
9.859600 1.756600
9.878900 1.742100
9.898100 1.729600
9.917400 1.798500
9.936700 1.924100
9.955900 1.937700
9.975200 1.833900
9.994400 1.832100
10.013700 1.837100
10.032900 1.840900
10.052200 1.841400
10.071400 1.835400
10.090700 1.818700
10.110000 1.792200
10.129200 1.773500
10.148500 1.761500
10.167700 1.746100
10.187000 1.731400
10.206200 1.726000
10.225500 1.729300
10.244800 1.735400
10.264000 1.743900
10.283300 1.764900
10.302500 1.788900
10.321800 1.806200
10.341000 1.816700
10.360300 1.820900
10.379600 1.819300
10.398800 1.812400
10.418100 1.804800
10.437300 1.790700
10.456600 1.777500
10.475800 1.765000
10.495100 1.774000
10.514400 1.787600
10.533600 1.794200
10.552900 1.798000
10.572100 1.812700
10.591400 1.835000
10.610600 1.900000
10.629900 2.011700
10.649200 2.101100
10.668400 2.157100
10.687700 2.162500
10.706900 2.174500
10.726200 2.181600
10.745400 2.199600
10.764700 2.233800
10.784000 2.271700
10.803200 2.333700
10.822500 2.355100
10.841700 2.357200
10.861000 2.353700
10.880200 2.342800
10.899500 2.337000
10.918700 2.338600
10.938000 2.333800
10.957300 2.324400
10.976500 2.316100
10.995800 2.366200
11.015000 2.438400
11.034300 2.450200
11.053500 2.431300
11.072800 2.399900
11.092100 2.343100
11.111300 2.150600
11.130600 2.118700
11.149800 2.092600
11.169100 2.066200
11.188300 2.041200
11.207600 2.015500
11.226900 1.989100
11.246100 1.962100
11.265400 1.935500
11.284600 1.909600
11.303900 1.884500
11.323100 1.860500
11.342400 1.841100
11.361700 1.836600
11.380900 1.833600
11.400200 1.832600
11.419400 1.833100
11.438700 1.834600
11.457900 1.837500
11.477200 1.841800
11.496500 1.849400
11.515700 1.859300
11.535000 1.871700
11.554200 1.886100
11.573500 1.898900
11.592700 1.912400
11.612000 1.928600
11.631200 1.940400
11.650500 1.950300
11.669800 1.954800
11.689000 1.955000
11.708300 1.956100
11.727500 1.958500
11.746800 2.010000
11.766000 2.055800
11.785300 2.095200
11.804600 2.129100
11.823800 2.058300
11.843100 2.035500
11.862300 2.034000
11.881600 2.024200
11.900800 2.004400
11.920100 1.999100
11.939400 2.001000
11.958600 2.002500
11.977900 2.003700
11.997100 2.004300
12.016400 2.003800
12.035600 2.001900
12.054900 1.998600
12.074200 1.994500
12.093400 1.989800
12.112700 1.977400
12.131900 1.943500
12.151200 1.905300
12.170400 1.877600
12.189700 1.866600
12.209000 1.863600
12.228200 1.868500
12.247500 1.879700
12.266700 1.899400
12.286000 1.931700
12.305200 1.968700
12.324500 1.981000
12.343800 1.989700
12.363000 1.994900
12.382300 1.994500
12.401500 1.988700
12.420800 1.982500
12.440000 1.976100
12.459300 1.970200
12.478500 1.965000
12.497800 1.955700
12.517100 1.946800
12.536300 1.938700
12.555600 1.931300
12.574800 1.924900
12.594100 1.919100
12.613300 1.914100
12.632600 1.910100
12.651900 1.912100
12.671100 1.913500
12.690400 1.912200
12.709600 1.907700
12.728900 1.901300
12.748100 1.895000
12.767400 1.888900
12.786700 1.883500
12.805900 1.878700
12.825200 1.875200
12.844400 1.873600
12.863700 1.876500
12.882900 1.881700
12.902200 1.889800
12.921500 1.900700
12.940700 1.914500
12.960000 1.931100
12.979200 1.946500
12.998500 1.932300
13.017700 1.921300
13.037000 1.925800
13.056300 1.884900
13.075500 1.799600
13.094800 1.755300
13.114000 1.747500
13.133300 1.738600
13.152500 1.719600
13.171800 1.700700
13.191000 1.688500
13.210300 1.664600
13.229600 1.628600
13.248800 1.578600
13.268100 1.554400
13.287300 1.534900
13.306600 1.519700
13.325800 1.508600
13.345100 1.502600
13.364400 1.501200
13.383600 1.506600
13.402900 1.547300
13.422100 1.615000
13.441400 1.630400
13.460600 1.637800
13.479900 1.645000
13.499200 1.653400
13.518400 1.665200
13.537700 1.692500
13.556900 1.739600
13.576200 1.777100
13.595400 1.802900
13.614700 1.816700
13.634000 1.846300
13.653200 1.837300
13.672500 1.887300
13.691700 1.926100
13.711000 1.951800
13.730200 1.974400
13.749500 1.998900
13.768800 2.021700
13.788000 2.045100
13.807300 2.070300
13.826500 2.096900
13.845800 2.125200
13.865000 2.155800
13.884300 2.179100
13.903600 2.202900
13.922800 2.225500
13.942100 2.245800
13.961300 2.264100
13.980600 2.281900
13.999800 2.323300
14.019100 2.395700
14.038300 2.498700
14.057600 2.558700
14.076900 2.492600
14.096100 2.380500
14.115400 2.306000
14.134600 2.282700
14.153900 2.267000
14.173100 2.255800
14.192400 2.247600
14.211700 2.233000
14.230900 2.210400
14.250200 2.182200
14.269400 2.148800
14.288700 2.131800
14.307900 2.128300
14.327200 2.123400
14.346500 2.117200
14.365700 2.110400
14.385000 2.105400
14.404200 2.102100
14.423500 2.099500
14.442700 2.104300
14.462000 2.114000
14.481300 2.124900
14.500500 2.138600
14.519800 2.157200
14.539000 2.180900
14.558300 2.197700
14.577500 2.255200
14.596800 2.330300
14.616100 2.418100
14.635300 2.508900
14.654600 2.716600
14.673800 3.071400
14.693100 2.820000
14.712300 2.859200
14.731600 2.909100
14.750900 2.879500
14.770100 2.843400
14.789400 2.828500
14.808600 2.822100
14.827900 2.793200
14.847100 2.752300
14.866400 2.722900
14.885600 2.674400
14.904900 2.620800
14.924200 2.573100
14.943400 2.520800
14.962700 2.465900
14.981900 2.414000
15.001200 2.367900
15.020400 2.329500
15.039700 2.294900
15.059000 2.263200
15.078200 2.236500
15.097500 2.203100
15.116700 2.165300
15.136000 2.132500
15.155200 2.100000
15.174500 2.046000
15.193800 2.031700
15.213000 2.055900
15.232300 2.105800
15.251500 2.142300
15.270800 2.165500
15.290000 2.161800
15.309300 2.133200
15.328600 2.104200
15.347800 2.062100
15.367100 2.052800
15.386300 2.059100
15.405600 2.072200
15.424800 2.095500
15.444100 2.173500
15.463400 2.311900
15.482600 2.236500
15.501900 2.110300
15.521100 2.077200
15.540400 2.044100
15.559600 2.014900
15.578900 1.991700
15.598100 2.000900
15.617400 2.053700
15.636700 2.116400
15.655900 2.171700
15.675200 2.225300
15.694400 2.275400
15.713700 2.317500
15.732900 2.348600
15.752200 2.368600
15.771500 2.375400
15.790700 2.370800
15.810000 2.368100
15.829200 2.362500
15.848500 2.351900
15.867700 2.330100
15.887000 2.301000
15.906300 2.282400
15.925500 2.268700
15.944800 2.261200
15.964000 2.260400
15.983300 2.266800
16.002500 2.274800
16.021800 2.284100
16.041100 2.304400
16.060300 2.336500
16.079600 2.373300
16.098800 2.384600
16.118100 2.355100
16.137300 2.275400
16.156600 2.538800
16.175900 2.210800
16.195100 1.974700
16.214400 1.823900
16.233600 1.736800
16.252900 1.686100
16.272100 1.637100
16.291400 1.584400
16.310700 1.541800
16.329900 1.521600
16.349200 1.523500
16.368400 1.589100
16.387700 1.796500
16.406900 1.625300
16.426200 1.604700
16.445400 1.577900
16.464700 1.544400
16.484000 1.481300
16.503200 1.358300
16.522500 1.278700
16.541700 1.226900
16.561000 1.154200
16.580200 1.020600
16.599500 0.987700
16.618800 1.135700
16.638000 1.187500
16.657300 1.154900
16.676500 1.054900
16.695800 0.923500
16.715000 0.879300
16.734300 0.879800
16.753600 0.882000
16.772800 0.893600
16.792100 0.914500
16.811300 0.941100
16.830600 0.966300
16.849800 0.991500
16.869100 1.016900
16.888400 1.042400
16.907600 1.073700
16.926900 1.118000
16.946100 1.163000
16.965400 1.218100
16.984600 1.287700
17.003900 1.353700
17.023200 1.377500
17.042400 1.379300
17.061700 1.386500
17.080900 1.416000
17.100200 1.450400
17.119400 1.489800
17.138700 1.532200
17.158000 1.588600
17.177200 1.674500
17.196500 1.780700
17.215700 1.876400
17.235000 1.958100
17.254200 2.053200
17.273500 2.106600
17.292700 2.079200
17.312000 2.051900
17.331300 2.015300
17.350500 1.997100
17.369800 1.987800
17.389000 1.967500
17.408300 1.943500
17.427500 1.890600
17.446800 1.828900
17.466100 1.824300
17.485300 1.838900
17.504600 1.869600
17.523800 1.917400
17.543100 1.955100
17.562300 1.973300
17.581600 1.995600
17.600900 2.021500
17.620100 2.052000
17.639400 2.089300
17.658600 2.133500
17.677900 2.179700
17.697100 2.217600
17.716400 2.247000
17.735700 2.268800
17.754900 2.301800
17.774200 2.378600
17.793400 2.431500
17.812700 2.480200
17.831900 2.525000
17.851200 2.591500
17.870500 2.674100
17.889700 2.748100
17.909000 2.819200
17.928200 2.885700
17.947500 2.936900
17.966700 2.957500
17.986000 2.988000
18.005200 3.079600
18.024500 3.108500
18.043800 3.152900
18.063000 3.235900
18.082300 3.425800
18.101500 3.555100
18.120800 3.493700
18.140000 3.314600
18.159300 3.257700
18.178600 3.204100
18.197800 3.153400
18.217100 3.122000
18.236300 3.111600
18.255600 3.095100
18.274800 3.060200
18.294100 3.022900
18.313400 2.985000
18.332600 2.947000
18.351900 2.911700
18.371100 2.885200
18.390400 2.861100
18.409600 2.840400
18.428900 2.822400
18.448200 2.813000
18.467400 2.828700
18.486700 2.863000
18.505900 2.897200
18.525200 2.911200
18.544400 2.930000
18.563700 2.964700
18.583000 2.995100
18.602200 2.928500
18.621500 2.920500
18.640700 2.897700
18.660000 2.861600
18.679200 2.822600
18.698500 2.814700
18.717800 2.885000
18.737000 2.936000
18.756300 2.983100
18.775500 3.035900
18.794800 3.086900
18.814000 3.205300
18.833300 3.251000
18.852500 3.264400
18.871800 3.242500
18.891100 3.240700
18.910300 3.294400
18.929600 3.373500
18.948800 3.472600
18.968100 3.625000
18.987300 3.755000
19.006600 3.777700
19.025900 3.839400
19.045100 3.804700
19.064400 3.706000
19.083600 3.705000
19.102900 3.718400
19.122100 3.717100
19.141400 3.695100
19.160700 3.639000
19.179900 3.523600
19.199200 3.361400
19.218400 3.402700
19.237700 3.485200
19.256900 3.422200
19.276200 3.316300
19.295500 3.295900
19.314700 3.283800
19.334000 3.288800
19.353200 3.315500
19.372500 3.369400
19.391700 3.430000
19.411000 3.492200
19.430300 3.553600
19.449500 3.609700
19.468800 3.630600
19.488000 3.626200
19.507300 3.603600
19.526500 3.570100
19.545800 3.527300
19.565100 3.477100
19.584300 3.429100
19.603600 3.418900
19.622800 3.432700
19.642100 3.453200
19.661300 3.466300
19.680600 3.475100
19.699800 3.482800
19.719100 3.486200
19.738400 3.480400
19.757600 3.473300
19.776900 3.463200
19.796100 3.445800
19.815400 3.425800
19.834600 3.421300
19.853900 3.441500
19.873200 3.474000
19.892400 3.480100
19.911700 3.456400
19.930900 3.423100
19.950200 3.385900
19.969400 3.348100
19.988700 3.312900
20.008000 3.339700
20.027200 3.490400
20.046500 3.400200
20.065700 3.350500
20.085000 3.301600
20.104200 3.265300
20.123500 3.234200
20.142800 3.214900
20.162000 3.210600
20.181300 3.210500
20.200500 3.212700
20.219800 3.281900
20.239000 3.350200
20.258300 3.375900
20.277600 3.389500
20.296800 3.397000
20.316100 3.403700
20.335300 3.403200
20.354600 3.396000
20.373800 3.372900
20.393100 3.341300
20.412300 3.314000
20.431600 3.283000
20.450900 4.139400
20.470100 3.195100
20.489400 3.192900
20.508600 3.204600
20.527900 3.202100
20.547100 3.215100
20.566400 3.286100
20.585700 3.370900
20.604900 3.351200
20.624200 3.325300
20.643400 3.301700
20.662700 3.281700
20.681900 3.258000
20.701200 3.230600
20.720500 3.204800
20.739700 3.199100
20.759000 3.197100
20.778200 3.197900
20.797500 3.217200
20.816700 3.245900
20.836000 3.267900
20.855300 3.276800
20.874500 3.285800
20.893800 3.302700
20.913000 3.315000
20.932300 3.320800
20.951500 3.311700
20.970800 3.325700
20.990100 3.351800
21.009300 3.372800
21.028600 3.386000
21.047800 3.389200
21.067100 3.378400
21.086300 3.355300
21.105600 3.347000
21.124900 3.356000
21.144100 3.368500
21.163400 3.381400
21.182600 3.393100
21.201900 3.401500
21.221100 3.405500
21.240400 3.407800
21.259600 3.412500
21.278900 3.432900
21.298200 3.439500
21.317400 3.532500
21.336700 3.516600
21.355900 3.497600
21.375200 3.468200
21.394400 3.435500
21.413700 3.400500
21.433000 3.392000
21.452200 3.367500
21.471500 3.345300
21.490700 3.337800
21.510000 3.337800
21.529200 3.336800
21.548500 3.335200
21.567800 3.334500
21.587000 3.497600
21.606300 3.253900
21.625500 3.179900
21.644800 3.167800
21.664000 3.179600
21.683300 3.225800
21.702600 3.276800
21.721800 3.331700
21.741100 3.393700
21.760300 3.478600
21.779600 3.557800
21.798800 3.618100
21.818100 3.654500
21.837400 3.678900
21.856600 3.687300
21.875900 3.675700
21.895100 3.640800
21.914400 3.629100
21.933600 3.633100
21.952900 3.652600
21.972100 3.692500
21.991400 3.752600
22.010700 3.887500
22.029900 3.855800
22.049200 3.706300
22.068400 3.634600
22.087700 3.609200
22.106900 3.607400
22.126200 3.622500
22.145500 3.623500
22.164700 3.607000
22.184000 3.598100
22.203200 3.593900
22.222500 3.621800
22.241700 3.626300
22.261000 3.654200
22.280300 3.695400
22.299500 3.746900
22.318800 3.782200
22.338000 3.820000
22.357300 3.818700
22.376500 3.816100
22.395800 3.815400
22.415100 3.816700
22.434300 3.820900
22.453600 3.833300
22.472800 3.847300
22.492100 3.869200
22.511300 3.879900
22.530600 3.875100
22.549900 3.862000
22.569100 3.842300
22.588400 3.813900
22.607600 3.787400
22.626900 3.758400
22.646100 3.719400
22.665400 3.679800
22.684700 3.642800
22.703900 3.612000
22.723200 3.590200
22.742400 3.580800
22.761700 3.519300
22.780900 3.572600
22.800200 3.618200
22.819400 3.654000
22.838700 3.680800
22.858000 3.700400
22.877200 3.712700
22.896500 3.728700
22.915700 3.744400
22.935000 3.723100
22.954200 3.715700
22.973500 3.727000
22.992800 3.727000
23.012000 3.724300
23.031300 3.710500
23.050500 3.700800
23.069800 3.690700
23.089000 3.682400
23.108300 3.677800
23.127600 3.757600
23.146800 3.759500
23.166100 3.733300
23.185300 3.747300
23.204600 3.771200
23.223800 3.796200
23.243100 3.834700
23.262400 3.886400
23.281600 3.943600
23.300900 3.998900
23.320100 4.051700
23.339400 4.140900
23.358600 4.214600
23.377900 4.200300
23.397200 4.180000
23.416400 4.158800
23.435700 4.129600
23.454900 4.095600
23.474200 4.069600
23.493400 4.048400
23.512700 4.026400
23.532000 4.000900
23.551200 3.973700
23.570500 3.945000
23.589700 3.915300
23.609000 3.889300
23.628200 3.870200
23.647500 3.860000
23.666700 3.857900
23.686000 3.859900
23.705300 3.890200
23.724500 3.904800
23.743800 3.909500
23.763000 3.917100
23.782300 3.924100
23.801500 3.928200
23.820800 3.928800
23.840100 3.924400
23.859300 3.930000
23.878600 3.935600
23.897800 3.945400
23.917100 3.994200
23.936300 4.085000
23.955600 4.095400
23.974900 4.112600
23.994100 4.139600
24.013400 4.270900
24.032600 4.203300
24.051900 4.189500
24.071100 4.172800
24.090400 4.160800
24.109700 4.106500
24.128900 3.966900
24.148200 3.910900
24.167400 3.925000
24.186700 3.975000
24.205900 4.055100
24.225200 4.166600
24.244500 4.311400
24.263700 4.243900
24.283000 4.045800
24.302200 3.900900
24.321500 3.830500
24.340700 3.829800
24.360000 3.852500
24.379200 3.866300
24.398500 3.894900
24.417800 3.931300
24.437000 3.972000
24.456300 4.015400
24.475500 4.055500
24.494800 4.098300
24.514000 4.163700
24.533300 4.159700
24.552600 4.119100
24.571800 4.056900
24.591100 4.009400
24.610300 3.976100
24.629600 3.952300
24.648800 3.937400
24.668100 3.937900
24.687400 3.942100
24.706600 3.984100
24.725900 4.087200
24.745100 4.205200
24.764400 4.326100
24.783600 4.453700
24.802900 4.536500
24.822200 4.455000
24.841400 4.300100
24.860700 4.163800
24.879900 4.042800
24.899200 3.925800
24.918400 3.838300
24.937700 3.781700
24.957000 3.765500
24.976200 3.815600
24.995500 3.834500
25.014700 3.842700
25.034000 3.928200
25.053200 3.864100
25.072500 3.744800
25.091800 3.660300
25.111000 3.564400
25.130300 3.470700
25.149500 3.391900
25.168800 3.275800
25.188000 3.158300
25.207300 3.045600
25.226500 2.974200
25.245800 2.932500
25.265100 3.352600
25.284300 2.895500
25.303600 2.974600
25.322800 3.049000
25.342100 3.113700
25.361300 3.168300
25.380600 3.216000
25.399900 3.242200
25.419100 3.193000
25.438400 3.229500
25.457600 3.254800
25.476900 3.230900
25.496100 3.174400
25.515400 3.151200
25.534700 3.289400
25.553900 3.448900
25.573200 3.485400
25.592400 3.503800
25.611700 3.504900
25.630900 3.491800
25.650200 3.475500
25.669500 3.441000
25.688700 3.350900
25.708000 3.238900
25.727200 3.179900
25.746500 3.175100
25.765700 3.168500
25.785000 3.162200
25.804300 3.156900
25.823500 3.156900
25.842800 3.160300
25.862000 3.131900
25.881300 3.110900
25.900500 3.086200
25.919800 3.059900
25.939100 3.032500
25.958300 3.001000
25.977600 3.014600
25.996800 2.907900
26.016100 2.935800
26.035300 2.945700
26.054600 2.922700
26.073800 2.864700
26.093100 2.794100
26.112400 2.773800
26.131600 2.753600
26.150900 2.729500
26.170100 2.701800
26.189400 2.674900
26.208600 2.651500
26.227900 2.642600
26.247200 2.635200
26.266400 2.624400
26.285700 2.608800
26.304900 2.588300
26.324200 2.578900
26.343400 2.566800
26.362700 2.551600
26.382000 2.535000
26.401200 2.515000
26.420500 2.499400
26.439700 2.489000
26.459000 2.480300
26.478200 2.483400
26.497500 2.488500
26.516800 2.496000
26.536000 2.506800
26.555300 2.521400
26.574500 2.643500
26.593800 2.620000
26.613000 2.577400
26.632300 2.563900
26.651600 2.497700
26.670800 2.372100
26.690100 2.336700
26.709300 2.354100
26.728600 2.389300
26.747800 2.439700
26.767100 2.496100
26.786300 2.516100
26.805600 2.533600
26.824900 2.549700
26.844100 2.565600
26.863400 2.592200
26.882600 2.630800
26.901900 2.674800
26.921100 2.703600
26.940400 2.707800
26.959700 2.674400
26.978900 2.540500
26.998200 2.388800
27.017400 2.273400
27.036700 2.189600
27.055900 2.142700
27.075200 2.109600
27.094500 2.081300
27.113700 2.062700
27.133000 2.045600
27.152200 2.026900
27.171500 2.009600
27.190700 1.993600
27.210000 1.969600
27.229300 1.938400
27.248500 1.915900
27.267800 1.901400
27.287000 1.894900
27.306300 1.893600
27.325500 1.901700
27.344800 1.921600
27.364100 1.931400
27.383300 1.932500
27.402600 1.926300
27.421800 1.914900
27.441100 1.898800
27.460300 1.913300
27.479600 1.936300
27.498900 1.957700
27.518100 2.003500
27.537400 2.076900
27.556600 2.131700
27.575900 2.151300
27.595100 2.094400
27.614400 1.976600
27.633600 1.880200
27.652900 1.820100
27.672200 1.784200
27.691400 1.768200
27.710700 1.771300
27.729900 1.788700
27.749200 1.808300
27.768400 1.821400
27.787700 1.847200
27.807000 1.607700
27.826200 1.532800
27.845500 1.505000
27.864700 1.507600
27.884000 1.541900
27.903200 1.670100
27.922500 1.797600
27.941800 1.877400
27.961000 1.905200
27.980300 1.880600
27.999500 1.789400
28.018800 1.683200
28.038000 1.578300
28.057300 1.488900
28.076600 1.416700
28.095800 1.461900
28.115100 1.372700
28.134300 1.289600
28.153600 1.237700
28.172800 1.204000
28.192100 1.173900
28.211400 1.147400
28.230600 1.122400
28.249900 1.097400
28.269100 1.072600
28.288400 1.054900
28.307600 1.047700
28.326900 1.047700
28.346100 1.044800
28.365400 1.038800
28.384700 1.029400
28.403900 1.018100
28.423200 1.012200
28.442400 0.762000
28.461700 0.624000
28.480900 0.542500
28.500200 0.465600
28.519500 0.364300
28.538700 0.305200
28.558000 0.278900
28.577200 0.253800
28.596500 0.229900
28.615700 0.207100
28.635000 0.184800
28.654300 0.161500
28.673500 0.136900
28.692800 0.112100
28.712000 0.087900
28.731300 0.065900
28.750500 0.046300
28.769800 0.028900
28.789100 0.013800
28.808300 0.001000
28.827600 0.000000
28.846800 0.000000
28.866100 0.000000
28.885300 0.000000
28.904600 0.000000
28.923900 0.000000
28.943100 0.000000
28.962400 0.000000
28.981600 0.000000
29.000900 0.000000
29.020100 0.000000
29.039400 0.000000
29.058700 0.000000
29.077900 0.000000
29.097200 0.000000
29.116400 0.000000
29.135700 0.000000
29.154900 0.000000
29.174200 0.000000
29.193400 0.000000
29.212700 0.000000
29.232000 0.000000
29.251200 0.000000
29.270500 0.000000
29.289700 0.000000
29.309000 0.000000
29.328200 0.000000
29.347500 0.000000
29.366800 0.000000
29.386000 0.000000
29.405300 0.000000
29.424500 0.000000
29.443800 0.000000
29.463000 0.000000
29.482300 0.000000
29.501600 0.000000
29.520800 0.000000
29.540100 0.000000
29.559300 0.000000
29.578600 0.000000
29.597800 0.000000
29.617100 0.000000
29.636400 0.000000
29.655600 0.000000
29.674900 0.000000
29.694100 0.000000
29.713400 0.000000
29.732600 0.000000
29.751900 0.000000
29.771200 0.000000
29.790400 0.000000
29.809700 0.000000
29.828900 0.000000
29.848200 0.000000
29.867400 0.000000
29.886700 0.000000
29.906000 0.000000
29.925200 0.000000
29.944500 0.000000
29.963700 0.000000
29.983000 0.000000
30.002200 0.000000
30.021500 0.000000
30.040700 0.000000
30.060000 0.000000
30.079300 0.000000
30.098500 0.000000
30.117800 0.000000
30.137000 0.000000
30.156300 0.000000
30.175500 0.000000
30.194800 0.000000
30.214100 0.000000
30.233300 0.000000
30.252600 0.000000
30.271800 0.000000
30.291100 0.000000
30.310300 0.000000
30.329600 0.000000
30.348900 0.000000
30.368100 0.000000
30.387400 0.000000
30.406600 0.000000
30.425900 0.000000
30.445100 0.000000
30.464400 0.000000
30.483700 0.000000
30.502900 0.000000
30.522200 0.000000
30.541400 0.000000
30.560700 0.000000
e
