set title 'mp-30571 - Density of States'
set xlabel 'Energy (eV)'
set ylabel 'DOS (states/eV)'
set grid
set xrange [-10:10]
set yrange [0:184.310]
set xzeroaxis lt -1
set terminal png size 800,600
set output 'mp-30571_dos_gnuplot.png'
plot '-' using 1:2 with lines title 'DOS'
-7.381000 0.000000
-7.367400 0.000000
-7.353800 0.000000
-7.340200 0.000000
-7.326600 0.000000
-7.313000 0.000000
-7.299400 0.000000
-7.285800 0.000000
-7.272200 0.000000
-7.258600 0.000000
-7.244900 0.000000
-7.231300 0.000000
-7.217700 0.000000
-7.204100 0.000000
-7.190500 0.000000
-7.176900 0.000000
-7.163300 0.000000
-7.149700 0.000000
-7.136100 0.000000
-7.122500 0.000000
-7.108900 0.000000
-7.095300 0.000000
-7.081600 0.000000
-7.068000 0.000000
-7.054400 0.000000
-7.040800 0.000000
-7.027200 0.000000
-7.013600 0.000000
-7.000000 0.000000
-6.986400 0.000000
-6.972800 0.000000
-6.959200 0.000000
-6.945600 0.000000
-6.931900 0.000000
-6.918300 0.000000
-6.904700 0.000000
-6.891100 0.000000
-6.877500 0.000000
-6.863900 0.000000
-6.850300 0.000000
-6.836700 0.000000
-6.823100 0.000000
-6.809500 0.000000
-6.795900 0.000000
-6.782300 0.000000
-6.768600 0.000000
-6.755000 0.000000
-6.741400 0.000000
-6.727800 0.000000
-6.714200 0.000000
-6.700600 0.000000
-6.687000 0.000000
-6.673400 0.000000
-6.659800 0.000000
-6.646200 0.000000
-6.632600 0.000000
-6.619000 0.000000
-6.605300 0.000000
-6.591700 0.000000
-6.578100 0.000000
-6.564500 0.000000
-6.550900 0.000000
-6.537300 0.000000
-6.523700 0.000000
-6.510100 0.000000
-6.496500 0.000000
-6.482900 0.000000
-6.469300 0.000000
-6.455600 0.000000
-6.442000 0.000000
-6.428400 0.000000
-6.414800 0.000000
-6.401200 0.000000
-6.387600 0.000000
-6.374000 0.000000
-6.360400 0.000000
-6.346800 0.000000
-6.333200 0.000000
-6.319600 0.000000
-6.306000 0.000000
-6.292300 0.000000
-6.278700 0.000000
-6.265100 0.000000
-6.251500 0.000000
-6.237900 0.000000
-6.224300 0.000000
-6.210700 0.000000
-6.197100 0.000000
-6.183500 0.000000
-6.169900 0.000000
-6.156300 0.000000
-6.142700 0.844600
-6.129000 4.248300
-6.115400 8.007300
-6.101800 35.841700
-6.088200 78.928700
-6.074600 67.956700
-6.061000 56.873600
-6.047400 84.880700
-6.033800 54.707000
-6.020200 73.315400
-6.006600 45.754700
-5.993000 43.391400
-5.979400 70.702800
-5.965700 40.792500
-5.952100 114.114600
-5.938500 81.091500
-5.924900 72.819200
-5.911300 81.861600
-5.897700 50.823800
-5.884100 98.378700
-5.870500 98.871400
-5.856900 101.728700
-5.843300 68.013700
-5.829700 88.505200
-5.816000 46.853000
-5.802400 41.657700
-5.788800 40.835400
-5.775200 90.054900
-5.761600 65.938900
-5.748000 66.175100
-5.734400 71.905900
-5.720800 57.862600
-5.707200 101.572100
-5.693600 127.407100
-5.680000 80.663800
-5.666400 89.459100
-5.652700 167.554500
-5.639100 95.563900
-5.625500 71.927400
-5.611900 83.312100
-5.598300 112.618300
-5.584700 35.352700
-5.571100 0.000000
-5.557500 0.000000
-5.543900 0.000000
-5.530300 0.000000
-5.516700 0.000000
-5.503100 0.000000
-5.489400 0.000000
-5.475800 0.000000
-5.462200 0.000000
-5.448600 0.000000
-5.435000 0.000000
-5.421400 0.000000
-5.407800 0.000000
-5.394200 0.000000
-5.380600 0.000000
-5.367000 0.000000
-5.353400 0.000000
-5.339800 0.000000
-5.326100 0.000000
-5.312500 0.000000
-5.298900 0.000000
-5.285300 0.000000
-5.271700 0.000000
-5.258100 0.000000
-5.244500 0.000000
-5.230900 0.000000
-5.217300 0.000000
-5.203700 0.000000
-5.190100 0.000000
-5.176400 0.000000
-5.162800 0.000000
-5.149200 0.000000
-5.135600 0.000000
-5.122000 0.000000
-5.108400 0.000000
-5.094800 0.000000
-5.081200 0.000000
-5.067600 0.000000
-5.054000 0.000000
-5.040400 0.000000
-5.026800 0.000000
-5.013100 0.000000
-4.999500 0.000000
-4.985900 0.000000
-4.972300 0.000000
-4.958700 0.000000
-4.945100 0.000000
-4.931500 0.000000
-4.917900 0.000000
-4.904300 0.000000
-4.890700 0.000000
-4.877100 0.000000
-4.863500 0.000000
-4.849800 0.000000
-4.836200 0.000000
-4.822600 0.000000
-4.809000 0.000000
-4.795400 0.000000
-4.781800 0.000000
-4.768200 0.000000
-4.754600 0.000000
-4.741000 0.000000
-4.727400 0.000000
-4.713800 0.000000
-4.700100 0.000000
-4.686500 0.000000
-4.672900 0.000000
-4.659300 0.000000
-4.645700 0.000000
-4.632100 0.000000
-4.618500 0.000000
-4.604900 0.000000
-4.591300 0.000000
-4.577700 0.000000
-4.564100 0.000000
-4.550500 0.000000
-4.536800 0.000000
-4.523200 0.000000
-4.509600 0.000000
-4.496000 0.000000
-4.482400 0.000000
-4.468800 0.000000
-4.455200 0.000000
-4.441600 0.000000
-4.428000 0.000000
-4.414400 0.000000
-4.400800 0.000000
-4.387200 0.000000
-4.373500 0.000000
-4.359900 0.000000
-4.346300 0.000000
-4.332700 0.000000
-4.319100 0.000000
-4.305500 0.000000
-4.291900 0.000000
-4.278300 0.000000
-4.264700 0.000000
-4.251100 0.000000
-4.237500 0.000000
-4.223900 0.000000
-4.210200 0.000000
-4.196600 0.000000
-4.183000 0.000000
-4.169400 0.000000
-4.155800 0.000000
-4.142200 0.000000
-4.128600 0.000000
-4.115000 0.000000
-4.101400 0.000000
-4.087800 0.000000
-4.074200 0.000000
-4.060500 0.000000
-4.046900 0.000000
-4.033300 0.000000
-4.019700 0.000000
-4.006100 0.000000
-3.992500 0.000000
-3.978900 0.000000
-3.965300 0.000000
-3.951700 0.000000
-3.938100 0.000000
-3.924500 0.000000
-3.910900 0.000000
-3.897200 0.000000
-3.883600 0.000000
-3.870000 0.000000
-3.856400 0.000000
-3.842800 0.002400
-3.829200 0.027000
-3.815600 0.078100
-3.802000 0.155700
-3.788400 0.224300
-3.774800 0.211500
-3.761200 0.226100
-3.747600 0.246100
-3.733900 0.269100
-3.720300 0.293000
-3.706700 0.318000
-3.693100 0.343900
-3.679500 0.369500
-3.665900 0.380900
-3.652300 0.391200
-3.638700 0.400600
-3.625100 0.409500
-3.611500 0.418800
-3.597900 0.428900
-3.584200 0.440200
-3.570600 0.453900
-3.557000 0.468600
-3.543400 0.483400
-3.529800 0.498400
-3.516200 0.513500
-3.502600 0.528800
-3.489000 0.544200
-3.475400 0.552200
-3.461800 0.560700
-3.448200 0.569200
-3.434600 0.575600
-3.420900 0.583400
-3.407300 0.591200
-3.393700 0.599100
-3.380100 0.607400
-3.366500 0.616000
-3.352900 0.625000
-3.339300 0.634300
-3.325700 0.644300
-3.312100 0.654400
-3.298500 0.664500
-3.284900 0.674700
-3.271300 0.685000
-3.257600 0.695500
-3.244000 0.706200
-3.230400 0.717000
-3.216800 0.727400
-3.203200 0.736000
-3.189600 0.742700
-3.176000 0.748200
-3.162400 0.755300
-3.148800 0.762200
-3.135200 0.769200
-3.121600 0.776300
-3.108000 0.783300
-3.094300 0.790400
-3.080700 0.797700
-3.067100 0.805100
-3.053500 0.812500
-3.039900 0.820000
-3.026300 0.827800
-3.012700 0.835800
-2.999100 0.843900
-2.985500 0.852100
-2.971900 0.860300
-2.958300 0.868600
-2.944600 0.877000
-2.931000 0.885600
-2.917400 0.894400
-2.903800 0.903300
-2.890200 0.912300
-2.876600 0.921400
-2.863000 0.929500
-2.849400 0.936300
-2.835800 0.942600
-2.822200 0.949700
-2.808600 0.956800
-2.795000 0.964000
-2.781300 0.971300
-2.767700 0.979300
-2.754100 0.986700
-2.740500 0.994600
-2.726900 1.002700
-2.713300 1.011000
-2.699700 1.019500
-2.686100 1.028300
-2.672500 1.037300
-2.658900 1.046500
-2.645300 1.055900
-2.631700 1.065300
-2.618000 1.074900
-2.604400 1.093800
-2.590800 1.118400
-2.577200 1.140700
-2.563600 1.159000
-2.550000 1.166600
-2.536400 1.173700
-2.522800 1.180200
-2.509200 1.186000
-2.495600 1.191200
-2.482000 1.195900
-2.468300 1.199900
-2.454700 1.206500
-2.441100 1.272200
-2.427500 1.323900
-2.413900 1.351800
-2.400300 1.322700
-2.386700 1.271900
-2.373100 1.247600
-2.359500 1.236400
-2.345900 1.227200
-2.332300 1.219800
-2.318700 1.214300
-2.305000 1.210600
-2.291400 1.207600
-2.277800 1.201500
-2.264200 1.195700
-2.250600 1.191800
-2.237000 1.188600
-2.223400 1.186200
-2.209800 1.185900
-2.196200 1.194000
-2.182600 1.208800
-2.169000 1.227700
-2.155400 1.248700
-2.141700 1.271700
-2.128100 1.296700
-2.114500 1.323400
-2.100900 1.352900
-2.087300 1.401800
-2.073700 1.450500
-2.060100 1.482500
-2.046500 1.507200
-2.032900 1.529000
-2.019300 1.551500
-2.005700 1.583100
-1.992100 1.603100
-1.978400 1.610200
-1.964800 1.593500
-1.951200 1.548300
-1.937600 1.498600
-1.924000 1.433200
-1.910400 1.388300
-1.896800 1.403000
-1.883200 1.455300
-1.869600 1.505600
-1.856000 1.534400
-1.842400 1.473900
-1.828700 1.497000
-1.815100 1.484300
-1.801500 1.459200
-1.787900 1.421800
-1.774300 1.372600
-1.760700 1.313500
-1.747100 1.281400
-1.733500 1.271300
-1.719900 1.269100
-1.706300 1.272300
-1.692700 1.287500
-1.679100 1.330900
-1.665400 1.321400
-1.651800 1.308200
-1.638200 1.290200
-1.624600 1.174400
-1.611000 1.171400
-1.597400 1.195500
-1.583800 1.236300
-1.570200 1.300900
-1.556600 1.374300
-1.543000 1.444900
-1.529400 1.541200
-1.515800 1.654900
-1.502100 1.733900
-1.488500 1.796700
-1.474900 1.841700
-1.461300 1.869900
-1.447700 1.916700
-1.434100 1.999700
-1.420500 2.005400
-1.406900 2.045700
-1.393300 2.104200
-1.379700 2.170400
-1.366100 2.189800
-1.352400 2.143000
-1.338800 2.105300
-1.325200 2.055400
-1.311600 2.184400
-1.298000 2.005900
-1.284400 1.766900
-1.270800 1.762400
-1.257200 1.755200
-1.243600 1.747700
-1.230000 1.745700
-1.216400 1.761600
-1.202800 1.790900
-1.189100 1.831800
-1.175500 1.869900
-1.161900 1.929700
-1.148300 2.006900
-1.134700 2.060500
-1.121100 2.092600
-1.107500 2.102000
-1.093900 2.108600
-1.080300 2.129700
-1.066700 2.148800
-1.053100 2.099900
-1.039500 2.133600
-1.025800 2.207000
-1.012200 2.244600
-0.998600 2.399800
-0.985000 2.344600
-0.971400 2.373300
-0.957800 2.419800
-0.944200 2.471100
-0.930600 2.513300
-0.917000 2.542000
-0.903400 2.564100
-0.889800 2.562100
-0.876200 2.618000
-0.862500 2.631000
-0.848900 2.584200
-0.835300 2.571800
-0.821700 2.585100
-0.808100 2.598900
-0.794500 2.613700
-0.780900 2.650900
-0.767300 2.696100
-0.753700 2.732700
-0.740100 2.761300
-0.726500 2.824900
-0.712800 2.855000
-0.699200 2.838300
-0.685600 2.811800
-0.672000 3.115200
-0.658400 3.089000
-0.644800 2.972300
-0.631200 3.008500
-0.617600 3.061900
-0.604000 3.117300
-0.590400 3.215200
-0.576800 3.262500
-0.563200 3.349900
-0.549500 3.472500
-0.535900 3.666500
-0.522300 3.828400
-0.508700 3.845100
-0.495100 4.005700
-0.481500 4.079300
-0.467900 4.114000
-0.454300 4.082300
-0.440700 4.010700
-0.427100 3.827000
-0.413500 3.898200
-0.399900 3.795200
-0.386200 3.723900
-0.372600 3.810500
-0.359000 3.684300
-0.345400 3.890400
-0.331800 4.036800
-0.318200 4.208800
-0.304600 4.346400
-0.291000 4.423400
-0.277400 4.526700
-0.263800 4.690100
-0.250200 4.895100
-0.236500 5.255000
-0.222900 6.033200
-0.209300 6.761400
-0.195700 7.152500
-0.182100 6.706300
-0.168500 6.473100
-0.154900 7.051400
-0.141300 7.244600
-0.127700 6.182900
-0.114100 5.813300
-0.100500 5.139600
-0.086900 4.716900
-0.073200 4.300400
-0.059600 4.167100
-0.046000 4.032400
-0.032400 3.927300
-0.018800 3.937900
-0.005200 3.962700
0.008400 4.105400
0.022000 4.064100
0.035600 4.180100
0.049200 4.889900
0.062800 6.338000
0.076400 7.573700
0.090100 6.213300
0.103700 5.964200
0.117300 5.875200
0.130900 5.981700
0.144500 5.385100
0.158100 5.377700
0.171700 4.847400
0.185300 4.735200
0.198900 4.285800
0.212500 4.274400
0.226100 4.360100
0.239700 4.339600
0.253400 4.213600
0.267000 3.918800
0.280600 3.652000
0.294200 3.183500
0.307800 2.992100
0.321400 2.746200
0.335000 2.649200
0.348600 2.482900
0.362200 2.464700
0.375800 2.434900
0.389400 2.406800
0.403100 2.381200
0.416700 2.344000
0.430300 2.318600
0.443900 2.269200
0.457500 2.183400
0.471100 2.101200
0.484700 2.012600
0.498300 1.919100
0.511900 1.823500
0.525500 1.697100
0.539100 1.576400
0.552700 1.431500
0.566400 1.398400
0.580000 1.399300
0.593600 1.372700
0.607200 1.317300
0.620800 1.116900
0.634400 1.115800
0.648000 1.113800
0.661600 1.111400
0.675200 1.108600
0.688800 1.105400
0.702400 1.101600
0.716000 1.097300
0.729700 1.092400
0.743300 1.085700
0.756900 1.145600
0.770500 4.366500
0.784100 5.878800
0.797700 4.844600
0.811300 4.307900
0.824900 4.320900
0.838500 4.455900
0.852100 4.635000
0.865700 4.439700
0.879300 4.322100
0.893000 4.367000
0.906600 4.407200
0.920200 4.444800
0.933800 4.553000
0.947400 4.670900
0.961000 4.789400
0.974600 4.889800
0.988200 4.936500
1.001800 4.928800
1.015400 4.963200
1.029000 5.020700
1.042700 5.102900
1.056300 5.202200
1.069900 5.313500
1.083500 5.467200
1.097100 5.653200
1.110700 5.921500
1.124300 6.221000
1.137900 6.779800
1.151500 6.845700
1.165100 6.994000
1.178700 7.223600
1.192300 7.215200
1.206000 7.334900
1.219600 7.784600
1.233200 7.465300
1.246800 7.279700
1.260400 7.106900
1.274000 7.315900
1.287600 7.830200
1.301200 8.328000
1.314800 8.985600
1.328400 9.386100
1.342000 10.614300
1.355600 10.741900
1.369300 9.050100
1.382900 8.617600
1.396500 9.228900
1.410100 9.537700
1.423700 9.503000
1.437300 6.603300
1.450900 8.174400
1.464500 11.357700
1.478100 13.454400
1.491700 14.335500
1.505300 12.272600
1.519000 11.103100
1.532600 12.924400
1.546200 9.017600
1.559800 13.828700
1.573400 19.105400
1.587000 17.827700
1.600600 15.265800
1.614200 16.186500
1.627800 16.861500
1.641400 18.733900
1.655000 20.446200
1.668600 20.307400
1.682300 18.816200
1.695900 18.461500
1.709500 19.187500
1.723100 18.426400
1.736700 17.310600
1.750300 17.121800
1.763900 16.821900
1.777500 18.446700
1.791100 18.132300
1.804700 17.188500
1.818300 16.451300
1.831900 15.443600
1.845600 14.104100
1.859200 12.637600
1.872800 11.287900
1.886400 9.491100
1.900000 8.560700
1.913600 8.253100
1.927200 8.066600
1.940800 8.705200
1.954400 8.065500
1.968000 7.013700
1.981600 6.837400
1.995200 6.708500
2.008900 6.814700
2.022500 6.978100
2.036100 7.109700
2.049700 7.248800
2.063300 7.357000
2.076900 7.382500
2.090500 7.489100
2.104100 7.610700
2.117700 7.761600
2.131300 7.823000
2.144900 7.850900
2.158600 7.867300
2.172200 8.094100
2.185800 8.328000
2.199400 8.516000
2.213000 8.830000
2.226600 9.329600
2.240200 9.609500
2.253800 9.403000
2.267400 9.652500
2.281000 9.908400
2.294600 10.817800
2.308200 11.887100
2.321900 11.960600
2.335500 11.130800
2.349100 10.534200
2.362700 10.230600
2.376300 10.115600
2.389900 10.282200
2.403500 10.977200
2.417100 10.767500
2.430700 12.366600
2.444300 13.736100
2.457900 13.310800
2.471500 13.296600
2.485200 13.367800
2.498800 14.363000
2.512400 16.115000
2.526000 19.266800
2.539600 24.389900
2.553200 19.608200
2.566800 15.629600
2.580400 11.481600
2.594000 6.515500
2.607600 3.663600
2.621200 2.723300
2.634900 2.226200
2.648500 1.995600
2.662100 0.925100
2.675700 0.762800
2.689300 0.756800
2.702900 0.750000
2.716500 0.734300
2.730100 0.706500
2.743700 0.702900
2.757300 0.701800
2.770900 0.703000
2.784500 0.706400
2.798200 0.710400
2.811800 0.713400
2.825400 0.717400
2.839000 0.722500
2.852600 0.728800
2.866200 0.736100
2.879800 0.744200
2.893400 0.753100
2.907000 0.758200
2.920600 0.763200
2.934200 0.770700
2.947800 0.779200
2.961500 0.788900
2.975100 0.799900
2.988700 0.813200
3.002300 0.828600
3.015900 0.843200
3.029500 0.857000
3.043100 0.874100
3.056700 0.894000
3.070300 0.917600
3.083900 0.945400
3.097500 0.977500
3.111100 1.042200
3.124800 1.145200
3.138400 1.296500
3.152000 1.439900
3.165600 1.535800
3.179200 1.580400
3.192800 1.580700
3.206400 1.579200
3.220000 1.555200
3.233600 1.454900
3.247200 1.472900
3.260800 1.494200
3.274500 1.512600
3.288100 1.530100
3.301700 1.556300
3.315300 1.584700
3.328900 1.616000
3.342500 1.651600
3.356100 1.693900
3.369700 1.742000
3.383300 1.774600
3.396900 1.780800
3.410500 1.785900
3.424100 1.803400
3.437800 1.827000
3.451400 1.839800
3.465000 1.855900
3.478600 1.877300
3.492200 1.904300
3.505800 1.936700
3.519400 1.969700
3.533000 1.999100
3.546600 2.029100
3.560200 2.063000
3.573800 2.096900
3.587400 2.129400
3.601100 2.162000
3.614700 2.389000
3.628300 2.510800
3.641900 2.561400
3.655500 2.555700
3.669100 2.503200
3.682700 2.460300
3.696300 2.425900
3.709900 2.411000
3.723500 2.404100
3.737100 2.388000
3.750800 2.491800
3.764400 2.765800
3.778000 2.451700
3.791600 2.446400
3.805200 2.437000
3.818800 2.422800
3.832400 2.401500
3.846000 2.376500
3.859600 2.348100
3.873200 2.322500
3.886800 2.303700
3.900400 2.283300
3.914100 2.263300
3.927700 2.250400
3.941300 2.240200
3.954900 2.241400
3.968500 2.245900
3.982100 2.250100
3.995700 2.258800
4.009300 2.287100
4.022900 2.345300
4.036500 2.302200
4.050100 2.212700
4.063700 2.109000
4.077400 2.076000
4.091000 1.961300
4.104600 1.892200
4.118200 1.819800
4.131800 1.754900
4.145400 1.732500
4.159000 1.708500
4.172600 1.660000
4.186200 1.642000
4.199800 1.626000
4.213400 1.611700
4.227000 1.616400
4.240700 1.614000
4.254300 1.596200
4.267900 1.571500
4.281500 1.556200
4.295100 1.555900
4.308700 1.547600
4.322300 1.533900
4.335900 1.540700
4.349500 1.492900
4.363100 1.429100
4.376700 1.444400
4.390400 1.519100
4.404000 1.618100
4.417600 1.633600
4.431200 1.653400
4.444800 1.677600
4.458400 1.704700
4.472000 1.743300
4.485600 1.797600
4.499200 1.864400
4.512800 1.919500
4.526400 1.980400
4.540000 2.034500
4.553700 2.180600
4.567300 2.302400
4.580900 2.205300
4.594500 2.090100
4.608100 2.116400
4.621700 2.054700
4.635300 2.049000
4.648900 2.032400
4.662500 2.049700
4.676100 2.206500
4.689700 2.531200
4.703300 2.736100
4.717000 2.746500
4.730600 2.785700
4.744200 2.896900
4.757800 3.312700
4.771400 3.008300
4.785000 2.756300
4.798600 2.289500
4.812200 1.766600
4.825800 1.593600
4.839400 1.519400
4.853000 1.464200
4.866700 1.416900
4.880300 1.386900
4.893900 1.395800
4.907500 1.510000
4.921100 1.696800
4.934700 1.874300
4.948300 2.067600
4.961900 2.492500
4.975500 1.941100
4.989100 2.030400
5.002700 2.117000
5.016300 2.586300
5.030000 2.980600
5.043600 2.857900
5.057200 2.945400
5.070800 3.088100
5.084400 3.219800
5.098000 3.294800
5.111600 3.402300
5.125200 3.562200
5.138800 3.648800
5.152400 3.694500
5.166000 3.724300
5.179600 3.737800
5.193300 3.733600
5.206900 3.683200
5.220500 3.641700
5.234100 3.608600
5.247700 3.578500
5.261300 3.619800
5.274900 3.750600
5.288500 3.861600
5.302100 3.939000
5.315700 3.994100
5.329300 3.853600
5.342900 3.542700
5.356600 3.222500
5.370200 3.021300
5.383800 2.884600
5.397400 2.766800
5.411000 2.670700
5.424600 2.581900
5.438200 2.496400
5.451800 2.422400
5.465400 2.389900
5.479000 2.324200
5.492600 2.413400
5.506300 2.551300
5.519900 2.426000
5.533500 2.323800
5.547100 2.273300
5.560700 2.156700
5.574300 2.011400
5.587900 1.844200
5.601500 1.771500
5.615100 1.732000
5.628700 1.711100
5.642300 1.717700
5.655900 1.763800
5.669600 1.827100
5.683200 1.895900
5.696800 1.978800
5.710400 2.069200
5.724000 2.109900
5.737600 2.329800
5.751200 2.140800
5.764800 2.055300
5.778400 1.988400
5.792000 1.962700
5.805600 1.982300
5.819200 2.209600
5.832900 2.431300
5.846500 2.404800
5.860100 2.387600
5.873700 2.366900
5.887300 2.355700
5.900900 2.372100
5.914500 2.420800
5.928100 2.590100
5.941700 2.801100
5.955300 2.787300
5.968900 2.784400
5.982500 2.828600
5.996200 2.898700
6.009800 3.067900
6.023400 3.119600
6.037000 3.166000
6.050600 3.200100
6.064200 3.240500
6.077800 3.308000
6.091400 3.423000
6.105000 3.597700
6.118600 3.715700
6.132200 3.490700
6.145900 3.423400
6.159500 3.347800
6.173100 3.247600
6.186700 3.174200
6.200300 3.122700
6.213900 3.070400
6.227500 3.017100
6.241100 2.989000
6.254700 2.976200
6.268300 2.984800
6.281900 3.016500
6.295500 3.046900
6.309200 3.028100
6.322800 3.039000
6.336400 3.052300
6.350000 3.062200
6.363600 3.081800
6.377200 3.094700
6.390800 3.090200
6.404400 3.056000
6.418000 3.060900
6.431600 3.183900
6.445200 3.056500
6.458800 2.966200
6.472500 2.881300
6.486100 2.768500
6.499700 2.648100
6.513300 2.561200
6.526900 2.538000
6.540500 2.496000
6.554100 2.467800
6.567700 2.452800
6.581300 2.442500
6.594900 2.455300
6.608500 2.455900
6.622200 2.449200
6.635800 2.448700
6.649400 2.454600
6.663000 2.459500
6.676600 2.431200
6.690200 2.403300
6.703800 2.376300
6.717400 2.372900
6.731000 2.388000
6.744600 2.402000
6.758200 2.380100
6.771800 2.355400
6.785500 2.364300
6.799100 2.345700
6.812700 2.341300
6.826300 2.330000
6.839900 2.316000
6.853500 2.291500
6.867100 2.208900
6.880700 2.210100
6.894300 2.216600
6.907900 2.243600
6.921500 2.358100
6.935100 2.474100
6.948800 2.527900
6.962400 2.605500
6.976000 2.743200
6.989600 2.425400
7.003200 2.283100
7.016800 2.156600
7.030400 2.067100
7.044000 2.066400
7.057600 2.062300
7.071200 2.060100
7.084800 2.059800
7.098400 2.061500
7.112100 2.056400
7.125700 2.047900
7.139300 2.042300
7.152900 2.041000
7.166500 1.997900
7.180100 2.011100
7.193700 2.016600
7.207300 2.023800
7.220900 2.032200
7.234500 2.042800
7.248100 2.052500
7.261800 2.063800
7.275400 2.088600
7.289000 2.109300
7.302600 2.139000
7.316200 2.249600
7.329800 2.344900
7.343400 2.428800
7.357000 2.495600
7.370600 2.519600
7.384200 2.529200
7.397800 2.541200
7.411400 2.553600
7.425100 2.564900
7.438700 2.608700
7.452300 2.614000
7.465900 2.563100
7.479500 2.533700
7.493100 2.507800
7.506700 2.456200
7.520300 2.437500
7.533900 2.423900
7.547500 2.411300
7.561100 2.403700
7.574700 2.408400
7.588400 2.445500
7.602000 2.471600
7.615600 2.532100
7.629200 2.580100
7.642800 2.608500
7.656400 2.635900
7.670000 2.667300
7.683600 2.704400
7.697200 2.894900
7.710800 2.699200
7.724400 2.655900
7.738100 2.619500
7.751700 2.583300
7.765300 2.550100
7.778900 2.532200
7.792500 2.515800
7.806100 2.511000
7.819700 2.498300
7.833300 2.488100
7.846900 2.458700
7.860500 2.434100
7.874100 2.430100
7.887700 2.436700
7.901400 2.441200
7.915000 2.452400
7.928600 2.459500
7.942200 2.479100
7.955800 2.482600
7.969400 2.480600
7.983000 2.477500
7.996600 2.475300
8.010200 2.470900
8.023800 2.467400
8.037400 2.463400
8.051000 2.455900
8.064700 2.451900
8.078300 2.454400
8.091900 2.460700
8.105500 2.459700
8.119100 2.471100
8.132700 2.469900
8.146300 2.477600
8.159900 2.482400
8.173500 2.485800
8.187100 2.488000
8.200700 2.488900
8.214300 2.488000
8.228000 2.438800
8.241600 2.465300
8.255200 2.498600
8.268800 2.554800
8.282400 2.617600
8.296000 2.646000
8.309600 2.673600
8.323200 2.720800
8.336800 2.844100
8.350400 2.950000
8.364000 2.999600
8.377700 2.989500
8.391300 2.877500
8.404900 2.852000
8.418500 2.865500
8.432100 2.890200
8.445700 2.920000
8.459300 2.975800
8.472900 3.053800
8.486500 3.154900
8.500100 3.173200
8.513700 3.144600
8.527300 3.175400
8.541000 3.212600
8.554600 3.263200
8.568200 3.318500
8.581800 3.387500
8.595400 3.485300
8.609000 3.586100
8.622600 3.644600
8.636200 3.621200
8.649800 3.657000
8.663400 3.662500
8.677000 3.675600
8.690600 3.628300
8.704300 3.562100
8.717900 3.540300
8.731500 3.797400
8.745100 3.583200
8.758700 3.390100
8.772300 3.073700
8.785900 2.744900
8.799500 2.509900
8.813100 2.490000
8.826700 2.487400
8.840300 2.499400
8.854000 2.526800
8.867600 2.569100
8.881200 2.622900
8.894800 2.688500
8.908400 2.829300
8.922000 2.998000
8.935600 2.917100
8.949200 3.037100
8.962800 3.207500
8.976400 3.401700
8.990000 3.602500
9.003600 3.612100
9.017300 3.559700
9.030900 3.518800
9.044500 3.496200
9.058100 3.441600
9.071700 3.473800
9.085300 3.456900
9.098900 3.444700
9.112500 3.436400
9.126100 3.431000
9.139700 3.422600
9.153300 3.421400
9.166900 3.417200
9.180600 3.434700
9.194200 3.456800
9.207800 3.479900
9.221400 3.502900
9.235000 3.522500
9.248600 3.528500
9.262200 3.510500
9.275800 3.406400
9.289400 3.365100
9.303000 3.324000
9.316600 3.256200
9.330200 3.187600
9.343900 3.108500
9.357500 2.973500
9.371100 3.098700
9.384700 3.015200
9.398300 2.916000
9.411900 2.867600
9.425500 2.827200
9.439100 2.805800
9.452700 2.814900
9.466300 2.760800
9.479900 2.670700
9.493600 2.597800
9.507200 2.540300
9.520800 2.494300
9.534400 2.457400
9.548000 2.429700
9.561600 2.407800
9.575200 2.383500
9.588800 2.378000
9.602400 2.379300
9.616000 2.387700
9.629600 2.403600
9.643200 2.426000
9.656900 2.454000
9.670500 2.501300
9.684100 2.591600
9.697700 2.649000
9.711300 2.667100
9.724900 2.668300
9.738500 2.695500
9.752100 2.700900
9.765700 2.709900
9.779300 2.731000
9.792900 2.765800
9.806500 2.809500
9.820200 2.854800
9.833800 2.901300
9.847400 3.010300
9.861000 3.126700
9.874600 3.247700
9.888200 3.574500
9.901800 3.748400
9.915400 3.845400
9.929000 3.902800
9.942600 3.994900
9.956200 4.066300
9.969900 4.059400
9.983500 3.982000
9.997100 3.940700
10.010700 3.989900
10.024300 3.990600
10.037900 3.885500
10.051500 3.783600
10.065100 3.721100
10.078700 3.699500
10.092300 3.678700
10.105900 3.646800
10.119500 3.577400
10.133200 3.480200
10.146800 3.401700
10.160400 3.323900
10.174000 3.237900
10.187600 3.171500
10.201200 3.127700
10.214800 3.121800
10.228400 3.114500
10.242000 3.110200
10.255600 3.102300
10.269200 3.092700
10.282800 3.059600
10.296500 3.056400
10.310100 3.061500
10.323700 3.080800
10.337300 3.100200
10.350900 3.119500
10.364500 3.139500
10.378100 3.309600
10.391700 3.423400
10.405300 3.491300
10.418900 3.507000
10.432500 3.550300
10.446100 3.568500
10.459800 3.890500
10.473400 3.865600
10.487000 3.785300
10.500600 3.804700
10.514200 3.862100
10.527800 3.878200
10.541400 3.891500
10.555000 3.906600
10.568600 3.924800
10.582200 3.950300
10.595800 3.980800
10.609500 4.014000
10.623100 4.046600
10.636700 4.089000
10.650300 4.127100
10.663900 4.163000
10.677500 4.295600
10.691100 4.451800
10.704700 4.432700
10.718300 4.311600
10.731900 4.234800
10.745500 4.267800
10.759100 4.287300
10.772800 4.303500
10.786400 4.205900
10.800000 4.022000
10.813600 3.883200
10.827200 3.834200
10.840800 3.931900
10.854400 4.067500
10.868000 4.054900
10.881600 4.030500
10.895200 3.902400
10.908800 3.704900
10.922400 3.619600
10.936100 3.676400
10.949700 3.742600
10.963300 3.598600
10.976900 3.210800
10.990500 3.086300
11.004100 3.071900
11.017700 3.175300
11.031300 3.180100
11.044900 3.276000
11.058500 3.412900
11.072100 3.547600
11.085700 3.708500
11.099400 3.929200
11.113000 4.636400
11.126600 5.120100
11.140200 5.526300
11.153800 5.678400
11.167400 5.183700
11.181000 4.953200
11.194600 4.794300
11.208200 4.713800
11.221800 4.643700
11.235400 4.594300
11.249100 4.585000
11.262700 4.725400
11.276300 5.147100
11.289900 4.974400
11.303500 4.766600
11.317100 4.708900
11.330700 4.685900
11.344300 4.673700
11.357900 4.638800
11.371500 4.649300
11.385100 4.714300
11.398700 4.806400
11.412400 4.863100
11.426000 4.855500
11.439600 4.994400
11.453200 5.160600
11.466800 5.219100
11.480400 4.920600
11.494000 4.528500
11.507600 4.197000
11.521200 3.941100
11.534800 4.006000
11.548400 4.054800
11.562000 4.016900
11.575700 3.933600
11.589300 3.895200
11.602900 3.874100
11.616500 3.828200
11.630100 3.837900
11.643700 3.950700
11.657300 4.084200
11.670900 4.233200
11.684500 4.519200
11.698100 4.677400
11.711700 4.329800
11.725400 4.112700
11.739000 3.839400
11.752600 3.795300
11.766200 3.789400
11.779800 3.773000
11.793400 3.768200
11.807000 3.775000
11.820600 3.874900
11.834200 3.687400
11.847800 3.476800
11.861400 3.444400
11.875000 3.396200
11.888700 3.687300
11.902300 3.312300
11.915900 3.277100
11.929500 3.243300
11.943100 3.208700
11.956700 3.209800
11.970300 3.563800
11.983900 3.892700
11.997500 3.381100
12.011100 3.241800
12.024700 3.275400
12.038300 3.348900
12.052000 3.383600
12.065600 3.304900
12.079200 3.222900
12.092800 3.148200
12.106400 3.042000
12.120000 2.986500
12.133600 3.129000
12.147200 3.166700
12.160800 3.198600
12.174400 3.224300
12.188000 3.229600
12.201600 3.208800
12.215300 3.184800
12.228900 3.151400
12.242500 3.173200
12.256100 3.056600
12.269700 3.029200
12.283300 3.035400
12.296900 3.149400
12.310500 3.275900
12.324100 3.409400
12.337700 3.266800
12.351300 3.153400
12.365000 3.182400
12.378600 3.142400
12.392200 3.172600
12.405800 3.084700
12.419400 3.094300
12.433000 3.174300
12.446600 3.326100
12.460200 3.369400
12.473800 3.242100
12.487400 2.990100
12.501000 2.723100
12.514600 2.489300
12.528300 2.372900
12.541900 2.249900
12.555500 2.131900
12.569100 2.020100
12.582700 1.968200
12.596300 1.908800
12.609900 1.830700
12.623500 1.754500
12.637100 1.692800
12.650700 1.640800
12.664300 1.588500
12.677900 1.480600
12.691600 1.380200
12.705200 1.302200
12.718800 1.240100
12.732400 1.206300
12.746000 1.198800
12.759600 1.199300
12.773200 1.204600
12.786800 1.213200
12.800400 1.234000
12.814000 1.262700
12.827600 1.292900
12.841300 1.324300
12.854900 1.371400
12.868500 1.432400
12.882100 1.499400
12.895700 1.568500
12.909300 1.639400
12.922900 1.716300
12.936500 1.829500
12.950100 1.923400
12.963700 2.059100
12.977300 2.339000
12.990900 2.254900
13.004600 2.354200
13.018200 2.519200
13.031800 2.667000
13.045400 2.772800
13.059000 2.860900
13.072600 2.979900
13.086200 2.950100
13.099800 2.881500
13.113400 2.807300
13.127000 2.784800
13.140600 2.811200
13.154200 2.878600
13.167900 2.934800
13.181500 2.979600
13.195100 3.012800
13.208700 3.040400
13.222300 3.054400
13.235900 2.942600
13.249500 3.257300
13.263100 3.253500
13.276700 3.315800
13.290300 3.364000
13.303900 3.276600
13.317500 3.221800
13.331200 3.185300
13.344800 3.164500
13.358400 3.125900
13.372000 3.151700
13.385600 3.191900
13.399200 3.252500
13.412800 3.291300
13.426400 3.358000
13.440000 3.444800
13.453600 3.464000
13.467200 3.336000
13.480900 3.317800
13.494500 3.439000
13.508100 3.604200
13.521700 3.609100
13.535300 3.617500
13.548900 3.625000
13.562500 3.642600
13.576100 3.693500
13.589700 3.748300
13.603300 3.766700
13.616900 3.835400
13.630500 3.969300
13.644200 4.116900
13.657800 4.475500
13.671400 4.642700
13.685000 4.494200
13.698600 4.257400
13.712200 4.195000
13.725800 4.133300
13.739400 4.085600
13.753000 4.031700
13.766600 3.999000
13.780200 3.963900
13.793800 3.924200
13.807500 3.879500
13.821100 3.828900
13.834700 3.761500
13.848300 3.670400
13.861900 3.618000
13.875500 3.610700
13.889100 3.616600
13.902700 3.618900
13.916300 3.625200
13.929900 3.630200
13.943500 3.616900
13.957200 3.613400
13.970800 3.618600
13.984400 3.630700
13.998000 3.637600
14.011600 3.655000
14.025200 3.565600
14.038800 3.539000
14.052400 3.549200
14.066000 3.568000
14.079600 3.570600
14.093200 3.584900
14.106800 3.570000
14.120500 3.543300
14.134100 3.506500
14.147700 3.469900
14.161300 3.452000
14.174900 3.366700
14.188500 3.315800
14.202100 3.273200
14.215700 3.195100
14.229300 3.065500
14.242900 3.010600
14.256500 2.930200
14.270100 2.880300
14.283800 2.841000
14.297400 2.819700
14.311000 2.811900
14.324600 2.785300
14.338200 2.777400
14.351800 2.783600
14.365400 2.900800
14.379000 2.825500
14.392600 2.850800
14.406200 2.874600
14.419800 2.890600
14.433400 2.912200
14.447100 2.939100
14.460700 2.991600
14.474300 3.065300
14.487900 3.075200
14.501500 3.135900
14.515100 3.195400
14.528700 3.261700
14.542300 3.323700
14.555900 3.375900
14.569500 3.401300
14.583100 3.410900
14.596800 3.399200
14.610400 3.384700
14.624000 3.360900
14.637600 3.374500
14.651200 3.350100
14.664800 3.305900
14.678400 3.230800
14.692000 3.178800
14.705600 3.136400
14.719200 3.100100
14.732800 3.065800
14.746400 3.031700
14.760100 3.014800
14.773700 2.982500
14.787300 2.956800
14.800900 2.933600
14.814500 2.915400
14.828100 2.880800
14.841700 2.951800
14.855300 3.064400
14.868900 3.088500
14.882500 3.040900
14.896100 2.939600
14.909700 2.823300
14.923400 2.726100
14.937000 2.703200
14.950600 2.681300
14.964200 2.664000
14.977800 2.652100
14.991400 2.645400
15.005000 2.764000
15.018600 2.864100
15.032200 2.737500
15.045800 2.632100
15.059400 2.572900
15.073100 2.564300
15.086700 2.532500
15.100300 2.518300
15.113900 2.541000
15.127500 2.532400
15.141100 2.530900
15.154700 2.529200
15.168300 2.546000
15.181900 2.575800
15.195500 2.603200
15.209100 2.621100
15.222700 2.637400
15.236400 2.690200
15.250000 2.768300
15.263600 2.783700
15.277200 2.799200
15.290800 2.804800
15.304400 2.814700
15.318000 2.829700
15.331600 2.856700
15.345200 2.885200
15.358800 2.931300
15.372400 2.993800
15.386000 3.068500
15.399700 3.160700
15.413300 3.213600
15.426900 3.257000
15.440500 3.314400
15.454100 3.373800
15.467700 3.400200
15.481300 3.553700
15.494900 3.825500
15.508500 3.734900
15.522100 3.742900
15.535700 3.762100
15.549300 3.840900
15.563000 3.930900
15.576600 4.055800
15.590200 4.219900
15.603800 4.330600
15.617400 3.996500
15.631000 3.836500
15.644600 3.745800
15.658200 3.692800
15.671800 3.632200
15.685400 3.617800
15.699000 3.613000
15.712700 3.618600
15.726300 3.635100
15.739900 3.676700
15.753500 3.454700
15.767100 3.465200
15.780700 3.509300
15.794300 3.586000
15.807900 3.787700
15.821500 3.807000
15.835100 3.852100
15.848700 3.886200
15.862300 3.914000
15.876000 3.925100
15.889600 3.964600
15.903200 4.006600
15.916800 4.039500
15.930400 4.037900
15.944000 3.996300
15.957600 3.964900
15.971200 5.002100
15.984800 4.332100
15.998400 4.410300
16.012000 4.339400
16.025600 4.306600
16.039300 4.282000
16.052900 4.579800
16.066500 4.553200
16.080100 4.461500
16.093700 4.427100
16.107300 4.404200
16.120900 4.339500
16.134500 4.257700
16.148100 4.200300
16.161700 4.201900
16.175300 4.204500
16.188900 4.139000
16.202600 4.072700
16.216200 4.099600
16.229800 4.173000
16.243400 4.264300
16.257000 4.259000
16.270600 4.219000
16.284200 4.169500
16.297800 4.378000
16.311400 3.938300
16.325000 3.923900
16.338600 3.902800
16.352300 3.906100
16.365900 3.954500
16.379500 4.025400
16.393100 4.106300
16.406700 4.167100
16.420300 4.179500
16.433900 4.160400
16.447500 4.115700
16.461100 4.058000
16.474700 3.972500
16.488300 3.870500
16.501900 3.837500
16.515600 3.852100
16.529200 3.851500
16.542800 3.866200
16.556400 3.834300
16.570000 3.780100
16.583600 3.706500
16.597200 3.592200
16.610800 3.498100
16.624400 3.413800
16.638000 3.424500
16.651600 3.449500
16.665200 3.484600
16.678900 3.481100
16.692500 3.466600
16.706100 3.421900
16.719700 3.393900
16.733300 3.375500
16.746900 3.363600
16.760500 3.358100
16.774100 3.352700
16.787700 3.344900
16.801300 3.338300
16.814900 3.376900
16.828600 3.398000
16.842200 3.525800
16.855800 3.747400
16.869400 3.846000
16.883000 3.882400
16.896600 3.630400
16.910200 3.386700
16.923800 3.199300
16.937400 3.039400
16.951000 2.930100
16.964600 2.815900
16.978200 2.942500
16.991900 2.882000
17.005500 2.718900
17.019100 2.630600
17.032700 2.587400
17.046300 2.564600
17.059900 2.545100
17.073500 2.516200
17.087100 2.503400
17.100700 2.463700
17.114300 2.348500
17.127900 2.284000
17.141500 2.305800
17.155200 2.166200
17.168800 2.075200
17.182400 2.077200
17.196000 2.004700
17.209600 1.883400
17.223200 1.800300
17.236800 1.741000
17.250400 1.674400
17.264000 1.587700
17.277600 1.550400
17.291200 1.531300
17.304800 1.508400
17.318500 1.485300
17.332100 1.468400
17.345700 1.455600
17.359300 1.444900
17.372900 1.436500
17.386500 1.431200
17.400100 1.432700
17.413700 1.441400
17.427300 1.412500
17.440900 1.418600
17.454500 1.426700
17.468200 1.435700
17.481800 1.442700
17.495400 1.448100
17.509000 1.451800
17.522600 1.454000
17.536200 1.454500
17.549800 1.453200
17.563400 1.449600
17.577000 1.443800
17.590600 1.442200
17.604200 1.443900
17.617800 1.449400
17.631500 1.458700
17.645100 1.472700
17.658700 1.438000
17.672300 1.377400
17.685900 1.314800
17.699500 1.295500
17.713100 1.309200
17.726700 1.289400
17.740300 1.268100
17.753900 1.249300
17.767500 1.227300
17.781100 1.052000
17.794800 0.988300
17.808400 0.950700
17.822000 0.922600
17.835600 0.899900
17.849200 0.882400
17.862800 0.884700
17.876400 0.885900
17.890000 0.884900
17.903600 0.870100
17.917200 0.847700
17.930800 0.824800
17.944500 0.803100
17.958100 0.782200
17.971700 0.762700
17.985300 0.744800
17.998900 0.729300
18.012500 0.710500
18.026100 0.693200
18.039700 0.681400
18.053300 0.669100
18.066900 0.658600
18.080500 0.645700
18.094100 0.630600
18.107800 0.614900
18.121400 0.598600
18.135000 0.581700
18.148600 0.564100
18.162200 0.545900
18.175800 0.527000
18.189400 0.506900
18.203000 0.487100
18.216600 0.468900
18.230200 0.456800
18.243800 0.461800
18.257400 0.446000
18.271100 0.368500
18.284700 0.338800
18.298300 0.330400
18.311900 0.316500
18.325500 0.302200
18.339100 0.287300
18.352700 0.271800
18.366300 0.255800
18.379900 0.239200
18.393500 0.224500
18.407100 0.212600
18.420700 0.208900
18.434400 0.224700
18.448000 0.260300
18.461600 0.165400
18.475200 0.116300
18.488800 0.092200
18.502400 0.070800
18.516000 0.052200
18.529600 0.036500
18.543200 0.023600
18.556800 0.013400
18.570400 0.006200
18.584100 0.001700
18.597700 0.000000
18.611300 0.000000
18.624900 0.000000
18.638500 0.000000
18.652100 0.000000
18.665700 0.000000
18.679300 0.000000
18.692900 0.000000
18.706500 0.000000
18.720100 0.000000
18.733700 0.000000
18.747400 0.000000
18.761000 0.000000
18.774600 0.000000
18.788200 0.000000
18.801800 0.000000
18.815400 0.000000
18.829000 0.000000
18.842600 0.000000
18.856200 0.000000
18.869800 0.000000
18.883400 0.000000
18.897000 0.000000
18.910700 0.000000
18.924300 0.000000
18.937900 0.000000
18.951500 0.000000
18.965100 0.000000
18.978700 0.000000
18.992300 0.000000
19.005900 0.000000
19.019500 0.000000
19.033100 0.000000
19.046700 0.000000
19.060400 0.000000
19.074000 0.000000
19.087600 0.000000
19.101200 0.000000
19.114800 0.000000
19.128400 0.000000
19.142000 0.000000
19.155600 0.000000
19.169200 0.000000
19.182800 0.000000
19.196400 0.000000
19.210000 0.000000
19.223700 0.000000
19.237300 0.000000
19.250900 0.000000
19.264500 0.000000
19.278100 0.000000
19.291700 0.000000
19.305300 0.000000
19.318900 0.000000
19.332500 0.000000
19.346100 0.000000
19.359700 0.000000
19.373300 0.000000
19.387000 0.000000
19.400600 0.000000
19.414200 0.000000
19.427800 0.000000
19.441400 0.000000
19.455000 0.000000
19.468600 0.000000
19.482200 0.000000
19.495800 0.000000
19.509400 0.000000
19.523000 0.000000
19.536600 0.000000
19.550300 0.000000
19.563900 0.000000
19.577500 0.000000
19.591100 0.000000
19.604700 0.000000
19.618300 0.000000
19.631900 0.000000
19.645500 0.000000
19.659100 0.000000
19.672700 0.000000
19.686300 0.000000
19.700000 0.000000
19.713600 0.000000
19.727200 0.000000
19.740800 0.000000
19.754400 0.000000
19.768000 0.000000
19.781600 0.000000
19.795200 0.000000
19.808800 0.000000
19.822400 0.000000
19.836000 0.000000
e
