set title 'mp-1183208 - Density of States'
set xlabel 'Energy (eV)'
set ylabel 'DOS (states/eV)'
set grid
set xrange [-10:10]
set yrange [0:7.053]
set xzeroaxis lt -1
set terminal png size 800,600
set output 'mp-1183208_dos_gnuplot.png'
plot '-' using 1:2 with lines title 'DOS'
-12.526300 0.000000
-12.503300 0.000000
-12.480300 0.000000
-12.457300 0.000000
-12.434400 0.000000
-12.411400 0.000000
-12.388400 0.000000
-12.365400 0.000000
-12.342400 0.000000
-12.319400 0.000000
-12.296400 0.000000
-12.273400 0.000000
-12.250400 0.000000
-12.227500 0.000000
-12.204500 0.000000
-12.181500 0.000000
-12.158500 0.000000
-12.135500 0.000000
-12.112500 0.000000
-12.089500 0.000000
-12.066500 0.000000
-12.043500 0.000000
-12.020600 0.000000
-11.997600 0.000000
-11.974600 0.000000
-11.951600 0.000000
-11.928600 0.000000
-11.905600 0.000000
-11.882600 0.000000
-11.859600 0.000000
-11.836600 0.000000
-11.813600 0.000000
-11.790700 0.000000
-11.767700 0.000000
-11.744700 0.000000
-11.721700 0.000000
-11.698700 0.000000
-11.675700 0.000000
-11.652700 0.000000
-11.629700 0.000000
-11.606700 0.000000
-11.583800 0.000000
-11.560800 0.000000
-11.537800 0.000000
-11.514800 0.000000
-11.491800 0.000000
-11.468800 0.000000
-11.445800 0.000000
-11.422800 0.000000
-11.399800 0.000000
-11.376800 0.000000
-11.353900 0.000000
-11.330900 0.000000
-11.307900 0.000000
-11.284900 0.000000
-11.261900 0.000000
-11.238900 0.000000
-11.215900 0.000000
-11.192900 0.000000
-11.169900 0.000000
-11.147000 0.000000
-11.124000 0.000000
-11.101000 0.000000
-11.078000 0.000000
-11.055000 0.000000
-11.032000 0.000000
-11.009000 0.000000
-10.986000 0.000000
-10.963000 0.000000
-10.940000 0.000000
-10.917100 0.000000
-10.894100 0.000000
-10.871100 0.000000
-10.848100 0.000000
-10.825100 0.000000
-10.802100 0.000000
-10.779100 0.000000
-10.756100 0.000000
-10.733100 0.000000
-10.710200 0.000000
-10.687200 0.000000
-10.664200 0.000000
-10.641200 0.000000
-10.618200 0.000000
-10.595200 0.000000
-10.572200 0.000000
-10.549200 0.000000
-10.526200 0.000000
-10.503200 0.000000
-10.480300 0.000000
-10.457300 0.000000
-10.434300 0.406800
-10.411300 7.863200
-10.388300 16.080800
-10.365300 43.829900
-10.342300 86.311700
-10.319300 83.904800
-10.296300 74.097000
-10.273400 118.780900
-10.250400 92.833900
-10.227400 113.358900
-10.204400 130.750900
-10.181400 133.560500
-10.158400 95.545000
-10.135400 70.302300
-10.112400 93.585400
-10.089400 126.256200
-10.066400 36.749300
-10.043500 31.598200
-10.020500 8.521400
-9.997500 6.411600
-9.974500 5.270400
-9.951500 0.000000
-9.928500 0.000000
-9.905500 0.000000
-9.882500 0.000000
-9.859500 0.000000
-9.836600 0.000000
-9.813600 0.000000
-9.790600 0.000000
-9.767600 0.000000
-9.744600 0.000000
-9.721600 0.000000
-9.698600 0.000000
-9.675600 0.000000
-9.652600 0.000000
-9.629600 0.000000
-9.606700 0.000000
-9.583700 0.000000
-9.560700 0.000000
-9.537700 0.000000
-9.514700 0.000000
-9.491700 0.000000
-9.468700 0.000000
-9.445700 0.000000
-9.422700 0.000000
-9.399800 0.000000
-9.376800 0.000000
-9.353800 0.000000
-9.330800 0.000000
-9.307800 0.000000
-9.284800 0.000000
-9.261800 0.000000
-9.238800 0.000000
-9.215800 0.000000
-9.192800 0.000000
-9.169900 0.000000
-9.146900 0.000000
-9.123900 0.000000
-9.100900 0.000000
-9.077900 0.000000
-9.054900 0.000000
-9.031900 0.000000
-9.008900 0.000000
-8.985900 0.000000
-8.963000 0.000000
-8.940000 0.000000
-8.917000 0.000000
-8.894000 0.000000
-8.871000 0.000000
-8.848000 0.000000
-8.825000 0.000000
-8.802000 0.000000
-8.779000 0.000000
-8.756000 0.000000
-8.733100 0.000000
-8.710100 0.000000
-8.687100 0.000000
-8.664100 0.000000
-8.641100 0.000000
-8.618100 0.000000
-8.595100 0.000000
-8.572100 0.000000
-8.549100 0.000000
-8.526200 0.000000
-8.503200 0.000000
-8.480200 0.000000
-8.457200 0.000000
-8.434200 0.000000
-8.411200 0.000000
-8.388200 0.000000
-8.365200 0.000000
-8.342200 0.000000
-8.319200 0.000000
-8.296300 0.000000
-8.273300 0.000000
-8.250300 0.000000
-8.227300 0.000000
-8.204300 0.000000
-8.181300 0.000000
-8.158300 0.000000
-8.135300 0.000000
-8.112300 0.000000
-8.089400 0.000000
-8.066400 0.000000
-8.043400 0.000000
-8.020400 0.000000
-7.997400 0.000000
-7.974400 0.000000
-7.951400 0.000000
-7.928400 0.000000
-7.905400 0.000000
-7.882400 0.000000
-7.859500 0.000000
-7.836500 0.000000
-7.813500 0.000000
-7.790500 0.000000
-7.767500 0.000000
-7.744500 0.000000
-7.721500 0.000000
-7.698500 0.000000
-7.675500 0.000000
-7.652600 0.000000
-7.629600 0.000000
-7.606600 0.000000
-7.583600 0.000000
-7.560600 0.000000
-7.537600 0.000000
-7.514600 0.000000
-7.491600 0.000000
-7.468600 0.000000
-7.445600 0.000000
-7.422700 0.000000
-7.399700 0.000000
-7.376700 0.000000
-7.353700 0.000000
-7.330700 0.000000
-7.307700 0.000000
-7.284700 0.000000
-7.261700 0.000000
-7.238700 0.000000
-7.215800 0.000000
-7.192800 0.000000
-7.169800 0.000000
-7.146800 0.000000
-7.123800 0.000000
-7.100800 0.000000
-7.077800 0.000000
-7.054800 0.000000
-7.031800 0.000000
-7.008800 0.000000
-6.985900 0.000000
-6.962900 0.000000
-6.939900 0.000000
-6.916900 0.000000
-6.893900 0.000000
-6.870900 0.000000
-6.847900 0.000000
-6.824900 0.000000
-6.801900 0.000000
-6.779000 0.000000
-6.756000 0.000000
-6.733000 0.000000
-6.710000 0.000000
-6.687000 0.000000
-6.664000 0.000000
-6.641000 0.000000
-6.618000 0.000000
-6.595000 0.000000
-6.572000 0.000000
-6.549100 0.000000
-6.526100 0.000000
-6.503100 0.004100
-6.480100 0.026500
-6.457100 0.068200
-6.434100 0.112400
-6.411100 0.145300
-6.388100 0.155100
-6.365100 0.166600
-6.342200 0.180000
-6.319200 0.195400
-6.296200 0.204000
-6.273200 0.217300
-6.250200 0.232700
-6.227200 0.248700
-6.204200 0.264900
-6.181200 0.277500
-6.158200 0.285300
-6.135200 0.289300
-6.112300 0.297300
-6.089300 0.306600
-6.066300 0.314500
-6.043300 0.321100
-6.020300 0.328100
-5.997300 0.334900
-5.974300 0.341800
-5.951300 0.349800
-5.928300 0.358300
-5.905400 0.367000
-5.882400 0.375900
-5.859400 0.385300
-5.836400 0.395300
-5.813400 0.405600
-5.790400 0.413000
-5.767400 0.418800
-5.744400 0.423400
-5.721400 0.427200
-5.698400 0.430900
-5.675500 0.435100
-5.652500 0.440300
-5.629500 0.446000
-5.606500 0.451700
-5.583500 0.457300
-5.560500 0.462900
-5.537500 0.468400
-5.514500 0.473800
-5.491500 0.480000
-5.468600 0.486200
-5.445600 0.492600
-5.422600 0.499400
-5.399600 0.506300
-5.376600 0.513400
-5.353600 0.519700
-5.330600 0.525200
-5.307600 0.531500
-5.284600 0.537900
-5.261600 0.543500
-5.238700 0.548000
-5.215700 0.551300
-5.192700 0.554600
-5.169700 0.558700
-5.146700 0.563200
-5.123700 0.567900
-5.100700 0.572900
-5.077700 0.577900
-5.054700 0.583100
-5.031800 0.588600
-5.008800 0.594300
-4.985800 0.600100
-4.962800 0.605900
-4.939800 0.614500
-4.916800 0.623700
-4.893800 0.632100
-4.870800 0.639600
-4.847800 0.646100
-4.824800 0.652400
-4.801900 0.657800
-4.778900 0.670500
-4.755900 0.679300
-4.732900 0.684200
-4.709900 0.685300
-4.686900 0.682300
-4.663900 0.678400
-4.640900 0.671900
-4.617900 0.672300
-4.595000 0.672900
-4.572000 0.673300
-4.549000 0.673500
-4.526000 0.673400
-4.503000 0.673300
-4.480000 0.673400
-4.457000 0.673600
-4.434000 0.674800
-4.411000 0.676500
-4.388000 0.678800
-4.365100 0.686200
-4.342100 0.704900
-4.319100 0.700700
-4.296100 0.709200
-4.273100 0.718000
-4.250100 0.728600
-4.227100 0.745400
-4.204100 0.768400
-4.181100 0.783100
-4.158200 0.795300
-4.135200 0.805900
-4.112200 0.815800
-4.089200 0.824700
-4.066200 0.832800
-4.043200 0.839700
-4.020200 0.845300
-3.997200 0.872600
-3.974200 0.876700
-3.951200 0.870300
-3.928300 0.859600
-3.905300 0.857300
-3.882300 0.858800
-3.859300 0.859300
-3.836300 0.864300
-3.813300 0.869600
-3.790300 0.875200
-3.767300 0.880800
-3.744300 0.922500
-3.721400 0.977500
-3.698400 0.909800
-3.675400 0.826100
-3.652400 0.786400
-3.629400 0.770900
-3.606400 0.755800
-3.583400 0.741300
-3.560400 0.727100
-3.537400 0.716700
-3.514400 0.708500
-3.491500 0.699500
-3.468500 0.689700
-3.445500 0.706400
-3.422500 0.698000
-3.399500 0.619600
-3.376500 0.618400
-3.353500 0.626600
-3.330500 0.644400
-3.307500 0.666000
-3.284600 0.688700
-3.261600 0.711900
-3.238600 0.735800
-3.215600 0.764200
-3.192600 0.798300
-3.169600 0.824200
-3.146600 0.841100
-3.123600 0.853300
-3.100600 0.869100
-3.077600 0.885200
-3.054700 0.902600
-3.031700 0.916700
-3.008700 0.934200
-2.985700 0.949800
-2.962700 0.963200
-2.939700 0.974000
-2.916700 0.981900
-2.893700 0.976300
-2.870700 0.972100
-2.847800 0.968900
-2.824800 0.955100
-2.801800 0.946000
-2.778800 0.947800
-2.755800 0.953900
-2.732800 0.959300
-2.709800 0.954300
-2.686800 0.948400
-2.663800 0.943400
-2.640900 0.942100
-2.617900 0.940300
-2.594900 0.934500
-2.571900 0.925500
-2.548900 0.918000
-2.525900 0.974700
-2.502900 1.029200
-2.479900 0.930600
-2.456900 0.934400
-2.433900 0.938000
-2.411000 0.941900
-2.388000 0.946700
-2.365000 0.952100
-2.342000 0.957900
-2.319000 0.964200
-2.296000 0.969700
-2.273000 0.975800
-2.250000 0.979800
-2.227000 0.982500
-2.204100 0.987500
-2.181100 0.992200
-2.158100 0.999300
-2.135100 0.986400
-2.112100 0.993400
-2.089100 0.985700
-2.066100 0.992300
-2.043100 1.002200
-2.020100 1.011200
-1.997100 1.017700
-1.974200 1.023100
-1.951200 1.027600
-1.928200 1.031100
-1.905200 1.034400
-1.882200 1.035400
-1.859200 1.039200
-1.836200 1.050200
-1.813200 1.060100
-1.790200 1.065700
-1.767300 1.077500
-1.744300 1.079600
-1.721300 1.081800
-1.698300 1.083800
-1.675300 1.083200
-1.652300 1.081800
-1.629300 1.080000
-1.606300 1.077700
-1.583300 1.075800
-1.560300 1.078800
-1.537400 1.081600
-1.514400 1.098400
-1.491400 1.094400
-1.468400 1.089800
-1.445400 1.085100
-1.422400 1.080400
-1.399400 1.076000
-1.376400 1.071800
-1.353400 1.068000
-1.330500 1.074800
-1.307500 1.082900
-1.284500 1.093100
-1.261500 1.132900
-1.238500 1.137200
-1.215500 1.144100
-1.192500 1.157100
-1.169500 1.167300
-1.146500 1.171200
-1.123500 1.168700
-1.100600 1.165300
-1.077600 1.160900
-1.054600 1.157400
-1.031600 1.159700
-1.008600 1.174300
-0.985600 1.182400
-0.962600 1.134800
-0.939600 1.138300
-0.916600 1.140300
-0.893700 1.143100
-0.870700 1.147800
-0.847700 1.149800
-0.824700 1.148200
-0.801700 1.146900
-0.778700 1.146200
-0.755700 1.146300
-0.732700 1.147000
-0.709700 1.148600
-0.686700 1.150900
-0.663800 1.153900
-0.640800 1.157500
-0.617800 1.162100
-0.594800 1.168200
-0.571800 1.175800
-0.548800 1.185600
-0.525800 1.196500
-0.502800 1.219100
-0.479800 1.230400
-0.456900 1.241700
-0.433900 1.252900
-0.410900 1.265100
-0.387900 1.289400
-0.364900 1.329100
-0.341900 1.314200
-0.318900 1.343300
-0.295900 1.370300
-0.272900 1.396000
-0.249900 1.421000
-0.227000 1.438600
-0.204000 1.403800
-0.181000 1.410000
-0.158000 1.439100
-0.135000 1.461500
-0.112000 1.465800
-0.089000 1.435500
-0.066000 1.416500
-0.043000 1.397300
-0.020100 1.380600
0.002900 1.366700
0.025900 1.352500
0.048900 1.339800
0.071900 1.325900
0.094900 1.313900
0.117900 1.303200
0.140900 1.290300
0.163900 1.274200
0.186900 1.257400
0.209800 1.242400
0.232800 1.286000
0.255800 1.231900
0.278800 1.164900
0.301800 1.128800
0.324800 1.072000
0.347800 1.027000
0.370800 0.990000
0.393800 0.958400
0.416700 0.932200
0.439700 0.900900
0.462700 0.894800
0.485700 0.900900
0.508700 0.901900
0.531700 0.904400
0.554700 0.894700
0.577700 0.906300
0.600700 0.913000
0.623700 0.923200
0.646600 0.934700
0.669600 0.947000
0.692600 0.959700
0.715600 0.978500
0.738600 1.037200
0.761600 1.096700
0.784600 1.158300
0.807600 1.221900
0.830600 1.264300
0.853500 1.279200
0.876500 1.290000
0.899500 1.308500
0.922500 1.334000
0.945500 1.342200
0.968500 1.342400
0.991500 1.337100
1.014500 1.309700
1.037500 1.312500
1.060500 1.317200
1.083400 1.321200
1.106400 1.325700
1.129400 1.355900
1.152400 1.387800
1.175400 1.402800
1.198400 1.403400
1.221400 1.400800
1.244400 1.395700
1.267400 1.407600
1.290300 1.425200
1.313300 1.444000
1.336300 1.642900
1.359300 1.522200
1.382300 1.492900
1.405300 1.465900
1.428300 1.442200
1.451300 1.439700
1.474300 1.457100
1.497300 1.471500
1.520200 1.482400
1.543200 1.480400
1.566200 1.502200
1.589200 1.469500
1.612200 1.442500
1.635200 1.426800
1.658200 1.409400
1.681200 1.375500
1.704200 1.354400
1.727100 1.333400
1.750100 1.318500
1.773100 1.322800
1.796100 1.335300
1.819100 1.350000
1.842100 1.348800
1.865100 1.350800
1.888100 1.365400
1.911100 1.385000
1.934100 1.402400
1.957000 1.345400
1.980000 1.346500
2.003000 1.354000
2.026000 1.364300
2.049000 1.376700
2.072000 1.388000
2.095000 1.399900
2.118000 1.412700
2.141000 1.420200
2.163900 1.422000
2.186900 1.423500
2.209900 1.426500
2.232900 1.449200
2.255900 1.452400
2.278900 1.458400
2.301900 1.467000
2.324900 1.472500
2.347900 1.468100
2.370900 1.472900
2.393800 1.462900
2.416800 1.472700
2.439800 1.484300
2.462800 1.498500
2.485800 1.461200
2.508800 1.449900
2.531800 1.436400
2.554800 1.439500
2.577800 1.440200
2.600700 1.438300
2.623700 1.436400
2.646700 1.410300
2.669700 1.416800
2.692700 1.423300
2.715700 1.402200
2.738700 1.400200
2.761700 1.399900
2.784700 1.416000
2.807700 1.397600
2.830600 1.397900
2.853600 1.398400
2.876600 1.407100
2.899600 1.417500
2.922600 1.432000
2.945600 1.421100
2.968600 1.429600
2.991600 1.438100
3.014600 1.447000
3.037500 1.455500
3.060500 1.461200
3.083500 1.459300
3.106500 1.447000
3.129500 1.447700
3.152500 1.445200
3.175500 1.440200
3.198500 1.436700
3.221500 1.436300
3.244500 1.438200
3.267400 1.448000
3.290400 1.451200
3.313400 1.458600
3.336400 1.467500
3.359400 1.475700
3.382400 1.486700
3.405400 1.506000
3.428400 1.517800
3.451400 1.532200
3.474300 1.545200
3.497300 1.569000
3.520300 1.598600
3.543300 1.635800
3.566300 1.658400
3.589300 1.671500
3.612300 1.677100
3.635300 1.675100
3.658300 1.666500
3.681300 1.671500
3.704200 1.694500
3.727200 1.733800
3.750200 1.710500
3.773200 1.690800
3.796200 1.695700
3.819200 1.693700
3.842200 1.699500
3.865200 1.706900
3.888200 1.713300
3.911100 1.708500
3.934100 1.734500
3.957100 1.753900
3.980100 1.774600
4.003100 1.748300
4.026100 1.705400
4.049100 1.690300
4.072100 1.661400
4.095100 1.634400
4.118100 1.623200
4.141000 1.601700
4.164000 1.581200
4.187000 1.561700
4.210000 1.543500
4.233000 1.527300
4.256000 1.512900
4.279000 1.499700
4.302000 1.487600
4.325000 1.476400
4.347900 1.468200
4.370900 1.465500
4.393900 1.465800
4.416900 1.469100
4.439900 1.474900
4.462900 1.482800
4.485900 1.493200
4.508900 1.507200
4.531900 1.523300
4.554900 1.548700
4.577800 1.582100
4.600800 1.574800
4.623800 1.574200
4.646800 1.579700
4.669800 1.592100
4.692800 1.609500
4.715800 1.631800
4.738800 1.657300
4.761800 1.691300
4.784700 1.728500
4.807700 1.788300
4.830700 1.849400
4.853700 1.905700
4.876700 1.828800
4.899700 1.836700
4.922700 1.820400
4.945700 1.801400
4.968700 1.779400
4.991700 1.756900
5.014600 1.738500
5.037600 1.735500
5.060600 1.738500
5.083600 1.705600
5.106600 1.695300
5.129600 1.675600
5.152600 1.697100
5.175600 1.685500
5.198600 1.680300
5.221500 1.678800
5.244500 1.677000
5.267500 1.676300
5.290500 1.675900
5.313500 1.679400
5.336500 1.683300
5.359500 1.693900
5.382500 1.710400
5.405500 1.722300
5.428500 1.726600
5.451400 1.728200
5.474400 1.718300
5.497400 1.744300
5.520400 1.772100
5.543400 1.786700
5.566400 1.755000
5.589400 1.749500
5.612400 1.741800
5.635400 1.736700
5.658300 1.735100
5.681300 1.749800
5.704300 1.758100
5.727300 1.741500
5.750300 1.713800
5.773300 1.698000
5.796300 1.695000
5.819300 1.695100
5.842300 1.699100
5.865300 1.702700
5.888200 1.706400
5.911200 1.712300
5.934200 1.717700
5.957200 1.721800
5.980200 1.726600
6.003200 1.736200
6.026200 1.746000
6.049200 1.757700
6.072200 1.773900
6.095100 1.792100
6.118100 1.818400
6.141100 1.782900
6.164100 1.780500
6.187100 1.778500
6.210100 1.778200
6.233100 1.768600
6.256100 1.761900
6.279100 1.746700
6.302100 1.696500
6.325000 1.616400
6.348000 1.550900
6.371000 1.510800
6.394000 1.480200
6.417000 1.451100
6.440000 1.421800
6.463000 1.422400
6.486000 1.402200
6.509000 1.390400
6.531900 1.426500
6.554900 1.349200
6.577900 1.347600
6.600900 1.370900
6.623900 1.399000
6.646900 1.426600
6.669900 1.461400
6.692900 1.490300
6.715900 1.515400
6.738800 1.553900
6.761800 1.536000
6.784800 1.561800
6.807800 1.591600
6.830800 1.614800
6.853800 1.666300
6.876800 1.689500
6.899800 1.718500
6.922800 1.747500
6.945800 1.771200
6.968700 1.792000
6.991700 1.854800
7.014700 1.871100
7.037700 1.870600
7.060700 1.889600
7.083700 1.903200
7.106700 1.964300
7.129700 1.950700
7.152700 1.978000
7.175600 2.009700
7.198600 2.077800
7.221600 2.153600
7.244600 2.213200
7.267600 2.244300
7.290600 2.231300
7.313600 2.207300
7.336600 2.194000
7.359600 2.196200
7.382600 2.169900
7.405500 2.132600
7.428500 2.081300
7.451500 2.053800
7.474500 2.050900
7.497500 2.056600
7.520500 2.038600
7.543500 2.039200
7.566500 2.030500
7.589500 2.005400
7.612400 1.997600
7.635400 1.994000
7.658400 1.992400
7.681400 1.993200
7.704400 1.991400
7.727400 1.987000
7.750400 1.984300
7.773400 1.981000
7.796400 1.976600
7.819400 1.964600
7.842300 1.948700
7.865300 1.931900
7.888300 1.912500
7.911300 1.885700
7.934300 1.863500
7.957300 1.850700
7.980300 1.839500
8.003300 1.826800
8.026300 1.813900
8.049200 1.804800
8.072200 1.798300
8.095200 1.800500
8.118200 1.817000
8.141200 1.854700
8.164200 1.966100
8.187200 2.012700
8.210200 2.065600
8.233200 2.098800
8.256200 2.123300
8.279100 2.132800
8.302100 2.132400
8.325100 2.127200
8.348100 2.119300
8.371100 2.115000
8.394100 2.115100
8.417100 2.113400
8.440100 2.113000
8.463100 2.174400
8.486000 2.170400
8.509000 2.155500
8.532000 2.152200
8.555000 2.158300
8.578000 2.155200
8.601000 2.137200
8.624000 2.133100
8.647000 2.123500
8.670000 2.072300
8.693000 2.046700
8.715900 2.020700
8.738900 2.005700
8.761900 1.992000
8.784900 1.969800
8.807900 1.953400
8.830900 1.953600
8.853900 1.960200
8.876900 1.974900
8.899900 1.997500
8.922800 2.024300
8.945800 2.054500
8.968800 2.086400
8.991800 2.119900
9.014800 2.155100
9.037800 2.190900
9.060800 2.190600
9.083800 2.172900
9.106800 2.149500
9.129800 2.131500
9.152700 2.120800
9.175700 2.108700
9.198700 2.082300
9.221700 2.075000
9.244700 2.087800
9.267700 2.099900
9.290700 2.123000
9.313700 2.153400
9.336700 2.172400
9.359600 2.189000
9.382600 2.209800
9.405600 2.239900
9.428600 2.254600
9.451600 2.225400
9.474600 2.202400
9.497600 2.180200
9.520600 2.155900
9.543600 2.124100
9.566600 2.087600
9.589500 2.049200
9.612500 2.166900
9.635500 2.166700
9.658500 2.174700
9.681500 2.206000
9.704500 2.253600
9.727500 2.145600
9.750500 2.088600
9.773500 2.132000
9.796400 2.151700
9.819400 2.077500
9.842400 2.042500
9.865400 2.047300
9.888400 2.065800
9.911400 2.094000
9.934400 2.137900
9.957400 2.194700
9.980400 2.266700
10.003400 2.245500
10.026300 2.229700
10.049300 2.232500
10.072300 2.220900
10.095300 2.225100
10.118300 2.238900
10.141300 2.253200
10.164300 2.268800
10.187300 2.285900
10.210300 2.307500
10.233200 2.322800
10.256200 2.301900
10.279200 2.279300
10.302200 2.266300
10.325200 2.264500
10.348200 2.267900
10.371200 2.257400
10.394200 2.246000
10.417200 2.236500
10.440200 2.230300
10.463100 2.232500
10.486100 2.207100
10.509100 2.210500
10.532100 2.169400
10.555100 2.161300
10.578100 2.152600
10.601100 2.141500
10.624100 2.131300
10.647100 2.118400
10.670000 2.103300
10.693000 2.095000
10.716000 2.097900
10.739000 2.103200
10.762000 2.111100
10.785000 2.126700
10.808000 2.144300
10.831000 2.188200
10.854000 2.222000
10.877000 2.219500
10.899900 2.151200
10.922900 2.145100
10.945900 2.138500
10.968900 2.161100
10.991900 2.122800
11.014900 2.116100
11.037900 2.111000
11.060900 2.103700
11.083900 2.102200
11.106800 2.091700
11.129800 2.188600
11.152800 2.141400
11.175800 2.194000
11.198800 2.210600
11.221800 2.236700
11.244800 2.244100
11.267800 2.236100
11.290800 2.188900
11.313800 2.196400
11.336700 2.194700
11.359700 2.183600
11.382700 2.183400
11.405700 2.181600
11.428700 2.197800
11.451700 2.126800
11.474700 2.092100
11.497700 2.109600
11.520700 2.085000
11.543600 2.057000
11.566600 2.032900
11.589600 2.018600
11.612600 2.012000
11.635600 2.012900
11.658600 2.003800
11.681600 2.002900
11.704600 2.008600
11.727600 2.015100
11.750600 2.022700
11.773500 2.041800
11.796500 2.112300
11.819500 2.165400
11.842500 1.971100
11.865500 1.899500
11.888500 1.871500
11.911500 1.853300
11.934500 1.842700
11.957500 1.834300
11.980400 1.825100
12.003400 1.803800
12.026400 1.782200
12.049400 1.760900
12.072400 1.739600
12.095400 1.798900
12.118400 1.788100
12.141400 1.789300
12.164400 1.778600
12.187400 1.768300
12.210300 1.806200
12.233300 1.844400
12.256300 1.846100
12.279300 1.869900
12.302300 1.898000
12.325300 1.896000
12.348300 1.885400
12.371300 1.883500
12.394300 1.883300
12.417200 1.868900
12.440200 1.862500
12.463200 1.867100
12.486200 1.874400
12.509200 1.885200
12.532200 1.897300
12.555200 1.910800
12.578200 1.926000
12.601200 1.941800
12.624200 1.982200
12.647100 2.098500
12.670100 2.062700
12.693100 2.036700
12.716100 2.037100
12.739100 1.941100
12.762100 1.927700
12.785100 1.919100
12.808100 1.909200
12.831100 1.905900
12.854000 1.916800
12.877000 1.936100
12.900000 1.955500
12.923000 1.976700
12.946000 2.001600
12.969000 2.022900
12.992000 2.040700
13.015000 2.057300
13.038000 2.118100
13.061000 2.122600
13.083900 2.122400
13.106900 2.142800
13.129900 2.180900
13.152900 2.231000
13.175900 2.283000
13.198900 2.344700
13.221900 2.371300
13.244900 2.369300
13.267900 2.398200
13.290800 2.394500
13.313800 2.386200
13.336800 2.354300
13.359800 2.324500
13.382800 2.312600
13.405800 2.302100
13.428800 2.292800
13.451800 2.280100
13.474800 2.262300
13.497800 2.240900
13.520700 2.215600
13.543700 2.133500
13.566700 2.100300
13.589700 2.053600
13.612700 2.001900
13.635700 1.981000
13.658700 1.979100
13.681700 1.998100
13.704700 1.989500
13.727600 1.973000
13.750600 1.958600
13.773600 1.945900
13.796600 1.956200
13.819600 1.930000
13.842600 1.902500
13.865600 1.904400
13.888600 1.884700
13.911600 1.892700
13.934600 1.905200
13.957500 1.936100
13.980500 1.975900
14.003500 2.079100
14.026500 2.068200
14.049500 2.045600
14.072500 2.021800
14.095500 2.020300
14.118500 2.005700
14.141500 2.000400
14.164400 1.993300
14.187400 1.990900
14.210400 1.991900
14.233400 1.991800
14.256400 2.001500
14.279400 2.026200
14.302400 2.060700
14.325400 2.088900
14.348400 2.114300
14.371400 2.138900
14.394300 2.168000
14.417300 2.198200
14.440300 2.267600
14.463300 2.310300
14.486300 2.349600
14.509300 2.385000
14.532300 2.418600
14.555300 2.443800
14.578300 2.468500
14.601200 2.502500
14.624200 2.437100
14.647200 2.321100
14.670200 2.197500
14.693200 2.135000
14.716200 2.083000
14.739200 2.048200
14.762200 2.050100
14.785200 2.011600
14.808200 2.005000
14.831100 2.006300
14.854100 2.011200
14.877100 2.015800
14.900100 2.020400
14.923100 2.026900
14.946100 2.038800
14.969100 2.112700
14.992100 2.116300
15.015100 2.119000
15.038000 2.098300
15.061000 2.066500
15.084000 2.041500
15.107000 2.044000
15.130000 2.050100
15.153000 2.153300
15.176000 2.097100
15.199000 2.147200
15.222000 2.208000
15.245000 2.234800
15.267900 2.244000
15.290900 2.293700
15.313900 2.314800
15.336900 2.315000
15.359900 2.337500
15.382900 2.320100
15.405900 2.253200
15.428900 2.241900
15.451900 2.238200
15.474800 2.246200
15.497800 2.259400
15.520800 2.273500
15.543800 2.334600
15.566800 2.336400
15.589800 2.342500
15.612800 2.349100
15.635800 2.353600
15.658800 2.354000
15.681800 2.366900
15.704700 2.380600
15.727700 2.393300
15.750700 2.393700
15.773700 2.430400
15.796700 2.444300
15.819700 2.475800
15.842700 2.454800
15.865700 2.447000
15.888700 2.447700
15.911600 2.481600
15.934600 2.569900
15.957600 2.664400
15.980600 2.620300
16.003600 2.595200
16.026600 2.613200
16.049600 3.634900
16.072600 2.677100
16.095600 2.622600
16.118500 2.655700
16.141500 2.651400
16.164500 2.615000
16.187500 2.578700
16.210500 2.567900
16.233500 2.566000
16.256500 2.371600
16.279500 2.342700
16.302500 2.326100
16.325500 2.311900
16.348400 2.310700
16.371400 2.350500
16.394400 2.327600
16.417400 2.314500
16.440400 2.296500
16.463400 2.289800
16.486400 2.292100
16.509400 2.303800
16.532400 2.323500
16.555300 2.358200
16.578300 2.369200
16.601300 2.389900
16.624300 2.412300
16.647300 2.528900
16.670300 2.380200
16.693300 2.318900
16.716300 2.308500
16.739300 2.304500
16.762300 2.307800
16.785200 2.319200
16.808200 2.336700
16.831200 2.359300
16.854200 2.373000
16.877200 2.403200
16.900200 2.426700
16.923200 2.429600
16.946200 2.460100
16.969200 2.489500
16.992100 2.504500
17.015100 2.498300
17.038100 2.489100
17.061100 2.487000
17.084100 2.468500
17.107100 2.507600
17.130100 2.582600
17.153100 2.567900
17.176100 2.461600
17.199100 2.383200
17.222000 2.308300
17.245000 2.257400
17.268000 2.223300
17.291000 2.188600
17.314000 2.180600
17.337000 2.157200
17.360000 2.138100
17.383000 2.287500
17.406000 2.248800
17.428900 2.251200
17.451900 2.260600
17.474900 2.263800
17.497900 2.275500
17.520900 2.309300
17.543900 2.347800
17.566900 2.346800
17.589900 2.398700
17.612900 2.443200
17.635900 2.462700
17.658800 2.474400
17.681800 2.481600
17.704800 2.479700
17.727800 2.448500
17.750800 2.488700
17.773800 2.415500
17.796800 2.401900
17.819800 2.404400
17.842800 2.414800
17.865700 2.419800
17.888700 2.426300
17.911700 2.423300
17.934700 2.433000
17.957700 2.457900
17.980700 2.465600
18.003700 2.467800
18.026700 2.445300
18.049700 2.510100
18.072700 2.515800
18.095600 2.545100
18.118600 2.543700
18.141600 2.556900
18.164600 2.576400
18.187600 2.611300
18.210600 2.670500
18.233600 2.709300
18.256600 2.746400
18.279600 2.737200
18.302500 2.700000
18.325500 2.633700
18.348500 2.567100
18.371500 2.502500
18.394500 2.443300
18.417500 2.395000
18.440500 2.371700
18.463500 2.315900
18.486500 2.312000
18.509500 2.336500
18.532400 2.337800
18.555400 2.389900
18.578400 2.411000
18.601400 2.435500
18.624400 2.464600
18.647400 2.498700
18.670400 2.530100
18.693400 2.540500
18.716400 2.551900
18.739300 2.556700
18.762300 2.547600
18.785300 2.527900
18.808300 2.497400
18.831300 2.438100
18.854300 2.394200
18.877300 2.352900
18.900300 2.315700
18.923300 2.446100
18.946300 2.347900
18.969200 2.235300
18.992200 2.211500
19.015200 2.198400
19.038200 2.188500
19.061200 2.177900
19.084200 2.161400
19.107200 2.115800
19.130200 2.072300
19.153200 2.039700
19.176100 2.019600
19.199100 2.007900
19.222100 2.055200
19.245100 2.047900
19.268100 2.132900
19.291100 2.187500
19.314100 2.233500
19.337100 2.272800
19.360100 2.305700
19.383100 2.332600
19.406000 2.353700
19.429000 2.381300
19.452000 2.430300
19.475000 2.459800
19.498000 2.480900
19.521000 2.472500
19.544000 2.461400
19.567000 2.463300
19.590000 2.411000
19.612900 2.363700
19.635900 2.385000
19.658900 2.326700
19.681900 2.247000
19.704900 2.153700
19.727900 2.101600
19.750900 2.095500
19.773900 2.083400
19.796900 2.108900
19.819900 2.112000
19.842800 2.155800
19.865800 2.210000
19.888800 2.281300
19.911800 2.354100
19.934800 2.423400
19.957800 2.499600
19.980800 2.546400
20.003800 2.556000
20.026800 2.556500
20.049700 2.500600
20.072700 2.485600
20.095700 2.363100
20.118700 2.350000
20.141700 2.346400
20.164700 2.353000
20.187700 2.370200
20.210700 2.486000
20.233700 2.406900
20.256700 2.381200
20.279600 2.376100
20.302600 2.513500
20.325600 2.440500
20.348600 2.420600
20.371600 2.384100
20.394600 2.334600
20.417600 2.274900
20.440600 2.241800
20.463600 2.214200
20.486500 2.195100
20.509500 2.176100
20.532500 2.162200
20.555500 2.170600
20.578500 2.173800
20.601500 2.162300
20.624500 2.149800
20.647500 2.149900
20.670500 2.154100
20.693500 2.169100
20.716400 2.217700
20.739400 2.261400
20.762400 2.304000
20.785400 2.345400
20.808400 2.389600
20.831400 2.431800
20.854400 2.479400
20.877400 2.537600
20.900400 2.620500
20.923300 2.698900
20.946300 2.652100
20.969300 2.460500
20.992300 2.315500
21.015300 2.151500
21.038300 2.147800
21.061300 2.218800
21.084300 2.403700
21.107300 2.432200
21.130300 2.466100
21.153200 2.503100
21.176200 2.573700
21.199200 2.589800
21.222200 2.469400
21.245200 2.457600
21.268200 2.556300
21.291200 2.632600
21.314200 2.638100
21.337200 2.693800
21.360100 2.737500
21.383100 2.791600
21.406100 2.746200
21.429100 2.720300
21.452100 2.722000
21.475100 2.725900
21.498100 2.721800
21.521100 2.702800
21.544100 2.693100
21.567100 2.780700
21.590000 2.782000
21.613000 2.937700
21.636000 2.891400
21.659000 2.977000
21.682000 3.065400
21.705000 3.001000
21.728000 2.895100
21.751000 2.854200
21.774000 2.810900
21.796900 2.747600
21.819900 2.691200
21.842900 2.625800
21.865900 2.565000
21.888900 2.543700
21.911900 2.548400
21.934900 2.590300
21.957900 2.602800
21.980900 2.727800
22.003900 2.822600
22.026800 2.819700
22.049800 2.724400
22.072800 2.719300
22.095800 2.731500
22.118800 2.765200
22.141800 2.768200
22.164800 2.750100
22.187800 2.766800
22.210800 2.773000
22.233700 2.790000
22.256700 2.802500
22.279700 2.811900
22.302700 2.838400
22.325700 2.908800
22.348700 2.986500
22.371700 3.001500
22.394700 2.989000
22.417700 2.965300
22.440700 2.975900
22.463600 3.003100
22.486600 3.024100
22.509600 3.049900
22.532600 3.105600
22.555600 3.164600
22.578600 3.154400
22.601600 3.121400
22.624600 3.037200
22.647600 2.901400
22.670500 2.730700
22.693500 2.611000
22.716500 2.549500
22.739500 2.500900
22.762500 2.458500
22.785500 2.479800
22.808500 2.439000
22.831500 2.409000
22.854500 2.386700
22.877500 2.360400
22.900400 2.331900
22.923400 2.348600
22.946400 2.393700
22.969400 2.451600
22.992400 2.530100
23.015400 2.630100
23.038400 2.629100
23.061400 2.617600
23.084400 2.644500
23.107300 2.671700
23.130300 2.706700
23.153300 2.773000
23.176300 2.802700
23.199300 2.768500
23.222300 2.775600
23.245300 2.781800
23.268300 2.806000
23.291300 2.837500
23.314300 2.864800
23.337200 2.912100
23.360200 2.858700
23.383200 2.864700
23.406200 2.829900
23.429200 2.774000
23.452200 2.731500
23.475200 2.695300
23.498200 2.645800
23.521200 2.594300
23.544100 2.562500
23.567100 2.528600
23.590100 2.497700
23.613100 2.536400
23.636100 2.556400
23.659100 2.553700
23.682100 2.572600
23.705100 2.601800
23.728100 2.670000
23.751100 2.803600
23.774000 2.863300
23.797000 2.843600
23.820000 2.725500
23.843000 2.706800
23.866000 2.694900
23.889000 2.675300
23.912000 2.652900
23.935000 2.631800
23.958000 2.609100
23.980900 2.612500
24.003900 2.571800
24.026900 2.503200
24.049900 2.407500
24.072900 2.362300
24.095900 2.310200
24.118900 2.274600
24.141900 2.256900
24.164900 2.256900
24.187900 2.265600
24.210800 2.306600
24.233800 2.369600
24.256800 2.434600
24.279800 2.482900
24.302800 2.517100
24.325800 2.544100
24.348800 2.569900
24.371800 2.600100
24.394800 2.620600
24.417700 2.644200
24.440700 2.682200
24.463700 2.881300
24.486700 2.753700
24.509700 2.739800
24.532700 2.737600
24.555700 2.762400
24.578700 2.819000
24.601700 2.892000
24.624700 2.964200
24.647600 2.992800
24.670600 3.039400
24.693600 3.019400
24.716600 2.988300
24.739600 3.017500
24.762600 2.995100
24.785600 2.938100
24.808600 2.898400
24.831600 2.847900
24.854500 2.765000
24.877500 2.728700
24.900500 2.752500
24.923500 2.787600
24.946500 2.784100
24.969500 2.785100
24.992500 2.826100
25.015500 2.857800
25.038500 2.898100
25.061400 3.042100
25.084400 3.204200
25.107400 3.101200
25.130400 3.139100
25.153400 3.117700
25.176400 3.057200
25.199400 2.986900
25.222400 2.971000
25.245400 2.996400
25.268400 2.919700
25.291300 2.848300
25.314300 2.778800
25.337300 2.703400
25.360300 2.642800
25.383300 2.568200
25.406300 2.516800
25.429300 2.472200
25.452300 2.446800
25.475300 2.425600
25.498200 2.440000
25.521200 2.470100
25.544200 2.440800
25.567200 2.457600
25.590200 2.473700
25.613200 2.482300
25.636200 2.481500
25.659200 2.511600
25.682200 2.574800
25.705200 2.592600
25.728100 2.597800
25.751100 2.600700
25.774100 2.663900
25.797100 2.583600
25.820100 2.649900
25.843100 2.658200
25.866100 2.669200
25.889100 2.673300
25.912100 2.676100
25.935000 2.683800
25.958000 2.695700
25.981000 2.711900
26.004000 2.751700
26.027000 2.688300
26.050000 2.652100
26.073000 2.643800
26.096000 2.741400
26.119000 2.670400
26.142000 2.647400
26.164900 2.644900
26.187900 2.652300
26.210900 2.675900
26.233900 2.769000
26.256900 2.705700
26.279900 2.736200
26.302900 2.811900
26.325900 2.944100
26.348900 2.934900
26.371800 2.934700
26.394800 2.978900
26.417800 3.024500
26.440800 3.052000
26.463800 3.062400
26.486800 3.051400
26.509800 2.945800
26.532800 2.917700
26.555800 2.906800
26.578800 2.885600
26.601700 2.836200
26.624700 2.786500
26.647700 2.730000
26.670700 2.666100
26.693700 2.599400
26.716700 2.577100
26.739700 2.547100
26.762700 2.500600
26.785700 2.538300
26.808600 2.532900
26.831600 2.527800
26.854600 2.514500
26.877600 2.506300
26.900600 2.514800
26.923600 2.569800
26.946600 2.604600
26.969600 2.619900
26.992600 2.625500
27.015600 2.637600
27.038500 2.629100
27.061500 2.602200
27.084500 2.584600
27.107500 2.563300
27.130500 2.540700
27.153500 2.516200
27.176500 2.487200
27.199500 2.489200
27.222500 2.432000
27.245400 2.373800
27.268400 2.377400
27.291400 2.259900
27.314400 2.214700
27.337400 2.165800
27.360400 2.112100
27.383400 2.054300
27.406400 2.024900
27.429400 1.990800
27.452400 1.952700
27.475300 1.911800
27.498300 1.878100
27.521300 1.841600
27.544300 1.804000
27.567300 1.767300
27.590300 1.722000
27.613300 1.686200
27.636300 1.655300
27.659300 1.633400
27.682200 1.615100
27.705200 1.601200
27.728200 1.580900
27.751200 1.550200
27.774200 1.519100
27.797200 1.487900
27.820200 1.467000
27.843200 1.438900
27.866200 1.402200
27.889200 1.357800
27.912100 1.308800
27.935100 1.260700
27.958100 1.222200
27.981100 1.154700
28.004100 1.112000
28.027100 1.085100
28.050100 1.046700
28.073100 0.997500
28.096100 0.956500
28.119000 0.926300
28.142000 0.905000
28.165000 0.889200
28.188000 0.874800
28.211000 0.860900
28.234000 0.847200
28.257000 0.833700
28.280000 0.820700
28.303000 0.807900
28.326000 0.795300
28.348900 0.783100
28.371900 0.771200
28.394900 0.759900
28.417900 0.748600
28.440900 0.752800
28.463900 0.770100
28.486900 0.757900
28.509900 0.722000
28.532900 0.694200
28.555800 0.683600
28.578800 0.674700
28.601800 0.665400
28.624800 0.657800
28.647800 0.653500
28.670800 0.648200
28.693800 0.643200
28.716800 0.638700
28.739800 0.631700
28.762800 0.626700
28.785700 0.619400
28.808700 0.604400
28.831700 0.588800
28.854700 0.573000
28.877700 0.556900
28.900700 0.540600
28.923700 0.524000
28.946700 0.508400
28.969700 0.494400
28.992600 0.480900
29.015600 0.467600
29.038600 0.451200
29.061600 0.440900
29.084600 0.432200
29.107600 0.424000
29.130600 0.416400
29.153600 0.409400
29.176600 0.402900
29.199600 0.408400
29.222500 0.402200
29.245500 0.396200
29.268500 0.390100
29.291500 0.384000
29.314500 0.377900
29.337500 0.371700
29.360500 0.371000
29.383500 0.367700
29.406500 0.364300
29.429400 0.360600
29.452400 0.356600
29.475400 0.350400
29.498400 0.342200
29.521400 0.333500
29.544400 0.324100
29.567400 0.313900
29.590400 0.302800
29.613400 0.290400
29.636400 0.278600
29.659300 0.276600
29.682300 0.252300
29.705300 0.229000
29.728300 0.220200
29.751300 0.213100
29.774300 0.206400
29.797300 0.206000
29.820300 0.206100
29.843300 0.206400
29.866200 0.207000
29.889200 0.207800
29.912200 0.208800
29.935200 0.210000
29.958200 0.217100
29.981200 0.215100
30.004200 0.213200
30.027200 0.211500
30.050200 0.209900
30.073200 0.228400
30.096100 0.212300
30.119100 0.168000
30.142100 0.129500
30.165100 0.108000
30.188100 0.094800
30.211100 0.086800
30.234100 0.077700
30.257100 0.067300
30.280100 0.055700
30.303000 0.042800
30.326000 0.029500
30.349000 0.020700
30.372000 0.016100
30.395000 0.015400
30.418000 0.014800
30.441000 0.014200
30.464000 0.013700
30.487000 0.013100
30.510000 0.012500
30.532900 0.012000
30.555900 0.011400
30.578900 0.010900
30.601900 0.010400
30.624900 0.009900
30.647900 0.009400
30.670900 0.008900
30.693900 0.008500
30.716900 0.008000
30.739800 0.007600
30.762800 0.007100
30.785800 0.006700
30.808800 0.006300
30.831800 0.005900
30.854800 0.005500
30.877800 0.005200
30.900800 0.004800
30.923800 0.004500
30.946800 0.004100
30.969700 0.003800
30.992700 0.003500
31.015700 0.003200
31.038700 0.002900
31.061700 0.002600
31.084700 0.002300
31.107700 0.002100
31.130700 0.001800
31.153700 0.001600
31.176600 0.001400
31.199600 0.001200
31.222600 0.001000
31.245600 0.000800
31.268600 0.000600
31.291600 0.000400
31.314600 0.000300
31.337600 0.000100
31.360600 0.000000
31.383600 0.000000
31.406500 0.000000
31.429500 0.000000
31.452500 0.000000
31.475500 0.000000
31.498500 0.000000
31.521500 0.000000
31.544500 0.000000
31.567500 0.000000
31.590500 0.000000
31.613400 0.000000
31.636400 0.000000
31.659400 0.000000
31.682400 0.000000
31.705400 0.000000
31.728400 0.000000
31.751400 0.000000
31.774400 0.000000
31.797400 0.000000
31.820400 0.000000
31.843300 0.000000
31.866300 0.000000
31.889300 0.000000
31.912300 0.000000
31.935300 0.000000
31.958300 0.000000
31.981300 0.000000
32.004300 0.000000
32.027300 0.000000
32.050200 0.000000
32.073200 0.000000
32.096200 0.000000
32.119200 0.000000
32.142200 0.000000
32.165200 0.000000
32.188200 0.000000
32.211200 0.000000
32.234200 0.000000
32.257200 0.000000
32.280100 0.000000
32.303100 0.000000
32.326100 0.000000
32.349100 0.000000
32.372100 0.000000
32.395100 0.000000
32.418100 0.000000
32.441100 0.000000
32.464100 0.000000
32.487000 0.000000
32.510000 0.000000
32.533000 0.000000
32.556000 0.000000
32.579000 0.000000
32.602000 0.000000
32.625000 0.000000
32.648000 0.000000
32.671000 0.000000
32.694000 0.000000
32.716900 0.000000
32.739900 0.000000
32.762900 0.000000
32.785900 0.000000
32.808900 0.000000
32.831900 0.000000
32.854900 0.000000
32.877900 0.000000
32.900900 0.000000
32.923800 0.000000
32.946800 0.000000
32.969800 0.000000
32.992800 0.000000
33.015800 0.000000
33.038800 0.000000
33.061800 0.000000
33.084800 0.000000
33.107800 0.000000
33.130800 0.000000
33.153700 0.000000
33.176700 0.000000
33.199700 0.000000
33.222700 0.000000
33.245700 0.000000
33.268700 0.000000
33.291700 0.000000
33.314700 0.000000
33.337700 0.000000
33.360600 0.000000
33.383600 0.000000
33.406600 0.000000
33.429600 0.000000
33.452600 0.000000
e
