set title 'mp-13363 - Density of States'
set xlabel 'Energy (eV)'
set ylabel 'DOS (states/eV)'
set grid
set xrange [-10:10]
set yrange [0:17.840]
set xzeroaxis lt -1
set terminal png size 800,600
set output 'mp-13363_dos_gnuplot.png'
plot '-' using 1:2 with lines title 'DOS'
-5.467800 0.000000
-5.447800 0.000000
-5.427700 0.000000
-5.407600 0.000000
-5.387500 0.000000
-5.367400 0.000000
-5.347300 0.000000
-5.327200 0.000000
-5.307100 0.000000
-5.287000 0.000000
-5.266900 0.000000
-5.246800 0.000000
-5.226700 0.000000
-5.206600 0.000000
-5.186500 0.000000
-5.166400 0.000000
-5.146300 0.000000
-5.126200 0.000000
-5.106100 0.000000
-5.086100 0.000000
-5.066000 0.000000
-5.045900 0.000000
-5.025800 0.000000
-5.005700 0.000000
-4.985600 0.000000
-4.965500 0.000000
-4.945400 0.000000
-4.925300 0.000000
-4.905200 0.000000
-4.885100 0.000000
-4.865000 0.000000
-4.844900 0.000000
-4.824800 0.000000
-4.804700 0.000000
-4.784600 0.000000
-4.764500 0.000000
-4.744400 0.000000
-4.724300 0.000000
-4.704300 0.000000
-4.684200 0.000000
-4.664100 0.000000
-4.644000 0.000000
-4.623900 0.000000
-4.603800 0.000000
-4.583700 0.000000
-4.563600 0.000000
-4.543500 0.000000
-4.523400 0.000000
-4.503300 0.000000
-4.483200 0.000000
-4.463100 0.000000
-4.443000 0.000000
-4.422900 0.000000
-4.402800 0.000000
-4.382700 0.000000
-4.362600 0.000000
-4.342500 0.000000
-4.322500 0.000000
-4.302400 0.000000
-4.282300 0.000000
-4.262200 0.000000
-4.242100 0.000000
-4.222000 0.000000
-4.201900 0.000000
-4.181800 0.000000
-4.161700 0.000000
-4.141600 0.000000
-4.121500 0.000000
-4.101400 0.000000
-4.081300 0.000000
-4.061200 0.000000
-4.041100 0.000000
-4.021000 0.000000
-4.000900 0.000000
-3.980800 0.000000
-3.960700 0.000000
-3.940700 0.000000
-3.920600 0.000000
-3.900500 0.000000
-3.880400 0.000000
-3.860300 0.000000
-3.840200 0.000000
-3.820100 0.000000
-3.800000 0.000000
-3.779900 0.000000
-3.759800 0.000000
-3.739700 0.000000
-3.719600 0.000000
-3.699500 0.000000
-3.679400 0.000000
-3.659300 0.000000
-3.639200 0.019400
-3.619100 0.096100
-3.599000 0.142100
-3.579000 0.184500
-3.558900 0.217100
-3.538800 0.242100
-3.518700 0.265800
-3.498600 0.283600
-3.478500 0.309200
-3.458400 0.335200
-3.438300 0.355700
-3.418200 0.360000
-3.398100 0.379500
-3.378000 0.399900
-3.357900 0.421000
-3.337800 0.443000
-3.317700 0.460900
-3.297600 0.471900
-3.277500 0.484900
-3.257400 0.499300
-3.237300 0.517400
-3.217200 0.536500
-3.197200 0.553600
-3.177100 0.568700
-3.157000 0.581700
-3.136900 0.595400
-3.116800 0.610500
-3.096700 0.626300
-3.076600 0.642500
-3.056500 0.659100
-3.036400 0.676800
-3.016300 0.692200
-2.996200 0.707400
-2.976100 0.723100
-2.956000 0.740100
-2.935900 0.757300
-2.915800 0.775200
-2.895700 0.793200
-2.875600 0.808500
-2.855500 0.824800
-2.835400 0.841200
-2.815400 0.858000
-2.795300 0.877100
-2.775200 0.897000
-2.755100 0.917800
-2.735000 0.939600
-2.714900 0.961100
-2.694800 0.983100
-2.674700 1.005100
-2.654600 1.026500
-2.634500 1.049300
-2.614400 1.072700
-2.594300 1.097300
-2.574200 1.124400
-2.554100 1.156900
-2.534000 1.192200
-2.513900 1.231300
-2.493800 1.275100
-2.473700 1.320900
-2.453600 1.372800
-2.433600 1.437700
-2.413500 1.513600
-2.393400 1.580200
-2.373300 1.627900
-2.353200 1.655200
-2.333100 1.692600
-2.313000 1.747100
-2.292900 1.779000
-2.272800 1.831600
-2.252700 1.885100
-2.232600 1.916300
-2.212500 1.962400
-2.192400 2.041000
-2.172300 2.027800
-2.152200 2.113300
-2.132100 2.150800
-2.112000 2.207100
-2.091900 2.188700
-2.071900 2.179800
-2.051800 2.121600
-2.031700 1.993100
-2.011600 1.900600
-1.991500 1.850800
-1.971400 1.796400
-1.951300 1.781900
-1.931200 1.817400
-1.911100 1.730100
-1.891000 1.607700
-1.870900 1.524000
-1.850800 1.233400
-1.830700 0.915100
-1.810600 0.788000
-1.790500 0.682000
-1.770400 0.655100
-1.750300 0.564700
-1.730200 0.532800
-1.710100 0.532100
-1.690100 0.560900
-1.670000 0.679100
-1.649900 0.894900
-1.629800 0.867200
-1.609700 1.014100
-1.589600 1.349600
-1.569500 2.039300
-1.549400 2.843500
-1.529300 3.219700
-1.509200 3.581900
-1.489100 3.713700
-1.469000 4.092200
-1.448900 4.444000
-1.428800 4.598000
-1.408700 5.084700
-1.388600 6.128300
-1.368500 6.123500
-1.348400 6.005300
-1.328300 5.927400
-1.308300 6.173300
-1.288200 6.247200
-1.268100 5.517700
-1.248000 4.242500
-1.227900 2.989900
-1.207800 2.457200
-1.187700 1.184200
-1.167600 1.003200
-1.147500 0.902800
-1.127400 0.789200
-1.107300 0.669900
-1.087200 0.610600
-1.067100 0.531800
-1.047000 0.468900
-1.026900 0.419900
-1.006800 0.371000
-0.986700 0.294700
-0.966600 0.221500
-0.946500 0.160200
-0.926500 0.071800
-0.906400 0.000000
-0.886300 0.000000
-0.866200 0.000000
-0.846100 0.000000
-0.826000 0.000000
-0.805900 0.000000
-0.785800 0.000000
-0.765700 0.000000
-0.745600 0.000000
-0.725500 0.000000
-0.705400 0.000000
-0.685300 0.000000
-0.665200 0.000000
-0.645100 0.000000
-0.625000 0.000000
-0.604900 0.000000
-0.584800 0.000000
-0.564800 0.000000
-0.544700 0.000000
-0.524600 0.000000
-0.504500 0.000000
-0.484400 0.000000
-0.464300 0.000000
-0.444200 0.000000
-0.424100 0.000000
-0.404000 0.000000
-0.383900 0.000000
-0.363800 0.000000
-0.343700 0.000000
-0.323600 0.000000
-0.303500 0.000000
-0.283400 0.000000
-0.263300 0.000000
-0.243200 0.000000
-0.223100 0.000000
-0.203000 0.000000
-0.183000 0.000000
-0.162900 0.000000
-0.142800 0.000000
-0.122700 0.000000
-0.102600 0.000000
-0.082500 0.000000
-0.062400 0.000000
-0.042300 0.000000
-0.022200 0.000000
-0.002100 0.000000
0.018000 0.000200
0.038100 0.048200
0.058200 0.093500
0.078300 0.118000
0.098400 0.133300
0.118500 0.187000
0.138600 0.247400
0.158700 0.374000
0.178800 0.415500
0.198800 0.421700
0.218900 0.461800
0.239000 0.506000
0.259100 0.543400
0.279200 0.581700
0.299300 0.621500
0.319400 0.663000
0.339500 0.707400
0.359600 0.764800
0.379700 0.838000
0.399800 0.973100
0.419900 1.362000
0.440000 1.783000
0.460100 2.149100
0.480200 2.318300
0.500300 2.313000
0.520400 2.301200
0.540500 2.255600
0.560500 2.195200
0.580600 2.156900
0.600700 2.153700
0.620800 2.181900
0.640900 2.606100
0.661000 2.345600
0.681100 2.410100
0.701200 2.490400
0.721300 2.578400
0.741400 2.904400
0.761500 2.899900
0.781600 2.554100
0.801700 2.499800
0.821800 2.647800
0.841900 2.651700
0.862000 2.704600
0.882100 2.770400
0.902200 2.851400
0.922300 2.959900
0.942300 3.090200
0.962400 3.273600
0.982500 3.434100
1.002600 3.697800
1.022700 4.132300
1.042800 4.547600
1.062900 4.506200
1.083000 4.594300
1.103100 4.603900
1.123200 4.678600
1.143300 4.548400
1.163400 4.438800
1.183500 4.270200
1.203600 4.061800
1.223700 3.945700
1.243800 4.112400
1.263900 4.208000
1.284000 4.388900
1.304100 4.695400
1.324100 5.281300
1.344200 5.942600
1.364300 6.406000
1.384400 6.629700
1.404500 6.922300
1.424600 7.115100
1.444700 6.703600
1.464800 6.109600
1.484900 6.029800
1.505000 5.910700
1.525100 5.314300
1.545200 4.749900
1.565300 4.848500
1.585400 4.810700
1.605500 4.878400
1.625600 5.131400
1.645700 4.652500
1.665800 4.475100
1.685900 4.318600
1.705900 4.136500
1.726000 3.939000
1.746100 3.770100
1.766200 3.686200
1.786300 3.740200
1.806400 3.674200
1.826500 3.527400
1.846600 3.489900
1.866700 3.382200
1.886800 3.295400
1.906900 3.417900
1.927000 3.778000
1.947100 4.498500
1.967200 5.460100
1.987300 6.224300
2.007400 6.475600
2.027500 6.409200
2.047600 6.510400
2.067600 6.285500
2.087700 6.501600
2.107800 6.860400
2.127900 6.783600
2.148000 6.952800
2.168100 6.750600
2.188200 5.007100
2.208300 4.633100
2.228400 5.665500
2.248500 6.158600
2.268600 6.402400
2.288700 7.158800
2.308800 10.424900
2.328900 10.786600
2.349000 9.215400
2.369100 8.404200
2.389200 7.987800
2.409300 8.031000
2.429400 8.502900
2.449400 8.521700
2.469500 9.013800
2.489600 9.724700
2.509700 9.564400
2.529800 10.323500
2.549900 10.548300
2.570000 10.924700
2.590100 11.597700
2.610200 10.951600
2.630300 10.455600
2.650400 9.254000
2.670500 8.468700
2.690600 6.854600
2.710700 5.726500
2.730800 5.420600
2.750900 5.849800
2.771000 8.019100
2.791100 9.215900
2.811200 10.464300
2.831200 10.140200
2.851300 9.616200
2.871400 7.662800
2.891500 5.836700
2.911600 4.929900
2.931700 4.808000
2.951800 4.582600
2.971900 5.740600
2.992000 9.238000
3.012100 9.504300
3.032200 9.208700
3.052300 10.246100
3.072400 9.902200
3.092500 9.116600
3.112600 10.016400
3.132700 11.273000
3.152800 10.430300
3.172900 10.167900
3.193000 10.277300
3.213000 11.057900
3.233100 10.294900
3.253200 9.791300
3.273300 8.744800
3.293400 7.764400
3.313500 8.063200
3.333600 9.081600
3.353700 10.989300
3.373800 10.531900
3.393900 9.330100
3.414000 9.332200
3.434100 9.359200
3.454200 10.216300
3.474300 10.849200
3.494400 12.294600
3.514500 11.481200
3.534600 11.378300
3.554700 10.859700
3.574700 11.056400
3.594800 12.540000
3.614900 12.883300
3.635000 11.955100
3.655100 10.441800
3.675200 9.227400
3.695300 9.281300
3.715400 9.491800
3.735500 10.465200
3.755600 10.762300
3.775700 13.341900
3.795800 12.669400
3.815900 12.684800
3.836000 11.199300
3.856100 9.451900
3.876200 10.341900
3.896300 13.343400
3.916400 13.942200
3.936500 12.949600
3.956500 12.136800
3.976600 12.584400
3.996700 12.316400
4.016800 11.395800
4.036900 11.478200
4.057000 10.471900
4.077100 9.611800
4.097200 10.261400
4.117300 11.010500
4.137400 11.683200
4.157500 11.846400
4.177600 12.319800
4.197700 12.594600
4.217800 11.274400
4.237900 11.194600
4.258000 11.601300
4.278100 11.785500
4.298200 12.495500
4.318300 11.041500
4.338300 10.278100
4.358400 10.657100
4.378500 11.887200
4.398600 12.954200
4.418700 13.131700
4.438800 13.414900
4.458900 14.287100
4.479000 12.869100
4.499100 13.092400
4.519200 12.524400
4.539300 12.640100
4.559400 14.167400
4.579500 15.707700
4.599600 16.218600
4.619700 13.515700
4.639800 13.522000
4.659900 13.249900
4.680000 12.527500
4.700100 13.261000
4.720100 13.274800
4.740200 12.517700
4.760300 13.741200
4.780400 15.363000
4.800500 15.081500
4.820600 13.176900
4.840700 11.914800
4.860800 11.062500
4.880900 11.173100
4.901000 11.809000
4.921100 13.548600
4.941200 12.949400
4.961300 10.987600
4.981400 9.928800
5.001500 10.926200
5.021600 10.557500
5.041700 9.831400
5.061800 10.304400
5.081800 9.155600
5.101900 8.634200
5.122000 8.390200
5.142100 8.629300
5.162200 9.037700
5.182300 9.682700
5.202400 10.892900
5.222500 10.533100
5.242600 10.157800
5.262700 9.781500
5.282800 9.624200
5.302900 9.940500
5.323000 9.082300
5.343100 9.084300
5.363200 9.487600
5.383300 9.753600
5.403400 10.275900
5.423500 9.213700
5.443600 9.756200
5.463600 9.807900
5.483700 10.542300
5.503800 10.994100
5.523900 11.439400
5.544000 12.310800
5.564100 12.706900
5.584200 10.775800
5.604300 9.660100
5.624400 9.877700
5.644500 9.916700
5.664600 10.538900
5.684700 12.142300
5.704800 13.083000
5.724900 12.989900
5.745000 11.262700
5.765100 10.189300
5.785200 9.373300
5.805300 9.437900
5.825400 10.753100
5.845400 10.339000
5.865500 11.730500
5.885600 12.298600
5.905700 11.819600
5.925800 12.140900
5.945900 11.550500
5.966000 10.029600
5.986100 9.433000
6.006200 8.362300
6.026300 8.788100
6.046400 9.559000
6.066500 10.050600
6.086600 12.203400
6.106700 12.454300
6.126800 11.767500
6.146900 11.129100
6.167000 9.669500
6.187100 10.183800
6.207200 11.571400
6.227200 13.507300
6.247300 14.368000
6.267400 12.237000
6.287500 11.076700
6.307600 10.363600
6.327700 9.611900
6.347800 9.964000
6.367900 10.913400
6.388000 12.284300
6.408100 12.658100
6.428200 10.991300
6.448300 10.704200
6.468400 10.231900
6.488500 9.601400
6.508600 9.183200
6.528700 7.690100
6.548800 7.179800
6.568900 8.132900
6.588900 7.855100
6.609000 8.328600
6.629100 9.069300
6.649200 9.997000
6.669300 9.053300
6.689400 8.504500
6.709500 8.233800
6.729600 7.832000
6.749700 7.573800
6.769800 8.093400
6.789900 8.645100
6.810000 7.414200
6.830100 6.958000
6.850200 6.535500
6.870300 6.562500
6.890400 7.100400
6.910500 7.305200
6.930600 7.792300
6.950700 8.318500
6.970700 7.813900
6.990800 7.898500
7.010900 7.862800
7.031000 7.044200
7.051100 6.863500
7.071200 6.808400
7.091300 6.919200
7.111400 6.618000
7.131500 6.577000
7.151600 6.540500
7.171700 6.354900
7.191800 5.783600
7.211900 5.815100
7.232000 6.339100
7.252100 6.926400
7.272200 6.600400
7.292300 6.154700
7.312400 5.907800
7.332500 5.851500
7.352500 5.798200
7.372600 5.658400
7.392700 5.336700
7.412800 5.064300
7.432900 4.869500
7.453000 4.889900
7.473100 4.994400
7.493200 5.399300
7.513300 5.230600
7.533400 4.892300
7.553500 7.158600
7.573600 6.859800
7.593700 6.816200
7.613800 6.095900
7.633900 5.542800
7.654000 5.345400
7.674100 5.424900
7.694200 6.006000
7.714300 6.057700
7.734300 6.287800
7.754400 6.377000
7.774500 6.611300
7.794600 6.771800
7.814700 6.869400
7.834800 6.898300
7.854900 6.653500
7.875000 6.333800
7.895100 5.875000
7.915200 5.585800
7.935300 5.555200
7.955400 5.773100
7.975500 5.411300
7.995600 4.737300
8.015700 4.261500
8.035800 3.913000
8.055900 3.545400
8.076000 3.604200
8.096000 2.780400
8.116100 2.423600
8.136200 2.152400
8.156300 1.877600
8.176400 1.711900
8.196500 1.605400
8.216600 1.485500
8.236700 1.329000
8.256800 1.166400
8.276900 1.103400
8.297000 1.024200
8.317100 0.966300
8.337200 0.871600
8.357300 0.891400
8.377400 0.984000
8.397500 1.113800
8.417600 1.234900
8.437700 1.326600
8.457800 1.410500
8.477800 1.586900
8.497900 1.780000
8.518000 1.983700
8.538100 2.207200
8.558200 2.548600
8.578300 2.833100
8.598400 3.050000
8.618500 3.120600
8.638600 3.150300
8.658700 3.263900
8.678800 3.450300
8.698900 3.550800
8.719000 3.623200
8.739100 3.598700
8.759200 3.718500
8.779300 4.135900
8.799400 4.364600
8.819500 4.520700
8.839600 4.619400
8.859600 4.573000
8.879700 4.723100
8.899800 4.398300
8.919900 4.091400
8.940000 3.931400
8.960100 3.717900
8.980200 3.536300
9.000300 3.498300
9.020400 3.458700
9.040500 3.263200
9.060600 3.147200
9.080700 3.010100
9.100800 2.928400
9.120900 2.863200
9.141000 2.767200
9.161100 2.673200
9.181200 2.637000
9.201300 2.678100
9.221300 2.743900
9.241400 2.738000
9.261500 2.691600
9.281600 2.728900
9.301700 2.761700
9.321800 2.735200
9.341900 2.640900
9.362000 2.578600
9.382100 2.559400
9.402200 2.611700
9.422300 2.652900
9.442400 2.706900
9.462500 2.785300
9.482600 2.824800
9.502700 2.927600
9.522800 3.066300
9.542900 3.229300
9.563000 3.473200
9.583100 3.712600
9.603100 4.021900
9.623200 4.457900
9.643300 4.386100
9.663400 4.390900
9.683500 4.311900
9.703600 4.204500
9.723700 4.119800
9.743800 4.048400
9.763900 4.065000
9.784000 4.236400
9.804100 4.297000
9.824200 4.113600
9.844300 3.970200
9.864400 3.810400
9.884500 3.730000
9.904600 3.652200
9.924700 3.550300
9.944800 3.541800
9.964900 3.561000
9.984900 3.551800
10.005000 3.516700
10.025100 3.494100
10.045200 3.497100
10.065300 3.554400
10.085400 3.690200
10.105500 3.802100
10.125600 3.881100
10.145700 3.936500
10.165800 4.088300
10.185900 4.113400
10.206000 4.076500
10.226100 4.059300
10.246200 4.043800
10.266300 4.009000
10.286400 3.848600
10.306500 3.789400
10.326600 3.749200
10.346700 3.663200
10.366700 3.530200
10.386800 3.368300
10.406900 3.216300
10.427000 3.049000
10.447100 2.873000
10.467200 2.736100
10.487300 2.667800
10.507400 2.655800
10.527500 2.648800
10.547600 2.643700
10.567700 2.638400
10.587800 2.638300
10.607900 2.667500
10.628000 2.721000
10.648100 2.800100
10.668200 2.838800
10.688300 2.858200
10.708400 2.862900
10.728400 2.978600
10.748500 3.061300
10.768600 2.977200
10.788700 2.933200
10.808800 2.894700
10.828900 2.881500
10.849000 2.869700
10.869100 2.841900
10.889200 2.790300
10.909300 2.735300
10.929400 2.680600
10.949500 2.629700
10.969600 2.578500
10.989700 2.517600
11.009800 2.466000
11.029900 2.424200
11.050000 2.430800
11.070100 2.458400
11.090200 2.504000
11.110200 2.494100
11.130300 2.442300
11.150400 2.407400
11.170500 2.417800
11.190600 2.380900
11.210700 2.390600
11.230800 2.389400
11.250900 2.362200
11.271000 2.341100
11.291100 2.381800
11.311200 2.348400
11.331300 2.315000
11.351400 2.293300
11.371500 2.287300
11.391600 2.144600
11.411700 2.034800
11.431800 1.986000
11.451900 1.950400
11.472000 1.922300
11.492000 1.885000
11.512100 1.911800
11.532200 1.855800
11.552300 1.846800
11.572400 1.796800
11.592500 1.790200
11.612600 1.839400
11.632700 1.900700
11.652800 1.976100
11.672900 2.070100
11.693000 2.250000
11.713100 2.382500
11.733200 2.638600
11.753300 2.829100
11.773400 2.909200
11.793500 2.954700
11.813600 3.157300
11.833700 3.280600
11.853800 3.262900
11.873800 3.294600
11.893900 3.327600
11.914000 3.489900
11.934100 3.270900
11.954200 3.317700
11.974300 3.344100
11.994400 3.324800
12.014500 3.202900
12.034600 3.160600
12.054700 3.143400
12.074800 3.165500
12.094900 3.190700
12.115000 3.157900
12.135100 3.131700
12.155200 3.104500
12.175300 3.062200
12.195400 3.013300
12.215500 2.962400
12.235500 2.898900
12.255600 2.794600
12.275700 2.669400
12.295800 2.534600
12.315900 2.463000
12.336000 2.397800
12.356100 2.345700
12.376200 2.323000
12.396300 2.328700
12.416400 2.324000
12.436500 2.325500
12.456600 2.332900
12.476700 2.333600
12.496800 2.325500
12.516900 2.334000
12.537000 2.312800
12.557100 2.524400
12.577200 2.540100
12.597300 2.501300
12.617300 2.493200
12.637400 2.484400
12.657500 2.483100
12.677600 2.510200
12.697700 2.562500
12.717800 2.626800
12.737900 2.683200
12.758000 2.817700
12.778100 2.915500
12.798200 2.978500
12.818300 3.052200
12.838400 3.116400
12.858500 3.196700
12.878600 3.281300
12.898700 3.363000
12.918800 3.437000
12.938900 3.498100
12.959000 3.436800
12.979100 3.399200
12.999100 3.421400
13.019200 3.333800
13.039300 3.220900
13.059400 3.142600
13.079500 2.994600
13.099600 2.871600
13.119700 2.776500
13.139800 2.746600
13.159900 2.635400
13.180000 2.549200
13.200100 2.546800
13.220200 2.531600
13.240300 2.505200
13.260400 2.476700
13.280500 2.475700
13.300600 2.493600
13.320700 2.557300
13.340800 2.626600
13.360900 2.684800
13.380900 2.733600
13.401000 2.750200
13.421100 2.757500
13.441200 2.823400
13.461300 2.894500
13.481400 2.985400
13.501500 3.004500
13.521600 3.008500
13.541700 2.984900
13.561800 2.984900
13.581900 2.964800
13.602000 2.960200
13.622100 2.962200
13.642200 2.959100
13.662300 2.923400
13.682400 2.921500
13.702500 2.998400
13.722600 3.100300
13.742600 3.301100
13.762700 3.133000
13.782800 2.871000
13.802900 2.772300
13.823000 2.722400
13.843100 2.680500
13.863200 2.736400
13.883300 2.872100
13.903400 2.939700
13.923500 3.016300
13.943600 3.113900
13.963700 3.265100
13.983800 3.567900
14.003900 3.857700
14.024000 4.172700
14.044100 4.655100
14.064200 4.982200
14.084300 5.209900
14.104400 5.139300
14.124400 4.863600
14.144500 4.488800
14.164600 4.115900
14.184700 3.600100
14.204800 3.126900
14.224900 2.877800
14.245000 2.745800
14.265100 2.642200
14.285200 2.479000
14.305300 2.535000
14.325400 2.652500
14.345500 2.961400
14.365600 3.009900
14.385700 3.131700
14.405800 3.273800
14.425900 3.476700
14.446000 3.648100
14.466100 3.852800
14.486200 3.960400
14.506200 4.036400
14.526300 4.086000
14.546400 4.245200
14.566500 4.386000
14.586600 4.762900
14.606700 4.491900
14.626800 4.389500
14.646900 4.333700
14.667000 4.300200
14.687100 4.304500
14.707200 4.186600
14.727300 4.116800
14.747400 3.878600
14.767500 3.697100
14.787600 3.499900
14.807700 3.372200
14.827800 3.178200
14.847900 2.996500
14.868000 2.929200
14.888000 2.923200
14.908100 2.962000
14.928200 2.919300
14.948300 2.862000
14.968400 2.795500
14.988500 2.691100
15.008600 2.621900
15.028700 2.525500
15.048800 2.503600
15.068900 2.535800
15.089000 2.608000
15.109100 2.610500
15.129200 2.649800
15.149300 2.667300
15.169400 2.626400
15.189500 2.624300
15.209600 2.656400
15.229700 2.715800
15.249700 2.760200
15.269800 2.671600
15.289900 2.600500
15.310000 2.598700
15.330100 2.719000
15.350200 2.702200
15.370300 2.844900
15.390400 2.945300
15.410500 3.045100
15.430600 3.053900
15.450700 3.042300
15.470800 3.154600
15.490900 3.345700
15.511000 3.352800
15.531100 3.415900
15.551200 3.511100
15.571300 3.647100
15.591400 3.743000
15.611500 4.025900
15.631500 4.056500
15.651600 4.103100
15.671700 3.993200
15.691800 4.121000
15.711900 4.032600
15.732000 3.936000
15.752100 3.991100
15.772200 4.232500
15.792300 4.226100
15.812400 3.892200
15.832500 3.582700
15.852600 3.372500
15.872700 3.186200
15.892800 2.982000
15.912900 2.855200
15.933000 2.755200
15.953100 2.643000
15.973200 2.646300
15.993300 2.704000
16.013300 2.962700
16.033400 3.035000
16.053500 3.010300
16.073600 3.057700
16.093700 3.160100
16.113800 3.207200
16.133900 3.258700
16.154000 3.348100
16.174100 3.455600
16.194200 3.506000
16.214300 3.529700
16.234400 3.537300
16.254500 3.531100
16.274600 3.543900
16.294700 3.581600
16.314800 3.621900
16.334900 3.733900
16.355000 3.616400
16.375100 3.598400
16.395100 3.526900
16.415200 3.455600
16.435300 3.392900
16.455400 3.348600
16.475500 3.478500
16.495600 3.486400
16.515700 3.776100
16.535800 3.654400
16.555900 3.685800
16.576000 3.814300
16.596100 4.117200
16.616200 4.282800
16.636300 4.323700
16.656400 4.134600
16.676500 3.870100
16.696600 3.639300
16.716700 3.491900
16.736800 3.400900
16.756800 3.376900
16.776900 3.238200
16.797000 3.257500
16.817100 3.154200
16.837200 2.928800
16.857300 2.900200
16.877400 2.923900
16.897500 3.067000
16.917600 3.249500
16.937700 3.454400
16.957800 3.662600
16.977900 3.717700
16.998000 3.981800
17.018100 4.049400
17.038200 4.049700
17.058300 4.002900
17.078400 3.950000
17.098500 3.896500
17.118600 3.827500
17.138600 3.758000
17.158700 3.706300
17.178800 3.620900
17.198900 3.509200
17.219000 3.384700
17.239100 3.274300
17.259200 3.174600
17.279300 3.137500
17.299400 3.059900
17.319500 2.999900
17.339600 2.958800
17.359700 2.940700
17.379800 2.945200
17.399900 2.961400
17.420000 3.003900
17.440100 3.045400
17.460200 3.084500
17.480300 3.135800
17.500400 3.183200
17.520400 3.198300
17.540500 3.141700
17.560600 3.122500
17.580700 3.113200
17.600800 3.150200
17.620900 3.179400
17.641000 3.181500
17.661100 3.257800
17.681200 3.427100
17.701300 3.542700
17.721400 3.716300
17.741500 3.877700
17.761600 3.919000
17.781700 3.959600
17.801800 4.041200
17.821900 4.101500
17.842000 4.100800
17.862100 4.145700
17.882200 4.165100
17.902200 4.158700
17.922300 4.132000
17.942400 4.085700
17.962500 3.832900
17.982600 3.528400
18.002700 3.348800
18.022800 3.336000
18.042900 3.233600
18.063000 3.156000
18.083100 3.193000
18.103200 3.261700
18.123300 3.357700
18.143400 3.437100
18.163500 3.301400
18.183600 3.153400
18.203700 3.043500
18.223800 2.940200
18.243900 2.874200
18.263900 2.842500
18.284000 2.830500
18.304100 2.840300
18.324200 2.968400
18.344300 3.048400
18.364400 3.162200
18.384500 3.284500
18.404600 3.421300
18.424700 3.592700
18.444800 3.773100
18.464900 3.819600
18.485000 3.706800
18.505100 3.696200
18.525200 3.719000
18.545300 3.799500
18.565400 3.815800
18.585500 3.786100
18.605600 3.794100
18.625700 3.659900
18.645700 3.576600
18.665800 3.532400
18.685900 3.438100
18.706000 3.416900
18.726100 3.450100
18.746200 3.479700
18.766300 3.478000
18.786400 3.478500
18.806500 3.498900
18.826600 3.498800
18.846700 3.649300
18.866800 3.530800
18.886900 3.429800
18.907000 3.425100
18.927100 3.400200
18.947200 3.311700
18.967300 3.201500
18.987400 3.174700
19.007500 3.130800
19.027500 3.133700
19.047600 3.118900
19.067700 3.053300
19.087800 3.139300
19.107900 3.109200
19.128000 3.110500
19.148100 3.157500
19.168200 3.250500
19.188300 3.422900
19.208400 3.595200
19.228500 3.810100
19.248600 3.994400
19.268700 4.177700
19.288800 4.359800
19.308900 4.564400
19.329000 4.662900
19.349100 4.743100
19.369200 4.697000
19.389200 4.591000
19.409300 4.480900
19.429400 4.386300
19.449500 4.296800
19.469600 4.194700
19.489700 4.112200
19.509800 4.060300
19.529900 4.074300
19.550000 4.124100
19.570100 4.244800
19.590200 4.338000
19.610300 4.449600
19.630400 4.518200
19.650500 4.447400
19.670600 4.440500
19.690700 4.428200
19.710800 4.349300
19.730900 4.045400
19.751000 3.920700
19.771000 3.886700
19.791100 3.867300
19.811200 3.849200
19.831300 3.879500
19.851400 3.950000
19.871500 4.065700
19.891600 4.203500
19.911700 4.249700
19.931800 4.217900
19.951900 4.208100
19.972000 4.260800
19.992100 4.331000
20.012200 4.386600
20.032300 4.325700
20.052400 4.320600
20.072500 4.228900
20.092600 4.141900
20.112700 4.086400
20.132800 3.969800
20.152800 3.954700
20.172900 3.870600
20.193000 3.879500
20.213100 4.003900
20.233200 4.018500
20.253300 4.045800
20.273400 4.048500
20.293500 3.949300
20.313600 4.104100
20.333700 4.100400
20.353800 4.023700
20.373900 3.881700
20.394000 3.764300
20.414100 3.698000
20.434200 3.684500
20.454300 3.577100
20.474400 3.501200
20.494500 3.434200
20.514600 3.356200
20.534600 3.289100
20.554700 3.250900
20.574800 3.286800
20.594900 3.279900
20.615000 3.248800
20.635100 3.268200
20.655200 3.241900
20.675300 3.176200
20.695400 3.129200
20.715500 3.076600
20.735600 3.048500
20.755700 3.060500
20.775800 3.111100
20.795900 3.169100
20.816000 3.172100
20.836100 3.269800
20.856200 3.505700
20.876300 3.491300
20.896300 3.583000
20.916400 3.667600
20.936500 3.771300
20.956600 3.877700
20.976700 3.973900
20.996800 3.984200
21.016900 3.960700
21.037000 3.907200
21.057100 3.919900
21.077200 3.945000
21.097300 3.865600
21.117400 3.908200
21.137500 3.709800
21.157600 3.530600
21.177700 3.517400
21.197800 3.475200
21.217900 3.511400
21.238000 3.579500
21.258100 3.747900
21.278100 3.757000
21.298200 3.913200
21.318300 4.049900
21.338400 4.327400
21.358500 4.503400
21.378600 4.500600
21.398700 4.422700
21.418800 4.336200
21.438900 4.220000
21.459000 4.122200
21.479100 4.055500
21.499200 4.007000
21.519300 4.040900
21.539400 4.154300
21.559500 4.066000
21.579600 3.984400
21.599700 4.030900
21.619800 4.162500
21.639900 4.316700
21.659900 4.470800
21.680000 4.492300
21.700100 4.262500
21.720200 4.226400
21.740300 4.093200
21.760400 4.019600
21.780500 3.991700
21.800600 3.986700
21.820700 4.034300
21.840800 4.184500
21.860900 4.280500
21.881000 4.372200
21.901100 4.429000
21.921200 4.442100
21.941300 4.461400
21.961400 4.524200
21.981500 4.570100
22.001600 4.612700
22.021700 4.563700
22.041700 4.548400
22.061800 4.482700
22.081900 4.383400
22.102000 4.264200
22.122100 4.194700
22.142200 4.130000
22.162300 4.068000
22.182400 4.037300
22.202500 4.067900
22.222600 4.080600
22.242700 4.170700
22.262800 4.124900
22.282900 4.067300
22.303000 4.062800
22.323100 4.077500
22.343200 4.025500
22.363300 3.979200
22.383400 4.033400
22.403400 4.135100
22.423500 4.235300
22.443600 4.281000
22.463700 4.617000
22.483800 4.575200
22.503900 4.452800
22.524000 4.420100
22.544100 4.635500
22.564200 4.264600
22.584300 4.205400
22.604400 4.284900
22.624500 4.445600
22.644600 4.560500
22.664700 4.602900
22.684800 4.727200
22.704900 4.561000
22.725000 4.529500
22.745100 4.442900
22.765200 4.417300
22.785200 4.321100
22.805300 4.311800
22.825400 4.373800
22.845500 4.430600
22.865600 4.485000
22.885700 4.038100
22.905800 3.993900
22.925900 3.900900
22.946000 3.774600
22.966100 3.768100
22.986200 3.742900
23.006300 3.698100
23.026400 3.878500
23.046500 3.760000
23.066600 3.715600
23.086700 3.678100
23.106800 3.654300
23.126900 3.706700
23.147000 3.689300
23.167000 3.688300
23.187100 3.751300
23.207200 3.773600
23.227300 3.800800
23.247400 3.753500
23.267500 3.676800
23.287600 3.660400
23.307700 3.658100
23.327800 3.749700
23.347900 3.838300
23.368000 3.871600
23.388100 3.885400
23.408200 3.900200
23.428300 3.915800
23.448400 4.036400
23.468500 4.160300
23.488600 4.300500
23.508700 4.135900
23.528800 4.009100
23.548800 3.762800
23.568900 3.661500
23.589000 3.674300
23.609100 3.721700
23.629200 3.698900
23.649300 3.730300
23.669400 3.727500
23.689500 3.574200
23.709600 3.486200
23.729700 3.394300
23.749800 3.319500
23.769900 3.315800
23.790000 3.244100
23.810100 3.272300
23.830200 3.373400
23.850300 3.496100
23.870400 3.701800
23.890500 3.936400
23.910500 4.127800
23.930600 4.267400
23.950700 4.370300
23.970800 4.507700
23.990900 4.270600
24.011000 4.028300
24.031100 3.987700
24.051200 3.949900
24.071300 3.885700
24.091400 3.607700
24.111500 3.488400
24.131600 3.425300
24.151700 3.413800
24.171800 3.433000
24.191900 3.302300
24.212000 3.248100
24.232100 3.322900
24.252200 3.452800
24.272300 3.589300
24.292300 3.761100
24.312400 3.928100
24.332500 4.046900
24.352600 4.163100
24.372700 4.288100
24.392800 4.484400
24.412900 4.598200
24.433000 4.589000
24.453100 4.520600
24.473200 4.467700
24.493300 4.391800
24.513400 4.379500
24.533500 4.234100
24.553600 3.654200
24.573700 3.065900
24.593800 2.914800
24.613900 2.827400
24.634000 2.768400
24.654100 2.794100
24.674100 2.859900
24.694200 3.057600
24.714300 3.223300
24.734400 3.304800
24.754500 3.532200
24.774600 3.668700
24.794700 3.600300
24.814800 3.668100
24.834900 3.695700
24.855000 3.789700
24.875100 3.906700
24.895200 3.998000
24.915300 4.089600
24.935400 4.149800
24.955500 4.181200
24.975600 4.549500
24.995700 4.345300
25.015800 4.300400
25.035900 4.441400
25.055900 4.519100
25.076000 4.395300
25.096100 4.372700
25.116200 4.256600
25.136300 4.182000
25.156400 4.098100
25.176500 4.082300
25.196600 4.120100
25.216700 4.208900
25.236800 4.331000
25.256900 4.219100
25.277000 4.235100
25.297100 4.335300
25.317200 4.523600
25.337300 4.701900
25.357400 4.969900
25.377500 4.818400
25.397600 4.711500
25.417600 4.575900
25.437700 4.313700
25.457800 4.309200
25.477900 4.239000
25.498000 4.371700
25.518100 4.475700
25.538200 4.530400
25.558300 4.328900
25.578400 4.368200
25.598500 4.483400
25.618600 4.594200
25.638700 4.751400
25.658800 4.845500
25.678900 4.940200
25.699000 5.002500
25.719100 4.769500
25.739200 4.655900
25.759300 4.474300
25.779400 4.334400
25.799400 4.226200
25.819500 4.131500
25.839600 3.981800
25.859700 3.925800
25.879800 3.889300
25.899900 3.832400
25.920000 4.071400
25.940100 4.296900
25.960200 4.576300
25.980300 4.859200
26.000400 4.698500
26.020500 4.589600
26.040600 4.675800
26.060700 4.748200
26.080800 4.667800
26.100900 4.589600
26.121000 4.484600
26.141100 4.379300
26.161200 4.350700
26.181200 4.338200
26.201300 4.323600
26.221400 4.375500
26.241500 4.402600
26.261600 4.483400
26.281700 4.538400
26.301800 4.477600
26.321900 4.517300
26.342000 4.528300
26.362100 4.581500
26.382200 4.616700
26.402300 4.516100
26.422400 4.450500
26.442500 4.454900
26.462600 4.517100
26.482700 4.483400
26.502800 4.305700
26.522900 4.303900
26.543000 4.434200
26.563000 4.565600
26.583100 4.730900
26.603200 4.831100
26.623300 4.954700
26.643400 4.823400
26.663500 4.794500
26.683600 4.752000
26.703700 4.729300
26.723800 4.615500
26.743900 4.351200
26.764000 4.135700
26.784100 3.999000
26.804200 3.929900
26.824300 3.988300
26.844400 3.819200
26.864500 3.827100
26.884600 3.904100
26.904700 4.079300
26.924700 4.166600
26.944800 4.326100
26.964900 4.528200
26.985000 4.589700
27.005100 4.760700
27.025200 4.962300
27.045300 4.984000
27.065400 4.846700
27.085500 4.578700
27.105600 4.474400
27.125700 4.477700
27.145800 4.296000
27.165900 4.255100
27.186000 4.385100
27.206100 4.272400
27.226200 3.926800
27.246300 3.864600
27.266400 3.933700
27.286500 4.072800
27.306500 4.356900
27.326600 4.596200
27.346700 4.744600
27.366800 4.827100
27.386900 4.870300
27.407000 4.920900
27.427100 4.743100
27.447200 4.699500
27.467300 4.697200
27.487400 4.747800
27.507500 4.628100
27.527600 4.357300
27.547700 4.352500
27.567800 3.906500
27.587900 3.817100
27.608000 3.847700
27.628100 3.798900
27.648200 3.717500
27.668300 3.657900
27.688300 3.820000
27.708400 4.054300
27.728500 4.190600
27.748600 4.365900
27.768700 4.487300
27.788800 4.607700
27.808900 4.883200
27.829000 5.225000
27.849100 5.310600
27.869200 5.353800
27.889300 5.105900
27.909400 4.956100
27.929500 4.743500
27.949600 4.573700
27.969700 4.471200
27.989800 4.353300
28.009900 4.288600
28.030000 4.281500
28.050000 4.309700
28.070100 4.280000
28.090200 4.266200
28.110300 4.159700
28.130400 4.174400
28.150500 4.231400
28.170600 4.285200
28.190700 4.311600
28.210800 4.314700
28.230900 4.325900
28.251000 4.304300
28.271100 4.267200
28.291200 4.296100
28.311300 4.475300
28.331400 4.376100
28.351500 4.459400
28.371600 4.565700
28.391700 4.606400
28.411800 4.617800
28.431800 4.681800
28.451900 4.887100
28.472000 4.834100
28.492100 4.591400
28.512200 4.412700
28.532300 4.289600
28.552400 4.220300
28.572500 4.350800
28.592600 4.529300
28.612700 4.639000
28.632800 4.724100
28.652900 4.759600
28.673000 4.764800
28.693100 4.732300
28.713200 4.717800
28.733300 4.730900
28.753400 4.753000
28.773500 4.851800
28.793600 4.776500
28.813600 4.820800
28.833700 4.792100
28.853800 4.855500
28.873900 4.928600
28.894000 4.984600
28.914100 4.994500
28.934200 5.034700
28.954300 5.274300
28.974400 5.067400
28.994500 4.977300
29.014600 4.866900
29.034700 4.841600
29.054800 4.808600
29.074900 4.769600
29.095000 4.680300
29.115100 4.750800
29.135200 4.546800
29.155300 4.458600
29.175400 4.392100
29.195400 4.343000
29.215500 4.306100
29.235600 4.316500
29.255700 4.322200
29.275800 4.316800
29.295900 4.298800
29.316000 4.239500
29.336100 4.216600
29.356200 4.282000
29.376300 4.348700
29.396400 4.527400
29.416500 4.787900
29.436600 4.895800
29.456700 4.829900
29.476800 4.841700
29.496900 4.923900
29.517000 4.998100
29.537100 5.034000
29.557100 5.103000
29.577200 5.061900
29.597300 4.982700
29.617400 4.919400
29.637500 4.833500
29.657600 4.832400
29.677700 4.745700
29.697800 4.823000
29.717900 4.904900
29.738000 4.923300
29.758100 4.824200
29.778200 4.757400
29.798300 4.597600
29.818400 4.369800
29.838500 4.083200
29.858600 3.940600
29.878700 3.869900
29.898800 3.842500
29.918900 3.774600
29.938900 3.727600
29.959000 3.727100
29.979100 3.780000
29.999200 3.908100
30.019300 4.099600
30.039400 4.210200
30.059500 4.272800
30.079600 4.395200
30.099700 4.486300
30.119800 4.580100
30.139900 4.538100
30.160000 4.592400
30.180100 4.670000
30.200200 4.810700
30.220300 4.676800
30.240400 4.594000
30.260500 4.590100
30.280600 4.570900
30.300700 4.456200
30.320700 4.264700
30.340800 4.197600
30.360900 4.170200
30.381000 4.195300
30.401100 4.313400
30.421200 4.457000
30.441300 4.553500
30.461400 4.586400
30.481500 4.690500
30.501600 4.884400
30.521700 4.968600
30.541800 4.915500
30.561900 5.062800
30.582000 5.158400
30.602100 5.157300
30.622200 5.099800
30.642300 4.981300
30.662400 4.825200
30.682500 4.624700
30.702500 4.342200
30.722600 4.270300
30.742700 4.232500
30.762800 4.198800
30.782900 4.166900
30.803000 4.210200
30.823100 4.341000
30.843200 4.482700
30.863300 4.699700
30.883400 4.908100
30.903500 5.097000
30.923600 5.273300
30.943700 5.484700
30.963800 5.600900
30.983900 5.650000
31.004000 5.610700
31.024100 5.558300
31.044200 5.375500
31.064200 5.060400
31.084300 4.860500
31.104400 4.662200
31.124500 4.574800
31.144600 4.495700
31.164700 4.491100
31.184800 4.560500
31.204900 4.692100
31.225000 4.823900
31.245100 5.141500
31.265200 5.588100
31.285300 6.051900
31.305400 6.346300
31.325500 6.237900
31.345600 5.961100
31.365700 5.761900
31.385800 5.799500
31.405900 5.834000
31.426000 6.011800
31.446000 6.003100
31.466100 5.924300
31.486200 5.884100
31.506300 5.824500
31.526400 5.728400
31.546500 5.720900
31.566600 5.652200
31.586700 5.750800
31.606800 5.921800
31.626900 6.149200
31.647000 6.338400
31.667100 6.516000
31.687200 5.577700
31.707300 5.359600
31.727400 5.306700
31.747500 5.345300
31.767600 5.210400
31.787700 5.416900
31.807800 5.453400
31.827800 5.695100
31.847900 5.811300
31.868000 5.881800
31.888100 6.040600
31.908200 6.160100
31.928300 6.073700
31.948400 5.589000
31.968500 5.195400
31.988600 4.881400
32.008700 4.576900
32.028800 4.374300
32.048900 4.215300
32.069000 4.116900
32.089100 4.033300
32.109200 3.978900
32.129300 3.927600
32.149400 4.084400
32.169500 4.306900
32.189600 4.325600
32.209600 4.384700
32.229700 4.392400
32.249800 4.318100
32.269900 4.065900
32.290000 3.860900
32.310100 3.613900
32.330200 3.310500
32.350300 3.002600
32.370400 2.670400
32.390500 2.377400
32.410600 2.149100
32.430700 1.994800
32.450800 1.796600
32.470900 1.464700
32.491000 1.113500
32.511100 0.802500
32.531200 0.583100
32.551300 0.404600
32.571300 0.301400
32.591400 0.247900
32.611500 0.211600
32.631600 0.178500
32.651700 0.145100
32.671800 0.112800
32.691900 0.091400
32.712000 0.073100
32.732100 0.057900
32.752200 0.045300
32.772300 0.035000
32.792400 0.027100
32.812500 0.020200
32.832600 0.014000
32.852700 0.008700
32.872800 0.004100
32.892900 0.000300
32.913000 0.000000
32.933100 0.000000
32.953100 0.000000
32.973200 0.000000
32.993300 0.000000
33.013400 0.000000
33.033500 0.000000
33.053600 0.000000
33.073700 0.000000
33.093800 0.000000
33.113900 0.000000
33.134000 0.000000
33.154100 0.000000
33.174200 0.000000
33.194300 0.000000
33.214400 0.000000
33.234500 0.000000
33.254600 0.000000
33.274700 0.000000
33.294800 0.000000
33.314900 0.000000
33.334900 0.000000
33.355000 0.000000
33.375100 0.000000
33.395200 0.000000
33.415300 0.000000
33.435400 0.000000
33.455500 0.000000
33.475600 0.000000
33.495700 0.000000
33.515800 0.000000
33.535900 0.000000
33.556000 0.000000
33.576100 0.000000
33.596200 0.000000
33.616300 0.000000
33.636400 0.000000
33.656500 0.000000
33.676600 0.000000
33.696700 0.000000
33.716700 0.000000
33.736800 0.000000
33.756900 0.000000
33.777000 0.000000
33.797100 0.000000
33.817200 0.000000
33.837300 0.000000
33.857400 0.000000
33.877500 0.000000
33.897600 0.000000
33.917700 0.000000
33.937800 0.000000
33.957900 0.000000
33.978000 0.000000
33.998100 0.000000
34.018200 0.000000
34.038300 0.000000
34.058400 0.000000
34.078400 0.000000
34.098500 0.000000
34.118600 0.000000
34.138700 0.000000
34.158800 0.000000
34.178900 0.000000
34.199000 0.000000
34.219100 0.000000
34.239200 0.000000
34.259300 0.000000
34.279400 0.000000
34.299500 0.000000
34.319600 0.000000
34.339700 0.000000
34.359800 0.000000
34.379900 0.000000
34.400000 0.000000
34.420100 0.000000
34.440200 0.000000
34.460200 0.000000
34.480300 0.000000
34.500400 0.000000
34.520500 0.000000
34.540600 0.000000
34.560700 0.000000
34.580800 0.000000
34.600900 0.000000
34.621000 0.000000
34.641100 0.000000
34.661200 0.000000
34.681300 0.000000
34.701400 0.000000
34.721500 0.000000
e
