set title 'mp-1225998 - Density of States'
set xlabel 'Energy (eV)'
set ylabel 'DOS (states/eV)'
set grid
set xrange [-10:10]
set yrange [0:3.405]
set xzeroaxis lt -1
set terminal png size 800,600
set output 'mp-1225998_dos_gnuplot.png'
plot '-' using 1:2 with lines title 'DOS'
-5.722300 0.000000
-5.694400 0.000000
-5.666600 0.000000
-5.638800 0.000000
-5.611000 0.000000
-5.583100 0.000000
-5.555300 0.000000
-5.527500 0.000000
-5.499700 0.000000
-5.471800 0.000000
-5.444000 0.000000
-5.416200 0.000000
-5.388400 0.000000
-5.360500 0.000000
-5.332700 0.000000
-5.304900 0.000000
-5.277100 0.000000
-5.249200 0.000000
-5.221400 0.000000
-5.193600 0.000000
-5.165800 0.000000
-5.137900 0.000000
-5.110100 0.000000
-5.082300 0.000000
-5.054500 0.000000
-5.026600 0.000000
-4.998800 0.000000
-4.971000 0.000000
-4.943200 0.000000
-4.915300 0.000000
-4.887500 0.000000
-4.859700 0.000000
-4.831900 0.000000
-4.804000 0.000000
-4.776200 0.000000
-4.748400 0.000000
-4.720600 0.000000
-4.692800 0.000000
-4.664900 0.000000
-4.637100 0.000000
-4.609300 0.000000
-4.581500 0.000000
-4.553600 0.000000
-4.525800 0.000000
-4.498000 0.000000
-4.470200 0.000000
-4.442300 0.000000
-4.414500 0.000000
-4.386700 0.000000
-4.358900 0.000000
-4.331000 0.000000
-4.303200 0.000000
-4.275400 0.000000
-4.247600 0.000000
-4.219700 0.000000
-4.191900 0.000000
-4.164100 0.000000
-4.136300 0.000000
-4.108400 0.000000
-4.080600 0.000000
-4.052800 0.000000
-4.025000 0.000000
-3.997100 0.000000
-3.969300 0.000000
-3.941500 0.000000
-3.913700 0.000000
-3.885800 0.000000
-3.858000 0.000000
-3.830200 0.000000
-3.802400 0.000000
-3.774500 0.000000
-3.746700 0.000000
-3.718900 0.000000
-3.691100 0.000000
-3.663200 0.000000
-3.635400 0.000000
-3.607600 0.000000
-3.579800 0.000000
-3.552000 0.000000
-3.524100 0.000000
-3.496300 0.000000
-3.468500 0.000000
-3.440700 0.000000
-3.412800 0.000000
-3.385000 0.000000
-3.357200 0.000000
-3.329400 0.000000
-3.301500 0.000000
-3.273700 0.000000
-3.245900 0.000000
-3.218100 0.000000
-3.190200 0.000200
-3.162400 0.003400
-3.134600 0.008300
-3.106800 0.014500
-3.078900 0.021300
-3.051100 0.027000
-3.023300 0.026100
-2.995500 0.028300
-2.967600 0.030500
-2.939800 0.032400
-2.912000 0.034500
-2.884200 0.036900
-2.856300 0.039400
-2.828500 0.042000
-2.800700 0.044300
-2.772900 0.046600
-2.745000 0.048700
-2.717200 0.050500
-2.689400 0.052100
-2.661600 0.053600
-2.633700 0.055000
-2.605900 0.056500
-2.578100 0.058100
-2.550300 0.059800
-2.522400 0.061600
-2.494600 0.063500
-2.466800 0.065400
-2.439000 0.067400
-2.411200 0.069400
-2.383300 0.071400
-2.355500 0.073600
-2.327700 0.075800
-2.299900 0.078100
-2.272000 0.080400
-2.244200 0.082700
-2.216400 0.084700
-2.188600 0.087300
-2.160700 0.090300
-2.132900 0.093300
-2.105100 0.097400
-2.077300 0.101400
-2.049400 0.105000
-2.021600 0.108000
-1.993800 0.108900
-1.966000 0.106200
-1.938100 0.105700
-1.910300 0.106900
-1.882500 0.108000
-1.854700 0.109100
-1.826800 0.110200
-1.799000 0.111200
-1.771200 0.112200
-1.743400 0.113200
-1.715500 0.114000
-1.687700 0.114800
-1.659900 0.115400
-1.632100 0.115900
-1.604200 0.116400
-1.576400 0.116900
-1.548600 0.117500
-1.520800 0.118200
-1.492900 0.119300
-1.465100 0.120400
-1.437300 0.121600
-1.409500 0.122800
-1.381600 0.124000
-1.353800 0.125300
-1.326000 0.126600
-1.298200 0.127900
-1.270400 0.129300
-1.242500 0.130600
-1.214700 0.132100
-1.186900 0.133600
-1.159100 0.135200
-1.131200 0.136700
-1.103400 0.138200
-1.075600 0.140000
-1.047800 0.141900
-1.019900 0.144000
-0.992100 0.146000
-0.964300 0.148200
-0.936500 0.150500
-0.908600 0.152900
-0.880800 0.155400
-0.853000 0.158000
-0.825200 0.160900
-0.797300 0.164400
-0.769500 0.168800
-0.741700 0.173900
-0.713900 0.179800
-0.686000 0.186400
-0.658200 0.194100
-0.630400 0.203900
-0.602600 0.227600
-0.574700 0.302300
-0.546900 0.384900
-0.519100 0.477600
-0.491300 0.549700
-0.463400 0.582100
-0.435600 0.609500
-0.407800 0.594600
-0.380000 0.599800
-0.352100 0.623200
-0.324300 0.672400
-0.296500 0.712500
-0.268700 0.725700
-0.240800 0.731000
-0.213000 0.721700
-0.185200 0.698400
-0.157400 0.670100
-0.129600 0.625400
-0.101700 0.578300
-0.073900 0.534300
-0.046100 0.484300
-0.018300 0.455700
0.009600 0.446300
0.037400 0.437300
0.065200 0.432500
0.093000 0.440900
0.120900 0.456600
0.148700 0.471700
0.176500 0.477100
0.204300 0.544100
0.232200 0.617200
0.260000 0.633900
0.287800 0.678400
0.315600 0.715600
0.343500 0.761600
0.371300 0.807100
0.399100 0.854000
0.426900 0.903700
0.454800 0.947900
0.482600 0.979700
0.510400 1.032600
0.538200 1.098400
0.566100 1.167600
0.593900 1.175800
0.621700 1.157000
0.649500 1.200700
0.677400 1.246400
0.705200 1.312100
0.733000 1.566200
0.760800 1.558800
0.788700 1.416200
0.816500 1.382800
0.844300 1.331500
0.872100 1.304000
0.900000 1.282800
0.927800 1.285400
0.955600 1.273000
0.983400 1.308100
1.011200 1.337600
1.039100 1.311700
1.066900 1.234200
1.094700 1.173600
1.122500 1.106400
1.150400 1.088300
1.178200 1.066300
1.206000 1.032100
1.233800 0.984300
1.261700 1.061800
1.289500 1.282500
1.317300 0.829600
1.345100 0.404200
1.373000 0.322600
1.400800 0.377200
1.428600 0.915400
1.456400 0.973900
1.484300 1.045900
1.512100 1.216200
1.539900 1.420800
1.567700 1.822700
1.595600 1.666700
1.623400 1.625000
1.651200 1.584700
1.679000 1.453000
1.706900 1.379700
1.734700 1.380500
1.762500 1.398900
1.790300 1.337200
1.818200 1.362100
1.846000 1.343300
1.873800 1.295200
1.901600 1.475800
1.929500 1.294800
1.957300 1.144900
1.985100 1.257300
2.012900 1.289100
2.040800 1.305400
2.068600 1.402900
2.096400 1.345400
2.124200 1.399200
2.152000 1.476000
2.179900 1.542600
2.207700 1.558000
2.235500 1.596800
2.263300 1.742200
2.291200 1.822500
2.319000 1.700300
2.346800 1.546400
2.374600 1.452700
2.402500 1.354500
2.430300 1.305300
2.458100 1.221500
2.485900 1.160600
2.513800 1.161500
2.541600 1.170800
2.569400 1.110500
2.597200 1.076700
2.625100 1.059100
2.652900 1.063500
2.680700 1.090800
2.708500 1.168700
2.736400 1.233000
2.764200 1.278300
2.792000 1.282500
2.819800 1.383300
2.847700 1.410900
2.875500 1.460200
2.903300 1.222500
2.931100 1.132800
2.959000 1.092400
2.986800 1.100800
3.014600 1.220500
3.042400 1.351800
3.070300 1.513100
3.098100 1.617800
3.125900 1.594900
3.153700 1.768900
3.181600 1.909700
3.209400 2.056500
3.237200 2.108300
3.265000 2.169600
3.292800 2.178300
3.320700 2.153200
3.348500 2.257100
3.376300 2.472600
3.404100 2.385700
3.432000 2.139900
3.459800 1.940600
3.487600 1.913400
3.515400 1.897200
3.543300 1.900100
3.571100 2.156000
3.598900 2.257900
3.626700 2.426800
3.654600 2.808200
3.682400 2.761600
3.710200 2.830900
3.738000 2.483500
3.765900 2.382100
3.793700 2.162600
3.821500 1.652100
3.849300 2.043300
3.877200 1.847400
3.905000 1.555700
3.932800 1.768300
3.960600 2.041500
3.988500 2.667300
4.016300 3.095100
4.044100 2.729200
4.071900 2.178900
4.099800 2.088300
4.127600 2.013500
4.155400 2.029700
4.183200 2.069500
4.211100 2.082300
4.238900 1.996900
4.266700 2.047700
4.294500 2.074800
4.322400 2.046800
4.350200 2.087500
4.378000 2.267200
4.405800 2.477800
4.433600 2.508300
4.461500 2.366100
4.489300 2.335300
4.517100 2.328900
4.544900 2.214300
4.572800 2.218200
4.600600 2.488500
4.628400 2.693500
4.656200 2.559100
4.684100 2.403200
4.711900 2.327400
4.739700 2.188500
4.767500 2.253100
4.795400 2.193800
4.823200 2.094100
4.851000 2.013000
4.878800 1.934900
4.906700 1.899800
4.934500 1.870700
4.962300 1.841200
4.990100 1.807400
5.018000 1.745900
5.045800 1.722300
5.073600 1.731500
5.101400 1.758900
5.129300 1.825000
5.157100 1.920000
5.184900 2.058700
5.212700 2.099800
5.240600 2.220400
5.268400 2.506700
5.296200 2.856400
5.324000 2.713900
5.351900 2.528300
5.379700 2.547300
5.407500 2.508900
5.435300 2.421000
5.463200 1.860800
5.491000 1.626800
5.518800 1.636400
5.546600 1.659800
5.574400 1.688800
5.602300 1.763000
5.630100 1.812200
5.657900 1.880500
5.685700 1.949000
5.713600 2.031500
5.741400 2.127600
5.769200 2.087100
5.797000 2.207500
5.824900 1.833600
5.852700 1.603500
5.880500 1.447300
5.908300 1.242700
5.936200 1.033600
5.964000 0.993300
5.991800 0.978100
6.019600 0.955900
6.047500 0.904100
6.075300 0.840600
6.103100 0.942200
6.130900 0.623800
6.158800 0.504800
6.186600 0.431700
6.214400 0.420000
6.242200 0.408800
6.270100 0.402400
6.297900 0.395300
6.325700 0.389400
6.353500 0.386200
6.381400 0.383600
6.409200 0.381700
6.437000 0.379200
6.464800 0.378900
6.492700 0.372600
6.520500 0.362500
6.548300 0.351400
6.576100 0.340200
6.604000 0.328100
6.631800 0.317100
6.659600 0.306800
6.687400 0.305700
6.715200 0.307500
6.743100 0.308300
6.770900 0.309100
6.798700 0.309900
6.826500 0.310700
6.854400 0.311400
6.882200 0.311800
6.910000 0.312000
6.937800 0.311900
6.965700 0.311200
6.993500 0.310300
7.021300 0.308000
7.049100 0.306000
7.077000 0.304300
7.104800 0.302900
7.132600 0.301800
7.160400 0.301500
7.188300 0.301600
7.216100 0.301900
7.243900 0.302300
7.271700 0.302700
7.299600 0.303200
7.327400 0.303700
7.355200 0.304200
7.383000 0.304600
7.410900 0.305100
7.438700 0.305600
7.466500 0.306100
7.494300 0.306700
7.522200 0.306800
7.550000 0.306500
7.577800 0.306100
7.605600 0.305600
7.633500 0.305400
7.661300 0.305400
7.689100 0.305500
7.716900 0.305500
7.744800 0.305600
7.772600 0.305600
7.800400 0.305900
7.828200 0.307000
7.856000 0.308300
7.883900 0.310800
7.911700 0.320600
7.939500 0.323600
7.967300 0.312100
7.995200 0.292600
8.023000 0.285500
8.050800 0.282200
8.078600 0.280500
8.106500 0.279700
8.134300 0.279600
8.162100 0.279400
8.189900 0.279200
8.217800 0.278900
8.245600 0.278500
8.273400 0.278100
8.301200 0.277900
8.329100 0.277700
8.356900 0.277600
8.384700 0.277600
8.412500 0.277600
8.440400 0.277600
8.468200 0.277400
8.496000 0.276800
8.523800 0.276400
8.551700 0.276000
8.579500 0.275300
8.607300 0.274500
8.635100 0.273400
8.663000 0.271900
8.690800 0.270700
8.718600 0.269400
8.746400 0.268200
8.774300 0.266900
8.802100 0.265600
8.829900 0.264100
8.857700 0.262400
8.885600 0.261100
8.913400 0.259900
8.941200 0.258800
8.969000 0.258700
8.996800 0.263800
9.024700 0.266100
9.052500 0.266900
9.080300 0.266200
9.108100 0.264200
9.136000 0.259700
9.163800 0.254600
9.191600 0.251000
9.219400 0.248700
9.247300 0.247200
9.275100 0.246000
9.302900 0.245200
9.330700 0.244600
9.358600 0.243800
9.386400 0.242700
9.414200 0.241500
9.442000 0.240200
9.469900 0.239800
9.497700 0.240700
9.525500 0.241700
9.553300 0.242600
9.581200 0.243300
9.609000 0.243600
9.636800 0.243700
9.664600 0.243400
9.692500 0.243000
9.720300 0.241800
9.748100 0.239800
9.775900 0.238200
9.803800 0.237700
9.831600 0.238400
9.859400 0.238800
9.887200 0.242900
9.915100 0.247100
9.942900 0.252100
9.970700 0.257500
9.998500 0.269700
10.026300 0.274400
10.054200 0.268300
10.082000 0.251600
10.109800 0.244600
10.137600 0.241100
10.165500 0.236700
10.193300 0.231400
10.221100 0.224900
10.248900 0.217800
10.276800 0.215200
10.304600 0.213000
10.332400 0.210600
10.360200 0.207900
10.388100 0.206000
10.415900 0.205700
10.443700 0.206900
10.471500 0.210900
10.499400 0.213600
10.527200 0.212600
10.555000 0.208000
10.582800 0.201200
10.610700 0.195700
10.638500 0.192800
10.666300 0.190500
10.694100 0.188800
10.722000 0.187500
10.749800 0.187100
10.777600 0.189000
10.805400 0.190500
10.833300 0.191700
10.861100 0.193000
10.888900 0.194100
10.916700 0.196300
10.944600 0.200600
10.972400 0.207100
11.000200 0.205800
11.028000 0.214200
11.055900 0.234300
11.083700 0.243100
11.111500 0.244800
11.139300 0.243700
11.167100 0.241100
11.195000 0.237200
11.222800 0.232500
11.250600 0.227200
11.278400 0.221600
11.306300 0.215600
11.334100 0.209200
11.361900 0.202200
11.389700 0.196200
11.417600 0.188600
11.445400 0.180600
11.473200 0.173100
11.501000 0.164500
11.528900 0.157700
11.556700 0.152500
11.584500 0.148600
11.612300 0.145600
11.640200 0.143000
11.668000 0.141000
11.695800 0.138500
11.723600 0.137600
11.751500 0.142600
11.779300 0.150700
11.807100 0.157900
11.834900 0.167700
11.862800 0.185500
11.890600 0.216200
11.918400 0.261100
11.946200 0.295100
11.974100 0.320100
12.001900 0.346200
12.029700 0.356900
12.057500 0.359900
12.085400 0.359200
12.113200 0.354700
12.141000 0.346500
12.168800 0.336700
12.196700 0.326300
12.224500 0.318100
12.252300 0.312300
12.280100 0.302600
12.307900 0.291500
12.335800 0.281000
12.363600 0.273200
12.391400 0.268800
12.419200 0.264700
12.447100 0.259300
12.474900 0.255500
12.502700 0.259200
12.530500 0.296300
12.558400 0.343900
12.586200 0.310900
12.614000 0.314100
12.641800 0.327200
12.669700 0.327000
12.697500 0.323300
12.725300 0.308500
12.753100 0.303100
12.781000 0.297500
12.808800 0.292400
12.836600 0.287200
12.864400 0.282200
12.892300 0.279300
12.920100 0.276900
12.947900 0.274600
12.975700 0.271900
13.003600 0.269000
13.031400 0.267700
13.059200 0.267300
13.087000 0.267500
13.114900 0.268300
13.142700 0.269400
13.170500 0.272100
13.198300 0.274200
13.226200 0.275800
13.254000 0.277000
13.281800 0.277700
13.309600 0.278300
13.337500 0.282300
13.365300 0.276300
13.393100 0.272700
13.420900 0.272000
13.448700 0.272500
13.476600 0.273900
13.504400 0.276300
13.532200 0.278500
13.560000 0.280200
13.587900 0.282100
13.615700 0.283700
13.643500 0.285300
13.671300 0.286600
13.699200 0.287500
13.727000 0.285500
13.754800 0.282200
13.782600 0.281300
13.810500 0.280300
13.838300 0.279200
13.866100 0.278200
13.893900 0.277100
13.921800 0.275900
13.949600 0.274900
13.977400 0.281300
14.005200 0.290100
14.033100 0.287300
14.060900 0.284200
14.088700 0.282100
14.116500 0.280100
14.144400 0.277400
14.172200 0.274000
14.200000 0.270700
14.227800 0.268300
14.255700 0.266200
14.283500 0.262700
14.311300 0.258200
14.339100 0.252700
14.367000 0.246400
14.394800 0.242000
14.422600 0.237600
14.450400 0.233200
14.478300 0.228900
14.506100 0.224400
14.533900 0.220300
14.561700 0.216600
14.589500 0.213100
14.617400 0.209300
14.645200 0.205800
14.673000 0.202700
14.700800 0.200000
14.728700 0.199100
14.756500 0.198000
14.784300 0.197100
14.812100 0.196200
14.840000 0.195700
14.867800 0.195600
14.895600 0.196400
14.923400 0.197600
14.951300 0.198900
14.979100 0.201400
15.006900 0.204900
15.034700 0.208300
15.062600 0.211800
15.090400 0.219600
15.118200 0.228500
15.146000 0.238200
15.173900 0.250900
15.201700 0.267100
15.229500 0.285900
15.257300 0.306800
15.285200 0.328300
15.313000 0.343700
15.340800 0.372800
15.368600 0.389400
15.396500 0.403800
15.424300 0.429900
15.452100 0.458800
15.479900 0.470600
15.507800 0.470300
15.535600 0.464700
15.563400 0.450600
15.591200 0.435900
15.619100 0.421800
15.646900 0.413100
15.674700 0.403300
15.702500 0.394000
15.730300 0.387900
15.758200 0.386200
15.786000 0.388900
15.813800 0.394100
15.841600 0.396500
15.869500 0.395700
15.897300 0.392200
15.925100 0.387200
15.952900 0.379900
15.980800 0.382400
16.008600 0.383200
16.036400 0.383600
16.064200 0.380600
16.092100 0.372700
16.119900 0.363600
16.147700 0.379500
16.175500 0.360800
16.203400 0.360600
16.231200 0.360800
16.259000 0.361600
16.286800 0.363100
16.314700 0.365800
16.342500 0.369600
16.370300 0.374400
16.398100 0.379500
16.426000 0.381600
16.453800 0.379900
16.481600 0.381700
16.509400 0.387000
16.537300 0.391300
16.565100 0.396700
16.592900 0.403900
16.620700 0.412300
16.648600 0.417500
16.676400 0.419400
16.704200 0.421000
16.732000 0.422100
16.759900 0.421900
16.787700 0.420900
16.815500 0.420900
16.843300 0.419800
16.871100 0.417800
16.899000 0.414600
16.926800 0.410800
16.954600 0.407900
16.982400 0.401000
17.010300 0.395300
17.038100 0.393400
17.065900 0.394400
17.093700 0.394200
17.121600 0.393000
17.149400 0.391400
17.177200 0.389900
17.205000 0.389400
17.232900 0.387100
17.260700 0.385300
17.288500 0.383700
17.316300 0.382500
17.344200 0.381500
17.372000 0.381000
17.399800 0.381200
17.427600 0.381700
17.455500 0.382700
17.483300 0.384600
17.511100 0.387600
17.538900 0.391800
17.566800 0.397500
17.594600 0.404700
17.622400 0.412300
17.650200 0.418800
17.678100 0.424600
17.705900 0.429100
17.733700 0.432000
17.761500 0.434000
17.789400 0.435200
17.817200 0.435300
17.845000 0.434300
17.872800 0.429300
17.900700 0.430100
17.928500 0.431200
17.956300 0.432900
17.984100 0.435800
18.011900 0.438000
18.039800 0.440300
18.067600 0.442700
18.095400 0.445500
18.123200 0.449300
18.151100 0.453200
18.178900 0.454900
18.206700 0.455900
18.234500 0.456700
18.262400 0.457400
18.290200 0.458000
18.318000 0.458600
18.345800 0.457000
18.373700 0.458300
18.401500 0.460100
18.429300 0.462000
18.457100 0.462900
18.485000 0.465900
18.512800 0.468300
18.540600 0.470300
18.568400 0.471700
18.596300 0.473600
18.624100 0.476200
18.651900 0.481700
18.679700 0.493400
18.707600 0.486700
18.735400 0.489300
18.763200 0.491600
18.791000 0.493400
18.818900 0.494400
18.846700 0.494900
18.874500 0.495300
18.902300 0.493700
18.930200 0.488400
18.958000 0.484100
18.985800 0.484800
19.013600 0.486000
19.041500 0.486900
19.069300 0.488600
19.097100 0.491600
19.124900 0.489900
19.152700 0.489100
19.180600 0.489200
19.208400 0.488700
19.236200 0.488100
19.264000 0.488000
19.291900 0.489600
19.319700 0.491100
19.347500 0.491800
19.375300 0.492700
19.403200 0.493000
19.431000 0.492800
19.458800 0.490000
19.486600 0.487500
19.514500 0.485400
19.542300 0.483800
19.570100 0.483100
19.597900 0.484600
19.625800 0.487100
19.653600 0.489500
19.681400 0.491900
19.709200 0.493800
19.737100 0.494100
19.764900 0.493300
19.792700 0.492000
19.820500 0.489900
19.848400 0.487300
19.876200 0.482900
19.904000 0.481700
19.931800 0.485800
19.959700 0.480400
19.987500 0.475000
20.015300 0.469700
20.043100 0.464800
20.071000 0.460100
20.098800 0.456100
20.126600 0.453500
20.154400 0.452300
20.182300 0.451300
20.210100 0.450300
20.237900 0.449300
20.265700 0.448100
20.293500 0.446800
20.321400 0.445800
20.349200 0.445200
20.377000 0.445500
20.404800 0.446000
20.432700 0.446700
20.460500 0.447400
20.488300 0.447900
20.516100 0.448100
20.544000 0.447900
20.571800 0.447300
20.599600 0.446900
20.627400 0.446500
20.655300 0.445200
20.683100 0.442900
20.710900 0.439900
20.738700 0.437200
20.766600 0.434700
20.794400 0.432500
20.822200 0.430200
20.850000 0.427200
20.877900 0.424300
20.905700 0.421800
20.933500 0.419400
20.961300 0.418900
20.989200 0.419400
21.017000 0.419200
21.044800 0.418500
21.072600 0.417200
21.100500 0.415800
21.128300 0.414400
21.156100 0.413400
21.183900 0.412800
21.211800 0.412100
21.239600 0.411300
21.267400 0.410900
21.295200 0.410900
21.323100 0.411000
21.350900 0.409400
21.378700 0.405800
21.406500 0.399800
21.434300 0.397800
21.462200 0.395100
21.490000 0.392600
21.517800 0.390600
21.545600 0.388700
21.573500 0.386900
21.601300 0.385200
21.629100 0.384300
21.656900 0.384600
21.684800 0.382400
21.712600 0.378000
21.740400 0.375700
21.768200 0.376100
21.796100 0.378000
21.823900 0.382200
21.851700 0.385500
21.879500 0.388100
21.907400 0.391200
21.935200 0.393800
21.963000 0.392600
21.990800 0.388300
22.018700 0.386200
22.046500 0.388700
22.074300 0.394900
22.102100 0.396600
22.130000 0.392500
22.157800 0.386700
22.185600 0.381400
22.213400 0.377800
22.241300 0.378400
22.269100 0.379600
22.296900 0.379400
22.324700 0.376300
22.352600 0.373800
22.380400 0.372500
22.408200 0.373300
22.436000 0.385400
22.463900 0.417100
22.491700 0.421300
22.519500 0.439100
22.547300 0.467500
22.575100 0.503700
22.603000 0.529400
22.630800 0.552000
22.658600 0.571700
22.686400 0.591400
22.714300 0.596000
22.742100 0.594800
22.769900 0.594100
22.797700 0.590300
22.825600 0.582800
22.853400 0.578400
22.881200 0.566100
22.909000 0.573600
22.936900 0.577800
22.964700 0.591100
22.992500 0.586000
23.020300 0.569100
23.048200 0.548200
23.076000 0.531400
23.103800 0.529900
23.131600 0.533500
23.159500 0.541700
23.187300 0.557800
23.215100 0.567800
23.242900 0.592000
23.270800 0.546000
23.298600 0.525500
23.326400 0.516900
23.354200 0.512700
23.382100 0.512800
23.409900 0.513600
23.437700 0.513400
23.465500 0.511800
23.493400 0.509500
23.521200 0.507900
23.549000 0.507400
23.576800 0.507800
23.604700 0.508900
23.632500 0.511000
23.660300 0.513000
23.688100 0.516600
23.715900 0.521500
23.743800 0.527300
23.771600 0.533100
23.799400 0.535600
23.827200 0.537500
23.855100 0.541000
23.882900 0.544000
23.910700 0.552000
23.938500 0.562000
23.966400 0.525400
23.994200 0.511300
24.022000 0.501100
24.049800 0.494500
24.077700 0.488700
24.105500 0.483600
24.133300 0.478300
24.161100 0.474300
24.189000 0.471400
24.216800 0.468800
24.244600 0.466500
24.272400 0.464500
24.300300 0.463200
24.328100 0.461900
24.355900 0.459000
24.383700 0.455100
24.411600 0.450700
24.439400 0.446200
24.467200 0.441700
24.495000 0.437600
24.522900 0.433900
24.550700 0.430900
24.578500 0.428000
24.606300 0.426600
24.634200 0.425000
24.662000 0.423200
24.689800 0.420900
24.717600 0.418900
24.745500 0.417900
24.773300 0.417200
24.801100 0.416700
24.828900 0.417000
24.856700 0.417200
24.884600 0.417500
24.912400 0.417800
24.940200 0.418100
24.968000 0.418400
24.995900 0.419800
25.023700 0.428100
25.051500 0.429400
25.079300 0.428400
25.107200 0.427000
25.135000 0.425500
25.162800 0.424300
25.190600 0.423600
25.218500 0.421700
25.246300 0.418800
25.274100 0.417200
25.301900 0.415200
25.329800 0.412100
25.357600 0.408400
25.385400 0.406500
25.413200 0.405200
25.441100 0.403800
25.468900 0.402500
25.496700 0.399400
25.524500 0.397400
25.552400 0.394100
25.580200 0.398900
25.608000 0.407300
25.635800 0.415700
25.663700 0.421900
25.691500 0.424600
25.719300 0.426700
25.747100 0.428500
25.775000 0.437800
25.802800 0.448400
25.830600 0.461300
25.858400 0.475400
25.886300 0.492600
25.914100 0.513900
25.941900 0.538900
25.969700 0.569100
25.997500 0.605300
26.025400 0.629100
26.053200 0.640400
26.081000 0.631200
26.108800 0.631800
26.136700 0.638000
26.164500 0.644600
26.192300 0.641100
26.220100 0.626600
26.248000 0.585700
26.275800 0.554100
26.303600 0.530400
26.331400 0.512700
26.359300 0.505400
26.387100 0.504300
26.414900 0.518600
26.442700 0.524900
26.470600 0.517500
26.498400 0.507100
26.526200 0.499100
26.554000 0.496400
26.581900 0.501000
26.609700 0.517400
26.637500 0.533800
26.665300 0.535800
26.693200 0.540300
26.721000 0.552700
26.748800 0.564000
26.776600 0.571900
26.804500 0.575600
26.832300 0.580000
26.860100 0.585400
26.887900 0.591700
26.915800 0.602300
26.943600 0.617500
26.971400 0.626600
26.999200 0.638500
27.027100 0.658400
27.054900 0.679400
27.082700 0.696400
27.110500 0.709700
27.138300 0.719200
27.166200 0.719600
27.194000 0.712800
27.221800 0.697700
27.249600 0.671000
27.277500 0.671000
27.305300 0.682800
27.333100 0.702500
27.360900 0.682900
27.388800 0.668800
27.416600 0.688500
27.444400 0.690600
27.472200 0.678900
27.500100 0.666100
27.527900 0.665500
27.555700 0.739700
27.583500 0.682900
27.611400 0.634300
27.639200 0.628800
27.667000 0.625700
27.694800 0.626500
27.722700 0.634000
27.750500 0.655300
27.778300 0.644000
27.806100 0.617000
27.834000 0.597000
27.861800 0.589000
27.889600 0.586000
27.917400 0.584700
27.945300 0.584400
27.973100 0.584700
28.000900 0.585400
28.028700 0.593600
28.056600 0.595400
28.084400 0.594900
28.112200 0.596900
28.140000 0.595800
28.167900 0.594200
28.195700 0.591400
28.223500 0.586100
28.251300 0.582700
28.279100 0.580800
28.307000 0.580400
28.334800 0.580600
28.362600 0.579500
28.390400 0.580300
28.418300 0.582700
28.446100 0.586500
28.473900 0.592400
28.501700 0.600100
28.529600 0.608600
28.557400 0.617000
28.585200 0.622800
28.613000 0.625400
28.640900 0.619900
28.668700 0.604800
28.696500 0.593600
28.724300 0.589800
28.752200 0.585300
28.780000 0.580700
28.807800 0.579100
28.835600 0.578500
28.863500 0.579700
28.891300 0.577900
28.919100 0.573100
28.946900 0.563900
28.974800 0.562500
29.002600 0.562000
29.030400 0.560700
29.058200 0.556400
29.086100 0.550900
29.113900 0.546000
29.141700 0.542100
29.169500 0.539600
29.197400 0.541800
29.225200 0.535800
29.253000 0.521700
29.280800 0.511400
29.308700 0.501500
29.336500 0.494200
29.364300 0.487800
29.392100 0.480000
29.419900 0.472100
29.447800 0.466300
29.475600 0.462100
29.503400 0.456700
29.531200 0.446500
29.559100 0.435600
29.586900 0.425000
29.614700 0.422600
29.642500 0.423300
29.670400 0.425300
29.698200 0.428400
29.726000 0.429400
29.753800 0.429500
29.781700 0.428800
29.809500 0.428000
29.837300 0.424900
29.865100 0.421200
29.893000 0.420000
29.920800 0.420100
29.948600 0.428200
29.976400 0.432900
30.004300 0.418100
30.032100 0.416100
30.059900 0.423000
30.087700 0.429700
30.115600 0.455500
30.143400 0.437800
30.171200 0.419300
30.199000 0.418800
30.226900 0.419000
30.254700 0.419000
30.282500 0.429800
30.310300 0.455700
30.338200 0.437600
30.366000 0.434700
30.393800 0.447800
30.421600 0.448200
30.449500 0.436800
30.477300 0.418300
30.505100 0.399300
30.532900 0.378900
30.560700 0.350600
30.588600 0.341700
30.616400 0.335200
30.644200 0.329600
30.672000 0.326700
30.699900 0.319700
30.727700 0.314000
30.755500 0.308400
30.783300 0.301500
30.811200 0.292200
30.839000 0.281900
30.866800 0.272400
30.894600 0.263700
30.922500 0.255900
30.950300 0.249100
30.978100 0.243700
31.005900 0.239000
31.033800 0.234800
31.061600 0.231700
31.089400 0.230200
31.117200 0.231200
31.145100 0.237600
31.172900 0.240100
31.200700 0.239900
31.228500 0.244500
31.256400 0.249300
31.284200 0.252100
31.312000 0.253700
31.339800 0.256000
31.367700 0.258600
31.395500 0.262600
31.423300 0.267800
31.451100 0.274400
31.479000 0.283400
31.506800 0.292300
31.534600 0.302200
31.562400 0.315300
31.590300 0.330800
31.618100 0.342800
31.645900 0.355200
31.673700 0.371900
31.701500 0.383900
31.729400 0.412000
31.757200 0.436100
31.785000 0.436900
31.812800 0.439900
31.840700 0.449500
31.868500 0.471400
31.896300 0.479900
31.924100 0.481900
31.952000 0.490400
31.979800 0.495200
32.007600 0.500700
32.035400 0.505500
32.063300 0.510200
32.091100 0.516000
32.118900 0.519900
32.146700 0.523400
32.174600 0.528500
32.202400 0.532800
32.230200 0.537300
32.258000 0.547500
32.285900 0.553500
32.313700 0.541600
32.341500 0.529500
32.369300 0.513000
32.397200 0.507100
32.425000 0.492900
32.452800 0.477300
32.480600 0.469200
32.508500 0.461600
32.536300 0.447800
32.564100 0.452100
32.591900 0.459300
32.619800 0.464900
32.647600 0.470800
32.675400 0.480000
32.703200 0.500100
32.731100 0.535300
32.758900 0.565700
32.786700 0.589300
32.814500 0.612500
32.842300 0.627500
32.870200 0.626100
32.898000 0.625600
32.925800 0.634500
32.953600 0.642200
32.981500 0.648800
33.009300 0.650500
33.037100 0.641000
33.064900 0.644500
33.092800 0.650100
33.120600 0.654500
33.148400 0.660300
33.176200 0.647600
33.204100 0.636900
33.231900 0.631800
33.259700 0.629900
33.287500 0.631700
33.315400 0.636300
33.343200 0.636500
33.371000 0.641000
33.398800 0.650700
33.426700 0.670100
33.454500 0.700100
33.482300 0.724300
33.510100 0.761500
33.538000 0.782100
33.565800 0.770800
33.593600 0.788500
33.621400 0.789400
33.649300 0.788100
33.677100 0.784600
33.704900 0.771100
33.732700 0.757000
33.760600 0.746100
33.788400 0.744200
33.816200 0.727000
33.844000 0.711600
33.871900 0.675700
33.899700 0.653500
33.927500 0.638700
33.955300 0.625400
33.983100 0.609300
34.011000 0.591400
34.038800 0.573700
34.066600 0.557700
34.094400 0.545500
34.122300 0.537400
34.150100 0.532900
34.177900 0.532700
34.205700 0.532600
34.233600 0.531100
34.261400 0.530100
34.289200 0.529900
34.317000 0.531700
34.344900 0.535000
34.372700 0.540200
34.400500 0.544700
34.428300 0.553800
34.456200 0.566800
34.484000 0.577400
34.511800 0.584300
34.539600 0.589100
34.567500 0.591900
34.595300 0.591500
34.623100 0.597400
34.650900 0.602000
34.678800 0.593000
34.706600 0.574400
34.734400 0.571600
34.762200 0.570400
34.790100 0.569800
34.817900 0.585000
34.845700 0.578900
34.873500 0.586200
34.901400 0.581900
34.929200 0.574000
34.957000 0.569200
34.984800 0.564300
35.012700 0.551800
35.040500 0.550100
35.068300 0.547400
35.096100 0.541300
35.123900 0.534500
35.151800 0.527100
35.179600 0.521900
35.207400 0.521600
35.235200 0.524900
35.263100 0.535100
35.290900 0.547200
35.318700 0.552600
35.346500 0.554500
35.374400 0.562400
35.402200 0.578100
35.430000 0.582700
35.457800 0.585200
35.485700 0.588300
35.513500 0.592200
35.541300 0.597200
35.569100 0.603900
35.597000 0.610300
35.624800 0.616400
35.652600 0.631700
35.680400 0.629100
35.708300 0.628500
35.736100 0.629300
35.763900 0.609400
35.791700 0.597600
35.819600 0.589000
35.847400 0.587600
35.875200 0.588000
35.903000 0.588600
35.930900 0.590800
35.958700 0.595300
35.986500 0.596100
36.014300 0.601600
36.042200 0.609500
36.070000 0.619400
36.097800 0.634000
36.125600 0.649300
36.153500 0.660900
36.181300 0.679000
36.209100 0.694800
36.236900 0.716400
36.264700 0.730600
36.292600 0.753100
36.320400 0.795000
36.348200 0.805600
36.376000 0.791700
36.403900 0.778900
36.431700 0.770400
36.459500 0.690800
36.487300 0.650100
36.515200 0.626600
36.543000 0.605800
36.570800 0.588800
36.598600 0.587600
36.626500 0.590800
36.654300 0.591700
36.682100 0.590700
36.709900 0.593000
36.737800 0.596700
36.765600 0.601000
36.793400 0.606600
36.821200 0.614600
36.849100 0.617000
36.876900 0.622200
36.904700 0.624200
36.932500 0.633000
36.960400 0.637100
36.988200 0.635800
37.016000 0.638800
37.043800 0.641700
37.071700 0.636600
37.099500 0.626700
37.127300 0.624500
37.155100 0.622500
37.183000 0.621500
37.210800 0.621300
37.238600 0.639100
37.266400 0.640600
37.294300 0.652000
37.322100 0.673800
37.349900 0.683300
37.377700 0.701000
37.405500 0.742200
37.433400 0.762700
37.461200 0.816100
37.489000 0.839900
37.516800 0.846900
37.544700 0.859600
37.572500 0.821000
37.600300 0.787800
37.628100 0.776600
37.656000 0.773900
37.683800 0.789300
37.711600 0.807900
37.739400 0.827300
37.767300 0.842100
37.795100 0.861600
37.822900 0.873200
37.850700 0.876300
37.878600 0.880200
37.906400 0.885000
37.934200 0.885300
37.962000 0.889700
37.989900 0.899700
38.017700 0.922600
38.045500 0.930300
38.073300 0.936500
38.101200 0.949600
38.129000 0.966800
38.156800 0.990900
38.184600 1.040700
38.212500 1.101700
38.240300 1.158500
38.268100 1.245500
38.295900 1.341600
38.323800 1.461500
38.351600 1.555000
38.379400 1.709200
38.407200 1.895200
38.435100 2.513400
38.462900 3.288800
38.490700 3.626700
38.518500 4.239000
38.546300 6.134900
38.574200 11.062500
38.602000 10.761900
38.629800 7.795800
38.657600 4.990400
38.685500 4.671400
38.713300 5.371000
38.741100 6.639300
38.768900 5.147900
38.796800 3.354000
38.824600 2.580400
38.852400 2.197700
38.880200 1.890000
38.908100 1.640300
38.935900 1.421800
38.963700 1.299500
38.991500 1.162000
39.019400 1.055900
39.047200 0.983600
39.075000 0.946500
39.102800 0.923600
39.130700 0.906400
39.158500 0.923200
39.186300 0.927400
39.214100 0.919000
39.242000 0.905100
39.269800 0.882300
39.297600 0.853700
39.325400 0.824600
39.353300 0.799600
39.381100 0.779100
39.408900 0.761100
39.436700 0.745900
39.464600 0.727800
39.492400 0.711200
39.520200 0.711500
39.548000 0.697400
39.575900 0.691600
39.603700 0.691900
39.631500 0.696900
39.659300 0.689700
39.687100 0.673100
39.715000 0.668400
39.742800 0.669500
39.770600 0.673200
39.798400 0.678100
39.826300 0.681600
39.854100 0.681900
39.881900 0.680600
39.909700 0.679900
39.937600 0.680000
39.965400 0.678200
39.993200 0.663800
40.021000 0.641900
40.048900 0.644900
40.076700 0.676000
40.104500 0.663800
40.132300 0.647200
40.160200 0.639400
40.188000 0.634300
40.215800 0.636500
40.243600 0.645200
40.271500 0.662400
40.299300 0.678500
40.327100 0.685700
40.354900 0.688800
40.382800 0.694900
40.410600 0.718600
40.438400 0.732700
40.466200 0.716700
40.494100 0.699700
40.521900 0.687000
40.549700 0.681000
40.577500 0.670100
40.605400 0.671200
40.633200 0.669900
40.661000 0.665000
40.688800 0.660500
40.716700 0.652900
40.744500 0.645700
40.772300 0.641300
40.800100 0.637300
40.827900 0.632500
40.855800 0.626900
40.883600 0.622800
40.911400 0.615700
40.939200 0.606600
40.967100 0.604500
40.994900 0.602000
41.022700 0.599400
41.050500 0.596900
41.078400 0.594500
41.106200 0.592900
41.134000 0.592200
41.161800 0.590700
41.189700 0.581300
41.217500 0.569800
41.245300 0.562000
41.273100 0.552700
41.301000 0.541100
41.328800 0.532200
41.356600 0.524400
41.384400 0.522300
41.412300 0.524800
41.440100 0.517100
41.467900 0.503400
41.495700 0.496800
41.523600 0.493600
41.551400 0.497100
41.579200 0.504800
41.607000 0.516800
41.634900 0.518900
41.662700 0.513400
41.690500 0.525100
41.718300 0.541900
41.746200 0.562300
41.774000 0.585400
41.801800 0.603000
41.829600 0.615700
41.857500 0.631200
41.885300 0.636900
41.913100 0.643800
41.940900 0.649300
41.968700 0.653900
41.996600 0.656800
42.024400 0.658700
42.052200 0.662100
42.080000 0.662900
42.107900 0.655300
42.135700 0.651600
42.163500 0.649900
42.191300 0.648100
42.219200 0.651800
42.247000 0.658500
42.274800 0.663700
42.302600 0.667800
42.330500 0.676900
42.358300 0.678500
42.386100 0.660700
42.413900 0.649900
42.441800 0.646800
42.469600 0.642400
42.497400 0.638800
42.525200 0.637700
42.553100 0.636700
42.580900 0.659300
42.608700 0.629200
42.636500 0.622600
42.664400 0.617300
42.692200 0.613100
42.720000 0.608200
42.747800 0.601300
42.775700 0.591200
42.803500 0.580600
42.831300 0.574100
42.859100 0.567900
42.887000 0.561100
42.914800 0.554700
42.942600 0.549700
42.970400 0.546400
42.998300 0.544300
43.026100 0.542900
43.053900 0.542600
43.081700 0.543500
43.109500 0.544700
43.137400 0.547300
43.165200 0.549300
43.193000 0.551500
43.220800 0.553500
43.248700 0.556100
43.276500 0.560300
43.304300 0.569500
43.332100 0.584000
43.360000 0.599900
43.387800 0.661400
43.415600 0.644100
43.443400 0.658700
43.471300 0.674900
43.499100 0.683900
43.526900 0.678400
43.554700 0.664100
43.582600 0.654000
43.610400 0.651100
43.638200 0.646900
43.666000 0.641900
43.693900 0.638500
43.721700 0.636200
43.749500 0.633800
43.777300 0.629700
43.805200 0.625900
43.833000 0.621200
43.860800 0.610400
43.888600 0.605400
43.916500 0.598700
43.944300 0.589800
43.972100 0.572700
43.999900 0.558600
44.027800 0.547300
44.055600 0.540000
44.083400 0.532300
44.111200 0.525300
44.139100 0.520400
44.166900 0.518500
44.194700 0.521200
44.222500 0.515000
44.250300 0.501300
44.278200 0.488400
44.306000 0.479400
44.333800 0.475900
44.361600 0.474600
44.389500 0.479300
44.417300 0.485000
44.445100 0.490100
44.472900 0.499200
44.500800 0.508900
44.528600 0.519200
44.556400 0.530200
44.584200 0.542000
44.612100 0.551500
44.639900 0.558500
44.667700 0.564600
44.695500 0.569100
44.723400 0.588900
44.751200 0.559000
44.779000 0.563700
44.806800 0.568100
44.834700 0.555000
44.862500 0.553600
44.890300 0.553100
44.918100 0.552100
44.946000 0.551900
44.973800 0.551200
45.001600 0.551400
45.029400 0.548500
45.057300 0.545900
45.085100 0.550300
45.112900 0.555600
45.140700 0.551300
45.168600 0.545000
45.196400 0.539100
45.224200 0.533200
45.252000 0.526500
45.279900 0.519000
45.307700 0.514300
45.335500 0.516600
45.363300 0.524400
45.391100 0.522200
45.419000 0.521100
45.446800 0.518000
45.474600 0.509000
45.502400 0.495800
45.530300 0.470900
45.558100 0.449800
45.585900 0.431600
45.613700 0.416500
45.641600 0.403800
45.669400 0.392100
45.697200 0.381400
45.725000 0.372900
45.752900 0.356700
45.780700 0.338100
45.808500 0.332700
45.836300 0.328700
45.864200 0.327400
45.892000 0.327700
45.919800 0.322400
45.947600 0.296600
45.975500 0.286100
46.003300 0.279600
46.031100 0.274200
46.058900 0.269800
46.086800 0.266400
46.114600 0.263000
46.142400 0.258100
46.170200 0.254500
46.198100 0.252500
46.225900 0.250400
46.253700 0.239900
46.281500 0.227700
46.309400 0.213900
46.337200 0.200300
46.365000 0.188000
46.392800 0.177000
46.420700 0.163700
46.448500 0.150300
46.476300 0.139300
46.504100 0.128800
46.531900 0.116600
46.559800 0.105000
46.587600 0.095000
46.615400 0.086600
46.643200 0.079500
46.671100 0.073400
46.698900 0.068000
46.726700 0.063200
46.754500 0.058700
46.782400 0.054500
46.810200 0.050500
46.838000 0.046700
46.865800 0.043100
46.893700 0.039600
46.921500 0.036400
46.949300 0.033300
46.977100 0.030300
47.005000 0.026400
47.032800 0.026800
47.060600 0.027200
47.088400 0.023600
47.116300 0.016600
47.144100 0.011400
47.171900 0.002400
47.199700 0.000300
47.227600 0.000000
47.255400 0.000000
47.283200 0.000000
47.311000 0.000000
47.338900 0.000000
47.366700 0.000000
47.394500 0.000000
47.422300 0.000000
47.450200 0.000000
47.478000 0.000000
47.505800 0.000000
47.533600 0.000000
47.561500 0.000000
47.589300 0.000000
47.617100 0.000000
47.644900 0.000000
47.672700 0.000000
47.700600 0.000000
47.728400 0.000000
47.756200 0.000000
47.784000 0.000000
47.811900 0.000000
47.839700 0.000000
47.867500 0.000000
47.895300 0.000000
47.923200 0.000000
47.951000 0.000000
47.978800 0.000000
48.006600 0.000000
48.034500 0.000000
48.062300 0.000000
48.090100 0.000000
48.117900 0.000000
48.145800 0.000000
48.173600 0.000000
48.201400 0.000000
48.229200 0.000000
48.257100 0.000000
48.284900 0.000000
48.312700 0.000000
48.340500 0.000000
48.368400 0.000000
48.396200 0.000000
48.424000 0.000000
48.451800 0.000000
48.479700 0.000000
48.507500 0.000000
48.535300 0.000000
48.563100 0.000000
48.591000 0.000000
48.618800 0.000000
48.646600 0.000000
48.674400 0.000000
48.702300 0.000000
48.730100 0.000000
48.757900 0.000000
48.785700 0.000000
48.813500 0.000000
48.841400 0.000000
48.869200 0.000000
48.897000 0.000000
48.924800 0.000000
48.952700 0.000000
48.980500 0.000000
49.008300 0.000000
49.036100 0.000000
49.064000 0.000000
49.091800 0.000000
49.119600 0.000000
49.147400 0.000000
49.175300 0.000000
49.203100 0.000000
49.230900 0.000000
49.258700 0.000000
49.286600 0.000000
49.314400 0.000000
49.342200 0.000000
49.370000 0.000000
49.397900 0.000000
49.425700 0.000000
49.453500 0.000000
49.481300 0.000000
49.509200 0.000000
49.537000 0.000000
49.564800 0.000000
49.592600 0.000000
49.620500 0.000000
49.648300 0.000000
49.676100 0.000000
49.703900 0.000000
49.731800 0.000000
49.759600 0.000000
49.787400 0.000000
49.815200 0.000000
49.843100 0.000000
49.870900 0.000000
49.898700 0.000000
49.926500 0.000000
e
