set title 'mp-13150 - Density of States'
set xlabel 'Energy (eV)'
set ylabel 'DOS (states/eV)'
set grid
set xrange [-10:10]
set yrange [0:1.520]
set xzeroaxis lt -1
set terminal png size 800,600
set output 'mp-13150_dos_gnuplot.png'
plot '-' using 1:2 with lines title 'DOS'
-21.776200 0.000000
-21.714000 0.000000
-21.651900 0.000000
-21.589700 0.000000
-21.527600 0.000000
-21.465500 0.000000
-21.403300 0.000000
-21.341200 0.000000
-21.279000 0.000000
-21.216900 0.000000
-21.154800 0.000000
-21.092600 0.000000
-21.030500 0.000000
-20.968300 0.000000
-20.906200 0.000000
-20.844100 0.000000
-20.781900 0.000000
-20.719800 0.000000
-20.657600 0.000000
-20.595500 0.000000
-20.533400 0.000000
-20.471200 0.000000
-20.409100 0.000000
-20.346900 0.000000
-20.284800 0.000000
-20.222700 0.000000
-20.160500 0.000000
-20.098400 0.000000
-20.036200 0.000000
-19.974100 0.000000
-19.912000 0.000000
-19.849800 0.000000
-19.787700 0.000000
-19.725500 0.000000
-19.663400 0.000000
-19.601300 0.000000
-19.539100 0.000000
-19.477000 0.000000
-19.414800 0.000000
-19.352700 0.000000
-19.290600 0.000000
-19.228400 0.000000
-19.166300 0.000000
-19.104100 0.000000
-19.042000 0.000000
-18.979900 0.000000
-18.917700 0.000000
-18.855600 0.000000
-18.793400 0.000000
-18.731300 0.000000
-18.669200 0.000000
-18.607000 0.000000
-18.544900 0.000000
-18.482700 0.000000
-18.420600 0.000000
-18.358500 0.000000
-18.296300 0.000000
-18.234200 0.000000
-18.172000 0.000000
-18.109900 0.000000
-18.047800 0.000000
-17.985600 0.000000
-17.923500 0.000000
-17.861300 0.000000
-17.799200 0.000000
-17.737100 0.000000
-17.674900 0.000000
-17.612800 0.000000
-17.550600 0.000000
-17.488500 0.000000
-17.426400 0.000000
-17.364200 0.000000
-17.302100 0.000000
-17.239900 0.000000
-17.177800 0.000000
-17.115700 0.000000
-17.053500 0.000000
-16.991400 0.000000
-16.929200 0.000000
-16.867100 0.000000
-16.805000 0.000000
-16.742800 0.000000
-16.680700 0.000000
-16.618500 0.000000
-16.556400 0.000000
-16.494300 0.000000
-16.432100 0.000000
-16.370000 0.000000
-16.307800 0.000000
-16.245700 0.000000
-16.183600 0.000000
-16.121400 0.002300
-16.059300 0.075800
-15.997100 0.219100
-15.935000 0.404700
-15.872900 0.413900
-15.810700 0.357000
-15.748600 0.357400
-15.686400 0.375800
-15.624300 0.394100
-15.562200 0.412500
-15.500000 0.420400
-15.437900 0.414500
-15.375700 0.397400
-15.313600 0.388200
-15.251500 0.389000
-15.189300 0.397000
-15.127200 0.405100
-15.065000 0.413100
-15.002900 0.421100
-14.940800 0.429100
-14.878600 0.437100
-14.816500 0.438700
-14.754300 0.436900
-14.692200 0.435700
-14.630100 0.439700
-14.567900 0.443700
-14.505800 0.447700
-14.443600 0.453200
-14.381500 0.460300
-14.319400 0.468000
-14.257200 0.475700
-14.195100 0.483300
-14.132900 0.491000
-14.070800 0.498700
-14.008700 0.507000
-13.946500 0.520000
-13.884400 0.537600
-13.822200 0.556300
-13.760100 0.576100
-13.698000 0.595800
-13.635800 0.615600
-13.573700 0.635400
-13.511500 0.656800
-13.449400 0.689000
-13.387300 0.725800
-13.325100 0.762700
-13.263000 0.799500
-13.200800 0.836400
-13.138700 0.882400
-13.076600 1.124300
-13.014400 2.017700
-12.952300 0.956300
-12.890100 0.847100
-12.828000 0.737800
-12.765900 0.628500
-12.703700 0.519300
-12.641600 0.567700
-12.579400 0.756100
-12.517300 0.000000
-12.455200 0.000000
-12.393000 0.000000
-12.330900 0.000000
-12.268700 0.000000
-12.206600 0.000000
-12.144500 0.000000
-12.082300 0.000000
-12.020200 0.000000
-11.958000 0.000000
-11.895900 0.000000
-11.833800 0.000000
-11.771600 0.000000
-11.709500 0.000000
-11.647300 0.000000
-11.585200 0.000000
-11.523100 0.000000
-11.460900 0.000000
-11.398800 0.000000
-11.336600 0.000000
-11.274500 0.000000
-11.212400 0.000000
-11.150200 0.000000
-11.088100 0.000000
-11.025900 0.000000
-10.963800 0.000000
-10.901700 0.000000
-10.839500 0.000000
-10.777400 0.000000
-10.715200 0.000000
-10.653100 0.000000
-10.591000 0.000000
-10.528800 0.000000
-10.466700 0.000000
-10.404500 0.000000
-10.342400 0.000000
-10.280300 0.000000
-10.218100 0.000000
-10.156000 0.000000
-10.093800 0.000000
-10.031700 0.000000
-9.969600 0.000000
-9.907400 0.000000
-9.845300 0.000000
-9.783100 0.000000
-9.721000 0.000000
-9.658900 0.000000
-9.596700 0.000000
-9.534600 0.000000
-9.472400 0.000000
-9.410300 0.000000
-9.348200 0.000000
-9.286000 0.000000
-9.223900 0.000000
-9.161700 0.000000
-9.099600 0.000000
-9.037500 0.000000
-8.975300 0.000000
-8.913200 0.000000
-8.851000 0.000000
-8.788900 0.000000
-8.726800 0.000000
-8.664600 0.000000
-8.602500 0.000000
-8.540300 0.000000
-8.478200 0.000000
-8.416100 0.000000
-8.353900 0.000000
-8.291800 0.000000
-8.229600 0.000000
-8.167500 0.000000
-8.105400 0.000000
-8.043200 0.000000
-7.981100 0.000000
-7.918900 0.000000
-7.856800 0.000000
-7.794700 0.000000
-7.732500 0.000000
-7.670400 0.000000
-7.608200 0.000000
-7.546100 0.000000
-7.484000 0.000000
-7.421800 0.000000
-7.359700 0.000000
-7.297500 0.024000
-7.235400 0.133400
-7.173300 0.258900
-7.111100 0.384400
-7.049000 0.509900
-6.986800 0.807300
-6.924700 0.989100
-6.862600 0.703900
-6.800400 0.651100
-6.738300 0.708300
-6.676100 0.765500
-6.614000 0.822700
-6.551900 0.879900
-6.489700 0.938400
-6.427600 1.005400
-6.365400 0.818200
-6.303300 0.911200
-6.241200 0.997600
-6.179000 0.421200
-6.116900 0.415000
-6.054700 0.408700
-5.992600 0.402500
-5.930500 0.396200
-5.868300 0.389900
-5.806200 0.383700
-5.744000 0.377400
-5.681900 0.371200
-5.619800 0.364900
-5.557600 0.356700
-5.495500 0.345900
-5.433300 0.335100
-5.371200 0.324300
-5.309100 0.313500
-5.246900 0.437200
-5.184800 0.436200
-5.122600 0.435200
-5.060500 0.434200
-4.998400 0.433300
-4.936200 0.432300
-4.874100 0.439300
-4.811900 0.447300
-4.749800 0.455300
-4.687700 0.463300
-4.625500 0.471300
-4.563400 0.480100
-4.501200 0.489100
-4.439100 0.498000
-4.377000 0.507000
-4.314800 0.514000
-4.252700 0.519900
-4.190500 0.534600
-4.128400 0.559500
-4.066300 0.604400
-4.004100 0.658600
-3.942000 0.671100
-3.879800 0.679600
-3.817700 0.694000
-3.755600 0.709700
-3.693400 0.725900
-3.631300 0.785000
-3.569100 0.915300
-3.507000 0.917400
-3.444900 0.924800
-3.382700 0.907900
-3.320600 0.878200
-3.258400 0.837000
-3.196300 0.789800
-3.134200 0.766500
-3.072000 0.808800
-3.009900 0.947700
-2.947700 0.998900
-2.885600 1.052800
-2.823500 1.098100
-2.761300 1.129400
-2.699200 1.161000
-2.637000 1.204400
-2.574900 1.214000
-2.512800 1.095800
-2.450600 0.956900
-2.388500 0.966800
-2.326300 0.913900
-2.264200 0.896500
-2.202100 0.894800
-2.139900 0.884500
-2.077800 0.883300
-2.015600 0.920700
-1.953500 0.972500
-1.891400 1.033500
-1.829200 1.381900
-1.767100 0.526600
-1.704900 0.567400
-1.642800 0.604500
-1.580700 0.639500
-1.518500 0.672500
-1.456400 0.706900
-1.394200 0.756800
-1.332100 0.831200
-1.270000 0.869800
-1.207800 0.900300
-1.145700 0.924100
-1.083500 0.930500
-1.021400 0.918700
-0.959300 0.882100
-0.897100 0.787000
-0.835000 0.768200
-0.772800 0.757700
-0.710700 0.748500
-0.648600 0.739900
-0.586400 0.731700
-0.524300 0.767500
-0.462100 0.750300
-0.400000 0.734200
-0.337900 0.719100
-0.275700 0.705000
-0.213600 0.691700
-0.151400 0.819700
-0.089300 0.782300
-0.027200 0.724500
0.035000 0.667500
0.097100 0.611300
0.159300 0.561100
0.221400 0.536900
0.283500 0.568500
0.345700 0.618300
0.407800 0.791600
0.470000 0.830000
0.532100 0.751200
0.594200 0.750100
0.656400 0.737300
0.718500 0.768300
0.780700 0.826300
0.842800 0.569100
0.904900 0.517800
0.967100 0.466300
1.029200 0.416800
1.091400 0.390600
1.153500 0.383500
1.215600 0.398600
1.277800 0.420100
1.339900 0.449300
1.402000 0.322500
1.464200 0.034900
1.526300 0.000000
1.588500 0.000000
1.650600 0.000000
1.712700 0.000000
1.774900 0.000000
1.837000 0.000000
1.899200 0.000000
1.961300 0.000000
2.023400 0.000000
2.085600 0.000000
2.147700 0.000000
2.209900 0.000000
2.272000 0.000000
2.334100 0.000000
2.396300 0.000000
2.458400 0.000000
2.520600 0.000000
2.582700 0.000000
2.644800 0.000000
2.707000 0.000000
2.769100 0.000000
2.831300 0.000000
2.893400 0.000000
2.955500 0.000000
3.017700 0.000000
3.079800 0.000000
3.142000 0.000000
3.204100 0.000000
3.266200 0.000000
3.328400 0.000000
3.390500 0.000000
3.452700 0.000000
3.514800 0.000000
3.576900 0.000000
3.639100 0.000000
3.701200 0.000000
3.763400 0.000000
3.825500 0.000000
3.887600 0.000000
3.949800 0.000000
4.011900 0.000000
4.074100 0.000000
4.136200 0.000000
4.198300 0.000000
4.260500 0.000000
4.322600 0.000000
4.384800 0.000000
4.446900 0.000000
4.509000 0.000000
4.571200 0.000000
4.633300 0.000000
4.695500 0.000000
4.757600 0.000000
4.819700 0.000000
4.881900 0.000000
4.944000 0.000000
5.006200 0.000000
5.068300 0.000000
5.130400 0.000000
5.192600 0.000000
5.254700 0.000000
5.316900 0.000000
5.379000 0.000000
5.441100 0.000000
5.503300 0.000000
5.565400 0.000000
5.627600 0.000000
5.689700 0.000000
5.751800 0.000000
5.814000 0.000000
5.876100 0.000000
5.938300 0.000000
6.000400 0.005600
6.062500 0.023900
6.124700 0.050500
6.186800 0.150900
6.249000 0.358900
6.311100 0.708800
6.373200 1.184900
6.435400 0.767100
6.497500 0.683300
6.559700 0.687100
6.621800 0.744100
6.683900 0.808000
6.746100 0.858800
6.808200 0.887200
6.870400 0.867400
6.932500 0.687900
6.994600 0.654300
7.056800 0.617000
7.118900 0.572800
7.181100 0.532500
7.243200 0.500800
7.305300 0.474700
7.367500 0.471800
7.429600 0.467900
7.491800 0.464600
7.553900 0.462000
7.616000 0.460500
7.678200 0.461000
7.740300 0.461900
7.802500 0.463000
7.864600 0.464300
7.926700 0.465700
7.988900 0.467800
8.051000 0.471300
8.113200 0.476200
8.175300 0.482700
8.237400 0.490600
8.299600 0.500900
8.361700 0.520700
8.423900 0.554800
8.486000 0.644700
8.548100 0.733300
8.610300 0.753200
8.672400 0.750700
8.734600 0.676300
8.796700 0.564100
8.858800 0.469600
8.921000 0.414600
8.983100 0.396400
9.045300 0.362000
9.107400 0.333200
9.169500 0.323400
9.231700 0.313300
9.293800 0.296300
9.356000 0.272500
9.418100 0.250500
9.480200 0.232700
9.542400 0.234200
9.604500 0.237500
9.666700 0.241200
9.728800 0.230500
9.790900 0.214800
9.853100 0.210200
9.915200 0.219200
9.977400 0.231200
10.039500 0.278600
10.101600 0.308400
10.163800 0.331900
10.225900 0.349000
10.288100 0.357900
10.350200 0.365600
10.412300 0.375200
10.474500 0.384800
10.536600 0.378700
10.598800 0.350100
10.660900 0.285100
10.723000 0.284200
10.785200 0.293600
10.847300 0.320300
10.909500 0.333000
10.971600 0.344100
11.033700 0.353700
11.095900 0.367100
11.158000 0.394000
11.220200 0.436300
11.282300 0.483200
11.344400 0.529800
11.406600 0.582700
11.468700 0.620400
11.530900 0.651600
11.593000 0.674200
11.655100 0.691600
11.717300 0.704100
11.779400 0.711900
11.841600 0.712300
11.903700 0.709600
11.965800 0.705100
12.028000 0.694900
12.090100 0.685300
12.152300 0.675900
12.214400 0.673600
12.276500 0.677800
12.338700 0.690200
12.400800 0.703500
12.463000 0.717000
12.525100 0.730800
12.587200 0.743000
12.649400 0.764900
12.711500 0.848200
12.773700 1.088900
12.835800 1.332700
12.897900 1.450500
12.960100 1.175000
13.022200 1.179900
13.084400 0.998600
13.146500 1.109800
13.208600 1.259700
13.270800 1.384500
13.332900 1.192300
13.395100 1.169700
13.457200 1.166400
13.519300 1.248800
13.581500 1.305500
13.643600 1.383400
13.705800 1.445000
13.767900 1.107500
13.830000 0.967100
13.892200 0.921700
13.954300 1.040000
14.016500 0.950200
14.078600 0.914000
14.140700 0.875200
14.202900 0.839900
14.265000 0.814500
14.327200 0.759900
14.389300 0.730100
14.451400 0.742300
14.513600 0.772700
14.575700 0.848900
14.637900 0.942300
14.700000 1.050600
14.762100 1.170100
14.824300 1.355900
14.886400 1.732700
14.948600 1.562000
15.010700 1.406600
15.072800 1.233500
15.135000 0.922900
15.197100 0.755000
15.259300 0.636900
15.321400 0.486100
15.383500 0.383400
15.445700 0.320900
15.507800 0.302400
15.570000 0.292600
15.632100 0.298400
15.694200 0.336500
15.756400 0.387700
15.818500 0.448400
15.880700 0.520900
15.942800 0.642000
16.004900 0.732800
16.067100 0.830000
16.129200 1.106100
16.191400 1.266400
16.253500 1.374500
16.315600 1.362900
16.377800 1.275200
16.439900 1.307300
16.502100 1.502700
16.564200 1.145600
16.626300 1.129200
16.688500 1.163700
16.750600 1.118100
16.812800 1.083100
16.874900 1.051700
16.937000 0.989600
16.999200 0.914500
17.061300 0.838100
17.123500 0.770400
17.185600 0.715300
17.247700 0.665600
17.309900 0.621800
17.372000 0.604800
17.434200 0.588100
17.496300 0.571500
17.558400 0.552900
17.620600 0.532500
17.682700 0.512700
17.744900 0.495200
17.807000 0.506100
17.869100 0.445400
17.931300 0.430100
17.993400 0.455200
18.055600 0.522800
18.117700 0.605600
18.179800 0.648300
18.242000 0.659800
18.304100 0.657800
18.366300 0.664200
18.428400 0.668700
18.490500 0.671100
18.552700 0.672900
18.614800 0.673600
18.677000 0.672800
18.739100 0.668600
18.801200 0.663800
18.863400 0.675400
18.925500 0.722700
18.987700 0.768900
19.049800 0.860200
19.111900 1.008600
19.174100 1.027200
19.236200 0.960000
19.298400 0.843500
19.360500 0.722400
19.422600 0.645800
19.484800 0.599600
19.546900 0.587500
19.609100 0.591200
19.671200 0.588000
19.733300 0.584800
19.795500 0.587600
19.857600 0.592900
19.919800 0.603000
19.981900 0.607400
20.044000 0.644800
20.106200 0.556200
20.168300 0.539700
20.230500 0.535300
20.292600 0.538300
20.354700 0.543700
20.416900 0.547900
20.479000 0.558300
20.541200 0.556400
20.603300 0.534300
20.665400 0.511000
20.727600 0.520900
20.789700 0.588000
20.851900 0.776300
20.914000 0.853600
20.976100 0.827100
21.038300 0.862700
21.100400 0.911900
21.162600 0.998100
21.224700 1.118100
21.286800 1.222700
21.349000 1.272200
21.411100 1.301700
21.473300 1.322300
21.535400 1.219900
21.597500 1.157900
21.659700 1.127700
21.721800 1.224100
21.784000 1.203900
21.846100 1.112400
21.908200 1.005000
21.970400 0.904300
22.032500 0.864700
22.094700 0.836000
22.156800 0.810200
22.218900 0.783300
22.281100 0.754600
22.343200 0.723800
22.405400 0.699000
22.467500 0.703600
22.529600 0.689900
22.591800 0.673500
22.653900 0.648000
22.716100 0.623800
22.778200 0.610900
22.840300 0.596500
22.902500 0.584300
22.964600 0.593000
23.026800 0.600300
23.088900 0.595800
23.151000 0.597200
23.213200 0.601400
23.275300 0.606900
23.337500 0.622900
23.399600 0.643100
23.461700 0.681100
23.523900 0.733100
23.586000 0.775800
23.648200 0.844000
23.710300 0.945700
23.772400 1.076400
23.834600 1.239400
23.896700 1.439800
23.958900 0.970400
24.021000 0.800900
24.083100 0.719900
24.145300 0.666500
24.207400 0.627100
24.269600 0.597100
24.331700 0.571900
24.393800 0.574500
24.456000 0.597600
24.518100 0.631700
24.580300 0.652300
24.642400 0.774900
24.704500 0.741100
24.766700 0.712000
24.828800 0.707200
24.891000 0.702600
24.953100 0.701800
25.015200 0.701900
25.077400 0.702500
25.139500 0.703700
25.201700 0.706900
25.263800 0.711000
25.325900 0.707400
25.388100 0.712000
25.450200 0.718600
25.512400 0.732400
25.574500 0.763200
25.636600 0.794400
25.698800 0.822500
25.760900 0.835300
25.823100 0.841800
25.885200 0.841800
25.947300 0.835100
26.009500 0.822200
26.071600 0.808600
26.133800 0.807500
26.195900 0.816300
26.258000 0.840400
26.320200 0.880800
26.382300 1.027800
26.444500 1.153700
26.506600 0.981300
26.568700 0.927300
26.630900 0.880300
26.693000 0.841300
26.755200 0.809700
26.817300 0.770200
26.879400 0.736300
26.941600 0.729200
27.003700 0.743300
27.065900 0.771600
27.128000 0.812100
27.190100 0.778300
27.252300 0.718000
27.314400 0.696300
27.376600 0.661100
27.438700 0.638800
27.500800 0.615500
27.563000 0.580700
27.625100 0.514700
27.687300 0.499000
27.749400 0.505500
27.811500 0.515600
27.873700 0.529200
27.935800 0.591000
27.998000 0.755800
28.060100 0.984800
28.122200 1.224600
28.184400 1.210500
28.246500 1.254800
28.308700 1.205500
28.370800 1.166000
28.432900 1.156600
28.495100 1.101700
28.557200 1.068300
28.619400 1.098100
28.681500 1.137200
28.743600 1.181800
28.805800 1.203300
28.867900 1.383500
28.930100 2.727800
28.992200 1.083600
29.054300 0.892200
29.116500 0.871500
29.178600 0.851600
29.240800 0.848800
29.302900 0.876000
29.365000 0.929500
29.427200 1.025100
29.489300 0.973500
29.551500 1.019500
29.613600 1.096900
29.675700 1.203800
29.737900 1.048900
29.800000 0.991900
29.862200 0.939900
29.924300 0.904700
29.986400 0.924400
30.048600 0.947000
30.110700 0.928300
30.172900 0.842300
30.235000 0.795100
30.297100 0.764700
30.359300 0.741300
30.421400 0.759000
30.483600 0.778600
30.545700 0.814400
30.607800 0.866700
30.670000 0.888200
30.732100 0.875800
30.794300 0.873000
30.856400 0.871200
30.918500 0.864400
30.980700 0.851800
31.042800 0.837100
31.105000 0.821600
31.167100 0.806400
31.229200 0.799100
31.291400 0.798000
31.353500 0.797900
31.415700 0.797800
31.477800 0.799300
31.539900 0.817000
31.602100 0.848100
31.664200 0.862800
31.726400 0.878300
31.788500 0.986500
31.850600 0.978900
31.912800 0.997300
31.974900 1.004000
32.037100 0.987700
32.099200 1.005900
32.161300 1.015700
32.223500 1.007800
32.285600 0.985400
32.347800 0.946900
32.409900 0.905700
32.472000 0.945700
32.534200 1.047300
32.596300 1.020200
32.658500 0.945100
32.720600 0.904600
32.782700 0.866900
32.844900 0.840600
32.907000 0.844700
32.969200 0.893600
33.031300 0.877000
33.093400 0.857100
33.155600 0.855100
33.217700 0.887300
33.279800 0.877000
33.342000 0.961900
33.404100 1.109500
33.466300 1.331600
33.528400 1.401500
33.590500 1.363100
33.652700 1.252600
33.714800 1.162200
33.777000 1.080800
33.839100 0.980300
33.901200 0.919500
33.963400 0.860200
34.025500 0.802000
34.087700 0.750700
34.149800 0.710600
34.211900 0.671700
34.274100 0.634800
34.336200 0.580100
34.398400 0.553500
34.460500 0.546600
34.522600 0.535900
34.584800 0.517200
34.646900 0.490700
34.709100 0.466700
34.771200 0.459800
34.833300 0.451900
34.895500 0.453100
34.957600 0.461800
35.019800 0.476000
35.081900 0.493700
35.144000 0.513200
35.206200 0.534400
35.268300 0.561200
35.330500 0.604400
35.392600 0.655900
35.454700 0.680700
35.516900 0.683200
35.579000 0.683200
35.641200 0.701000
35.703300 0.723200
35.765400 0.752300
35.827600 0.812700
35.889700 0.910200
35.951900 0.895100
36.014000 0.868800
36.076100 0.843700
36.138300 0.841100
36.200400 0.844500
36.262600 0.853800
36.324700 0.855800
36.386800 0.867300
36.449000 0.845100
36.511100 0.783900
36.573300 0.761400
36.635400 0.740600
36.697500 0.717300
36.759700 0.693300
36.821800 0.690400
36.884000 0.721100
36.946100 0.731700
37.008200 0.730000
37.070400 0.736800
37.132500 0.739200
37.194700 0.726900
37.256800 0.694900
37.318900 0.675900
37.381100 0.679400
37.443200 0.644500
37.505400 0.611500
37.567500 0.596800
37.629600 0.599200
37.691800 0.585800
37.753900 0.569700
37.816100 0.564400
37.878200 0.568400
37.940300 0.580300
38.002500 0.598600
38.064600 0.623500
38.126800 0.656100
38.188900 0.675300
38.251000 0.694100
38.313200 0.759500
38.375300 0.826800
38.437500 0.777500
38.499600 0.737100
38.561700 0.681600
38.623900 0.643000
38.686000 0.622100
38.748200 0.604000
38.810300 0.589700
38.872400 0.582900
38.934600 0.588900
38.996700 0.603000
39.058900 0.618400
39.121000 0.641100
39.183100 0.674800
39.245300 0.707500
39.307400 0.735700
39.369600 0.771800
39.431700 0.842600
39.493800 0.978700
39.556000 1.026000
39.618100 1.043100
39.680300 1.045600
39.742400 1.064900
39.804500 1.061900
39.866700 1.034100
39.928800 0.996200
39.991000 0.977500
40.053100 0.971000
40.115200 0.985600
40.177400 1.009800
40.239500 1.110000
40.301700 1.107800
40.363800 1.090400
40.425900 1.090400
40.488100 1.108300
40.550200 1.129600
40.612400 1.125700
40.674500 1.114900
40.736600 1.107600
40.798800 0.980400
40.860900 0.954400
40.923100 0.935000
40.985200 0.935100
41.047300 0.934400
41.109500 0.922100
41.171600 0.897900
41.233800 0.874300
41.295900 0.852400
41.358000 0.836000
41.420200 0.826200
41.482300 0.825200
41.544500 0.848300
41.606600 0.852700
41.668700 0.845700
41.730900 0.839800
41.793000 0.840800
41.855200 0.844800
41.917300 0.850100
41.979400 0.858100
42.041600 0.895300
42.103700 1.000900
42.165900 0.966900
42.228000 0.925100
42.290100 0.918700
42.352300 0.939900
42.414400 0.960200
42.476600 0.969500
42.538700 0.976700
42.600800 0.981000
42.663000 0.967500
42.725100 1.008900
42.787300 1.118700
42.849400 1.062700
42.911500 0.966300
42.973700 0.832900
43.035800 0.781800
43.098000 0.752800
43.160100 0.732400
43.222200 0.720800
43.284400 0.726500
43.346500 0.748800
43.408700 0.786500
43.470800 0.837100
43.532900 0.911500
43.595100 1.237800
43.657200 1.211800
43.719400 1.242800
43.781500 1.274800
43.843600 1.544800
43.905800 1.471600
43.967900 1.469000
44.030100 1.466200
44.092200 1.509200
44.154300 1.565300
44.216500 1.571800
44.278600 1.474000
44.340800 1.356000
44.402900 1.312100
44.465000 1.279700
44.527200 1.265300
44.589300 1.238600
44.651500 1.214200
44.713600 1.153900
44.775700 1.053300
44.837900 0.987100
44.900000 0.894500
44.962200 0.820300
45.024300 0.762700
45.086400 0.732500
45.148600 0.731800
45.210700 0.748700
45.272900 0.777300
45.335000 0.821900
45.397100 0.866400
45.459300 0.940300
45.521400 0.956800
45.583600 0.990300
45.645700 1.081100
45.707800 1.262600
45.770000 1.472100
45.832100 1.594200
45.894300 1.671000
45.956400 1.469800
46.018500 1.387400
46.080700 1.360900
46.142800 1.257500
46.205000 1.194400
46.267100 1.123400
46.329200 1.076900
46.391400 1.050300
46.453500 1.468300
46.515700 1.063800
46.577800 1.017100
46.639900 0.971000
46.702100 0.906700
46.764200 0.881400
46.826400 0.884300
46.888500 0.903400
46.950600 0.931800
47.012800 0.963400
47.074900 0.961400
47.137100 1.009800
47.199200 1.030600
47.261300 1.017200
47.323500 0.959400
47.385600 0.984400
47.447800 1.018500
47.509900 1.041500
47.572000 1.063600
47.634200 1.089700
47.696300 1.126300
47.758500 1.160800
47.820600 1.252000
47.882700 1.248900
47.944900 1.235600
48.007000 1.229100
48.069200 1.221800
48.131300 1.255900
48.193400 1.259200
48.255600 1.203600
48.317700 1.136200
48.379900 1.098500
48.442000 1.042400
48.504100 0.991400
48.566300 0.947300
48.628400 0.908300
48.690600 0.871400
48.752700 1.066000
48.814800 0.830600
48.877000 0.901600
48.939100 0.961200
49.001300 1.086100
49.063400 1.174200
49.125500 1.308500
49.187700 1.212300
49.249800 1.176700
49.312000 1.157700
49.374100 1.157400
49.436200 1.164800
49.498400 1.348600
49.560500 1.246600
49.622700 1.235500
49.684800 1.173500
49.746900 1.128900
49.809100 1.095400
49.871200 1.059500
49.933400 1.045600
49.995500 1.151000
50.057600 0.994400
50.119800 0.941000
50.181900 0.925300
50.244100 0.905100
50.306200 0.888200
50.368300 0.883000
50.430500 0.885700
50.492600 0.899500
50.554800 0.921400
50.616900 0.958900
50.679000 0.993100
50.741200 1.025200
50.803300 1.052500
50.865500 1.083500
50.927600 1.113100
50.989700 1.148000
51.051900 1.194400
51.114000 1.220300
51.176200 1.286200
51.238300 1.349700
51.300400 1.308400
51.362600 1.266600
51.424700 1.228400
51.486900 1.220100
51.549000 1.148900
51.611100 1.107900
51.673300 1.133700
51.735400 1.156000
51.797600 1.108700
51.859700 1.051500
51.921800 1.003700
51.984000 1.014500
52.046100 0.971100
52.108300 0.874800
52.170400 0.864500
52.232500 0.860900
52.294700 0.870000
52.356800 0.896600
52.419000 0.931600
52.481100 0.971000
52.543200 1.035400
52.605400 1.056800
52.667500 1.058600
52.729700 1.046400
52.791800 1.048100
52.853900 1.050100
52.916100 1.047000
52.978200 1.044600
53.040400 1.044300
53.102500 1.044100
53.164600 1.035400
53.226800 1.024100
53.288900 1.034100
53.351100 1.052400
53.413200 1.079100
53.475300 1.108200
53.537500 1.085000
53.599600 1.059300
53.661800 1.032900
53.723900 1.004100
53.786000 1.015300
53.848200 0.994800
53.910300 0.987600
53.972500 0.999500
54.034600 1.024900
54.096700 0.987700
54.158900 0.975700
54.221000 0.969000
54.283200 0.964300
54.345300 0.960700
54.407400 0.955900
54.469600 0.950000
54.531700 0.946500
54.593900 0.943200
54.656000 0.943300
54.718100 0.943500
54.780300 0.933000
54.842400 0.929900
54.904600 0.930600
54.966700 0.931200
55.028800 0.936900
55.091000 0.945500
55.153100 0.956200
55.215300 0.967700
55.277400 0.976600
55.339500 0.982600
55.401700 1.006400
55.463800 0.956600
55.526000 0.949400
55.588100 1.012900
55.650200 1.008100
55.712400 1.016000
55.774500 1.025900
55.836700 1.021600
55.898800 1.012200
55.960900 1.018700
56.023100 1.025600
56.085200 1.030300
56.147400 1.016800
56.209500 0.992400
56.271600 0.974100
56.333800 0.963300
56.395900 0.945800
56.458100 0.921600
56.520200 0.907000
56.582300 0.899100
56.644500 0.908900
56.706600 0.901400
56.768800 0.895000
56.830900 0.894700
56.893000 0.896100
56.955200 0.894500
57.017300 0.903200
57.079500 0.918300
57.141600 0.935100
57.203700 0.949700
57.265900 0.960000
57.328000 0.971700
57.390200 0.986600
57.452300 1.005600
57.514400 1.030400
57.576600 1.063700
57.638700 1.092000
57.700900 1.119900
57.763000 1.151700
57.825100 1.203400
57.887300 1.253000
57.949400 1.263300
58.011600 1.239000
58.073700 1.261400
58.135800 1.265400
58.198000 1.272500
58.260100 1.287400
58.322300 1.292700
58.384400 1.292900
58.446500 1.310600
58.508700 1.314800
58.570800 1.274800
58.633000 1.200300
58.695100 1.174100
58.757200 1.389300
58.819400 1.122100
58.881500 1.029900
58.943700 1.042100
59.005800 1.064600
59.067900 1.108800
59.130100 1.114400
59.192200 1.060200
59.254400 1.049300
59.316500 1.048900
59.378600 1.118500
59.440800 1.188200
59.502900 1.281500
59.565100 1.320700
59.627200 1.329200
59.689300 1.313900
59.751500 1.314900
59.813600 1.301600
59.875800 1.267700
59.937900 1.205900
60.000000 1.168000
60.062200 1.098300
60.124300 0.954400
60.186500 0.913100
60.248600 0.876400
60.310700 0.845200
60.372900 0.842600
60.435000 0.926300
60.497200 1.025600
60.559300 0.986000
60.621400 0.937700
60.683600 0.913800
60.745700 0.911700
60.807900 1.015600
60.870000 1.152900
60.932100 1.216000
60.994300 1.400800
61.056400 1.357100
61.118600 1.093700
61.180700 1.046100
61.242800 1.040800
61.305000 1.034100
61.367100 1.026600
61.429300 1.052800
61.491400 1.174900
61.553500 1.377200
61.615700 1.637600
61.677800 1.623500
61.740000 1.639200
61.802100 1.511100
61.864200 1.417900
61.926400 1.335000
61.988500 1.263100
62.050700 1.150700
62.112800 1.188500
62.174900 1.097000
62.237100 1.010300
62.299200 0.964300
62.361400 0.941300
62.423500 0.936700
62.485600 0.922800
62.547800 0.923900
62.609900 0.929100
62.672100 0.975100
62.734200 1.022200
62.796300 1.053800
62.858500 1.067200
62.920600 1.098200
62.982800 1.154900
63.044900 1.227000
63.107000 1.285200
63.169200 1.322000
63.231300 1.299100
63.293500 1.327100
63.355600 1.363000
63.417700 1.372600
63.479900 1.361300
63.542000 1.344700
63.604200 1.324400
63.666300 1.346000
63.728400 1.372400
63.790600 1.366200
63.852700 1.350800
63.914900 1.296600
63.977000 1.255500
64.039100 1.228300
64.101300 1.208100
64.163400 1.185300
64.225600 1.162900
64.287700 1.159800
64.349800 1.188500
64.412000 1.223100
64.474100 1.148800
64.536300 1.131400
64.598400 1.127100
64.660500 1.123300
64.722700 1.115500
64.784800 1.168600
64.847000 1.234100
64.909100 1.260800
64.971200 1.284700
65.033400 1.295900
65.095500 1.303500
65.157700 1.325700
65.219800 1.386400
65.281900 1.456800
65.344100 1.546500
65.406200 1.660400
65.468300 1.677700
65.530500 1.631200
65.592600 1.434500
65.654800 1.301500
65.716900 1.205700
65.779000 1.164300
65.841200 1.137800
65.903300 1.096500
65.965500 1.064900
66.027600 1.032500
66.089700 1.005100
66.151900 0.991500
66.214000 0.985500
66.276200 0.990100
66.338300 1.003400
66.400400 1.025000
66.462600 1.036100
66.524700 1.032200
66.586900 1.042300
66.649000 1.073100
66.711100 1.098200
66.773300 1.114500
66.835400 1.186200
66.897600 1.236600
66.959700 1.079900
67.021800 1.054800
67.084000 1.033900
67.146100 1.019100
67.208300 1.024300
67.270400 1.041200
67.332500 1.059900
67.394700 1.083800
67.456800 1.140000
67.519000 1.180800
67.581100 1.286400
67.643200 1.309900
67.705400 1.300000
67.767500 1.282200
67.829700 1.261900
67.891800 1.243000
67.953900 1.231900
68.016100 1.224200
68.078200 1.221700
68.140400 1.215900
68.202500 1.207000
68.264600 1.211200
68.326800 1.245000
68.388900 1.226900
68.451100 1.183600
68.513200 1.165200
68.575300 1.150100
68.637500 1.142000
68.699600 1.131800
68.761800 1.143000
68.823900 1.115300
68.886000 1.097200
68.948200 1.064900
69.010300 1.015700
69.072500 1.032700
69.134600 1.052500
69.196700 1.073200
69.258900 1.089700
69.321000 1.106200
69.383200 1.129900
69.445300 1.170300
69.507400 1.195000
69.569600 1.244300
69.631700 1.287600
69.693900 1.280900
69.756000 1.251500
69.818100 1.226900
69.880300 1.190300
69.942400 1.164000
70.004600 1.155300
70.066700 1.269000
70.128800 1.319000
70.191000 1.260500
70.253100 1.221200
70.315300 1.228600
70.377400 1.215200
70.439500 1.202000
70.501700 1.184600
70.563800 1.195400
70.626000 1.299600
70.688100 1.281000
70.750200 1.284600
70.812400 1.284600
70.874500 1.272100
70.936700 1.257500
70.998800 1.233000
71.060900 1.208700
71.123100 1.194600
71.185200 1.187400
71.247400 1.176900
71.309500 1.197600
71.371600 1.234300
71.433800 1.243000
71.495900 1.222100
71.558100 1.211600
71.620200 1.198300
71.682300 1.180900
71.744500 1.184700
71.806600 1.159700
71.868800 1.139800
71.930900 1.135700
71.993000 1.147300
72.055200 1.167900
72.117300 1.200000
72.179500 1.253600
72.241600 1.375600
72.303700 1.407800
72.365900 1.387000
72.428000 1.351800
72.490200 1.318500
72.552300 1.283600
72.614400 1.272400
72.676600 1.273100
72.738700 1.356400
72.800900 1.249100
72.863000 1.190500
72.925100 1.152100
72.987300 1.158400
73.049400 1.200300
73.111600 1.262300
73.173700 1.251800
73.235800 1.217000
73.298000 1.204000
73.360100 1.192000
73.422300 1.179800
73.484400 1.176400
73.546500 1.196100
73.608700 1.244300
73.670800 1.316000
73.733000 1.362400
73.795100 1.373000
73.857200 1.387200
73.919400 1.393500
73.981500 1.382900
74.043700 1.357600
74.105800 1.323500
74.167900 1.295100
74.230100 1.284600
74.292200 1.287600
74.354400 1.312400
74.416500 1.310100
74.478600 1.291300
74.540800 1.236800
74.602900 1.148700
74.665100 1.085300
74.727200 1.044100
74.789300 1.022500
74.851500 1.008500
74.913600 0.997200
74.975800 0.986200
75.037900 0.973700
75.100000 0.964600
75.162200 0.963500
75.224300 0.965500
75.286500 0.965800
75.348600 0.968900
75.410700 0.975900
75.472900 0.998200
75.535000 1.027700
75.597200 1.069500
75.659300 1.118900
75.721400 1.170800
75.783600 1.223700
75.845700 1.303100
75.907900 1.351200
75.970000 1.398800
76.032100 1.445300
76.094300 1.503100
76.156400 1.483100
76.218600 1.436900
76.280700 1.375700
76.342800 1.305000
76.405000 1.217200
76.467100 1.146100
76.529300 1.093300
76.591400 1.068400
76.653500 1.112300
76.715700 1.069200
76.777800 1.061500
76.840000 1.067700
76.902100 1.391000
76.964200 1.003000
77.026400 1.010100
77.088500 1.050000
77.150700 1.105000
77.212800 1.152400
77.274900 1.187400
77.337100 1.226500
77.399200 1.266700
77.461400 1.287600
77.523500 1.333900
77.585600 1.393500
77.647800 1.438200
77.709900 1.439600
77.772100 1.398600
77.834200 1.343100
77.896300 1.288200
77.958500 1.249800
78.020600 1.214400
78.082800 1.181200
78.144900 1.177300
78.207000 1.188400
78.269200 1.250300
78.331300 1.203000
78.393500 1.223900
78.455600 1.254600
78.517700 1.297100
78.579900 1.311000
78.642000 1.320700
78.704200 1.343400
78.766300 1.351300
78.828400 1.551600
78.890600 1.467100
78.952700 1.431300
79.014900 1.415200
79.077000 1.395100
79.139100 1.375500
79.201300 1.377300
79.263400 1.446800
79.325600 1.295500
79.387700 1.253500
79.449800 1.225300
79.512000 1.172400
79.574100 1.140200
79.636300 1.120800
79.698400 1.124200
79.760500 1.129900
79.822700 1.140000
79.884800 1.155500
79.947000 1.171600
80.009100 1.197300
80.071200 1.228700
80.133400 1.283600
80.195500 1.364400
80.257700 1.452500
80.319800 1.483200
80.381900 1.498100
80.444100 1.517400
80.506200 1.535800
80.568400 1.485800
80.630500 1.469800
80.692600 1.418300
80.754800 1.387400
80.816900 1.363500
80.879100 1.340400
80.941200 1.323300
81.003300 1.327700
81.065500 1.287700
81.127600 1.334000
81.189800 1.416200
81.251900 1.463900
81.314000 1.451900
81.376200 1.451500
81.438300 1.485200
81.500500 1.507000
81.562600 1.555600
81.624700 1.536100
81.686900 1.541700
81.749000 1.628900
81.811200 1.607800
81.873300 1.551600
81.935400 1.484000
81.997600 1.420400
82.059700 1.380600
82.121900 1.355400
82.184000 1.346800
82.246100 1.358300
82.308300 1.341500
82.370400 1.324800
82.432600 1.317000
82.494700 1.314000
82.556800 1.310800
82.619000 1.308400
82.681100 1.356200
82.743300 1.376300
82.805400 1.364200
82.867500 1.344200
82.929700 1.355100
82.991800 1.339200
83.054000 1.306500
83.116100 1.276800
83.178200 1.267300
83.240400 1.261800
83.302500 1.286700
83.364700 1.310000
83.426800 1.353100
83.488900 1.370100
83.551100 1.337500
83.613200 1.340700
83.675400 1.326800
83.737500 1.301100
83.799600 1.285500
83.861800 1.320300
83.923900 1.302800
83.986100 1.284400
84.048200 1.262600
84.110300 1.244200
84.172500 1.232900
84.234600 1.229700
84.296800 1.234000
84.358900 1.250200
84.421000 1.278700
84.483200 1.323600
84.545300 1.396300
84.607500 1.488900
84.669600 1.527600
84.731700 1.515100
84.793900 1.486200
84.856000 1.446100
84.918200 1.377600
84.980300 1.304200
85.042400 1.243300
85.104600 1.209800
85.166700 1.186300
85.228900 1.166200
85.291000 1.149400
85.353100 1.137900
85.415300 1.135700
85.477400 1.149500
85.539600 1.184200
85.601700 1.214800
85.663800 1.223700
85.726000 1.258100
85.788100 1.306100
85.850300 1.372000
85.912400 1.435900
85.974500 1.493200
86.036700 1.528800
86.098800 1.515500
86.161000 1.476400
86.223100 1.435400
86.285200 1.426300
86.347400 1.403500
86.409500 1.392200
86.471700 1.407300
86.533800 1.396100
86.595900 1.426800
86.658100 1.459000
86.720200 1.485800
86.782400 1.466600
86.844500 1.409800
86.906600 1.368800
86.968800 1.358200
87.030900 1.345500
87.093100 1.345300
87.155200 1.364700
87.217300 1.332600
87.279500 1.312900
87.341600 1.313200
87.403800 1.338900
87.465900 1.363500
87.528000 1.375100
87.590200 1.402600
87.652300 1.477000
87.714500 1.491400
87.776600 1.488500
87.838700 1.460600
87.900900 1.517600
87.963000 1.540200
88.025200 1.463000
88.087300 1.481000
88.149400 1.497000
88.211600 1.505200
88.273700 1.485700
88.335900 1.430300
88.398000 1.385700
88.460100 1.360400
88.522300 1.331400
88.584400 1.305000
88.646600 1.294600
88.708700 1.318900
88.770800 1.389400
88.833000 1.384900
88.895100 1.361100
88.957300 1.365800
89.019400 1.406600
89.081500 1.384700
89.143700 1.402500
89.205800 1.413900
89.268000 1.405200
89.330100 1.385000
89.392200 1.361200
89.454400 1.417900
89.516500 1.344600
89.578700 1.210400
89.640800 1.161900
89.702900 1.137800
89.765100 1.122500
89.827200 1.116500
89.889400 1.115500
89.951500 1.123000
90.013600 1.133700
90.075800 1.141700
90.137900 1.150500
90.200100 1.158000
90.262200 1.165300
90.324300 1.170300
90.386500 1.169900
90.448600 1.172400
90.510800 1.230800
90.572900 1.189900
90.635000 1.145800
90.697200 1.113300
90.759300 1.092700
90.821500 1.085200
90.883600 1.084700
90.945700 1.085500
91.007900 1.072200
91.070000 1.041900
91.132200 0.995200
91.194300 0.962700
91.256400 0.944200
91.318600 0.938800
91.380700 0.929900
91.442900 0.909900
91.505000 0.873900
91.567100 0.833000
91.629300 0.790600
91.691400 0.757400
91.753600 0.726100
91.815700 0.698200
91.877800 0.676700
91.940000 0.666400
92.002100 0.664600
92.064300 0.651900
92.126400 0.631300
92.188500 0.611800
92.250700 0.596600
92.312800 0.584100
92.375000 0.574700
92.437100 0.574800
92.499200 0.575100
92.561400 0.575200
92.623500 0.576700
92.685700 0.579700
92.747800 0.589100
92.809900 0.606000
92.872100 0.623600
92.934200 0.638500
92.996400 0.650700
93.058500 0.657800
93.120600 0.646400
93.182800 0.593700
93.244900 0.576500
93.307100 0.554900
93.369200 0.516000
93.431300 0.468000
93.493500 0.431600
93.555600 0.400700
93.617800 0.383000
93.679900 0.368400
93.742000 0.351900
93.804200 0.337500
93.866300 0.326600
93.928500 0.318100
93.990600 0.312100
94.052700 0.307200
94.114900 0.302000
94.177000 0.295900
94.239200 0.288900
94.301300 0.280900
94.363400 0.271900
94.425600 0.262200
94.487700 0.252600
94.549900 0.242900
94.612000 0.233300
94.674100 0.227100
94.736300 0.212700
94.798400 0.199400
94.860600 0.185400
94.922700 0.170900
94.984800 0.156100
95.047000 0.141800
95.109100 0.128800
95.171300 0.114100
95.233400 0.096600
95.295500 0.081100
95.357700 0.068400
95.419800 0.057300
95.482000 0.047200
95.544100 0.038100
95.606200 0.029900
95.668400 0.022600
95.730500 0.015800
95.792700 0.010000
95.854800 0.006500
95.916900 0.004500
95.979100 0.003300
96.041200 0.002900
96.103400 0.002500
96.165500 0.002200
96.227600 0.001900
96.289800 0.001600
96.351900 0.001400
96.414100 0.001100
96.476200 0.000900
96.538300 0.000700
96.600500 0.000500
96.662600 0.000400
96.724800 0.000200
96.786900 0.000100
96.849000 0.000000
96.911200 0.000000
96.973300 0.000000
97.035500 0.000000
97.097600 0.000000
97.159700 0.000000
97.221900 0.000000
97.284000 0.000000
97.346100 0.000000
97.408300 0.000000
97.470400 0.000000
97.532600 0.000000
97.594700 0.000000
97.656800 0.000000
97.719000 0.000000
97.781100 0.000000
97.843300 0.000000
97.905400 0.000000
97.967500 0.000000
98.029700 0.000000
98.091800 0.000000
98.154000 0.000000
98.216100 0.000000
98.278200 0.000000
98.340400 0.000000
98.402500 0.000000
98.464700 0.000000
98.526800 0.000000
98.588900 0.000000
98.651100 0.000000
98.713200 0.000000
98.775400 0.000000
98.837500 0.000000
98.899600 0.000000
98.961800 0.000000
99.023900 0.000000
99.086100 0.000000
99.148200 0.000000
99.210300 0.000000
99.272500 0.000000
99.334600 0.000000
99.396800 0.000000
99.458900 0.000000
99.521000 0.000000
99.583200 0.000000
99.645300 0.000000
99.707500 0.000000
99.769600 0.000000
99.831700 0.000000
99.893900 0.000000
99.956000 0.000000
100.018200 0.000000
100.080300 0.000000
100.142400 0.000000
100.204600 0.000000
100.266700 0.000000
100.328900 0.000000
100.391000 0.000000
100.453100 0.000000
100.515300 0.000000
100.577400 0.000000
100.639600 0.000000
100.701700 0.000000
100.763800 0.000000
100.826000 0.000000
100.888100 0.000000
100.950300 0.000000
101.012400 0.000000
101.074500 0.000000
101.136700 0.000000
101.198800 0.000000
101.261000 0.000000
101.323100 0.000000
101.385200 0.000000
101.447400 0.000000
101.509500 0.000000
101.571700 0.000000
101.633800 0.000000
101.695900 0.000000
101.758100 0.000000
101.820200 0.000000
101.882400 0.000000
101.944500 0.000000
102.006600 0.000000
102.068800 0.000000
102.130900 0.000000
102.193100 0.000000
102.255200 0.000000
102.317300 0.000000
102.379500 0.000000
102.441600 0.000000
102.503800 0.000000
e
