set title 'mp-1216611 - Density of States'
set xlabel 'Energy (eV)'
set ylabel 'DOS (states/eV)'
set grid
set xrange [-10:10]
set yrange [0:124.138]
set xzeroaxis lt -1
set terminal png size 800,600
set output 'mp-1216611_dos_gnuplot.png'
plot '-' using 1:2 with lines title 'DOS'
-9.880400 0.000000
-9.862900 0.000000
-9.845400 0.000000
-9.828000 0.000000
-9.810500 0.000000
-9.793000 0.000000
-9.775500 0.000000
-9.758000 0.000000
-9.740600 0.000000
-9.723100 0.000000
-9.705600 0.000000
-9.688100 0.000000
-9.670700 0.000000
-9.653200 0.000000
-9.635700 0.000000
-9.618200 0.000000
-9.600700 0.000000
-9.583300 0.000000
-9.565800 0.000000
-9.548300 0.000000
-9.530800 0.000000
-9.513400 0.000000
-9.495900 0.000000
-9.478400 0.000000
-9.460900 0.000000
-9.443400 0.000000
-9.426000 0.000000
-9.408500 0.000000
-9.391000 0.000000
-9.373500 0.000000
-9.356100 0.000000
-9.338600 0.000000
-9.321100 0.000000
-9.303600 0.000000
-9.286100 0.000000
-9.268700 0.000000
-9.251200 0.000000
-9.233700 0.000000
-9.216200 0.000000
-9.198800 0.000000
-9.181300 0.000000
-9.163800 0.000000
-9.146300 0.000000
-9.128800 0.000000
-9.111400 0.000000
-9.093900 0.000000
-9.076400 0.000000
-9.058900 0.000000
-9.041500 0.000000
-9.024000 0.000000
-9.006500 0.000000
-8.989000 0.000000
-8.971500 0.000000
-8.954100 0.000000
-8.936600 0.000000
-8.919100 0.000000
-8.901600 0.000000
-8.884200 0.000000
-8.866700 0.000000
-8.849200 0.000000
-8.831700 0.000000
-8.814200 0.000000
-8.796800 0.000000
-8.779300 0.000000
-8.761800 0.000000
-8.744300 0.000000
-8.726900 0.000000
-8.709400 0.000000
-8.691900 0.000000
-8.674400 0.000000
-8.656900 0.000000
-8.639500 0.000000
-8.622000 0.000000
-8.604500 0.000000
-8.587000 0.000000
-8.569600 0.000000
-8.552100 0.000000
-8.534600 0.000000
-8.517100 0.000000
-8.499600 0.000000
-8.482200 0.000000
-8.464700 0.000000
-8.447200 0.000000
-8.429700 0.000000
-8.412200 0.000000
-8.394800 0.000000
-8.377300 0.000000
-8.359800 0.000000
-8.342300 0.000000
-8.324900 0.000000
-8.307400 0.000000
-8.289900 0.492500
-8.272400 2.763600
-8.254900 3.215900
-8.237500 3.452300
-8.220000 3.997600
-8.202500 19.046000
-8.185000 22.627100
-8.167600 31.547900
-8.150100 49.626500
-8.132600 81.673700
-8.115100 52.307000
-8.097600 112.853100
-8.080200 65.631400
-8.062700 81.224200
-8.045200 54.639500
-8.027700 83.179400
-8.010300 79.633700
-7.992800 60.432600
-7.975300 81.156900
-7.957800 63.973300
-7.940300 48.261800
-7.922900 48.735600
-7.905400 73.677800
-7.887900 77.841700
-7.870400 72.889800
-7.853000 80.157900
-7.835500 77.679000
-7.818000 42.350700
-7.800500 85.505400
-7.783000 23.663200
-7.765600 13.595400
-7.748100 9.512100
-7.730600 8.454500
-7.713100 3.733300
-7.695700 0.000000
-7.678200 0.000000
-7.660700 0.000000
-7.643200 0.000000
-7.625700 0.000000
-7.608300 0.000000
-7.590800 0.000000
-7.573300 0.000000
-7.555800 0.000000
-7.538400 0.000000
-7.520900 0.000000
-7.503400 0.000000
-7.485900 0.000000
-7.468400 0.000000
-7.451000 0.000000
-7.433500 0.000000
-7.416000 0.000000
-7.398500 0.000000
-7.381100 0.000000
-7.363600 0.000000
-7.346100 0.000000
-7.328600 0.000000
-7.311100 0.000000
-7.293700 0.000000
-7.276200 0.000000
-7.258700 0.000000
-7.241200 0.000000
-7.223800 0.000000
-7.206300 0.000000
-7.188800 0.000000
-7.171300 0.000000
-7.153800 0.000000
-7.136400 0.000000
-7.118900 0.000000
-7.101400 0.000000
-7.083900 0.000000
-7.066500 0.000000
-7.049000 0.000000
-7.031500 0.000000
-7.014000 0.000000
-6.996500 0.000000
-6.979100 0.000000
-6.961600 0.000000
-6.944100 0.000000
-6.926600 0.000000
-6.909200 0.000000
-6.891700 0.000000
-6.874200 0.000000
-6.856700 0.000000
-6.839200 0.000000
-6.821800 0.000000
-6.804300 0.000000
-6.786800 0.000000
-6.769300 0.000000
-6.751900 0.000000
-6.734400 0.000000
-6.716900 0.000000
-6.699400 0.000000
-6.681900 0.000000
-6.664500 0.000000
-6.647000 0.000000
-6.629500 0.000000
-6.612000 0.000000
-6.594600 0.000000
-6.577100 0.000000
-6.559600 0.000000
-6.542100 0.000000
-6.524600 0.000000
-6.507200 0.000000
-6.489700 0.000000
-6.472200 0.000000
-6.454700 0.000000
-6.437300 0.000000
-6.419800 0.000000
-6.402300 0.000000
-6.384800 0.000000
-6.367300 0.000000
-6.349900 0.000000
-6.332400 0.000000
-6.314900 0.000000
-6.297400 0.000000
-6.280000 0.000000
-6.262500 0.000000
-6.245000 0.000000
-6.227500 0.000000
-6.210000 0.000000
-6.192600 0.000000
-6.175100 0.000000
-6.157600 0.000000
-6.140100 0.000000
-6.122700 0.000000
-6.105200 0.000000
-6.087700 0.000000
-6.070200 0.000000
-6.052700 0.000000
-6.035300 0.000000
-6.017800 0.000000
-6.000300 0.000000
-5.982800 0.000000
-5.965400 0.000000
-5.947900 0.000000
-5.930400 0.000000
-5.912900 0.000000
-5.895400 0.000000
-5.878000 0.000000
-5.860500 0.000000
-5.843000 0.000000
-5.825500 0.000000
-5.808100 0.000000
-5.790600 0.000000
-5.773100 0.000000
-5.755600 0.000000
-5.738100 0.000000
-5.720700 0.000000
-5.703200 0.000000
-5.685700 0.000000
-5.668200 0.000000
-5.650800 0.000000
-5.633300 0.000000
-5.615800 0.000000
-5.598300 0.000000
-5.580800 0.000000
-5.563400 0.000000
-5.545900 0.000000
-5.528400 1.719300
-5.510900 1.665600
-5.493500 1.783800
-5.476000 2.009100
-5.458500 2.143000
-5.441000 2.309200
-5.423500 2.764100
-5.406100 3.174000
-5.388600 3.790600
-5.371100 4.988000
-5.353600 8.581100
-5.336200 6.951100
-5.318700 5.781700
-5.301200 6.474800
-5.283700 5.820000
-5.266200 6.094300
-5.248800 7.810000
-5.231300 7.545900
-5.213800 8.095800
-5.196300 7.753900
-5.178900 19.991400
-5.161400 15.019000
-5.143900 21.897200
-5.126400 37.158700
-5.108900 18.913100
-5.091500 17.206800
-5.074000 17.189600
-5.056500 15.535400
-5.039000 13.300500
-5.021600 23.965100
-5.004100 16.139700
-4.986600 24.212600
-4.969100 19.844500
-4.951600 18.556800
-4.934200 20.496000
-4.916700 25.642700
-4.899200 25.271800
-4.881700 33.420000
-4.864300 29.547800
-4.846800 13.830600
-4.829300 8.862800
-4.811800 9.381500
-4.794300 10.776300
-4.776900 8.230600
-4.759400 3.125900
-4.741900 2.703600
-4.724400 2.000000
-4.707000 1.877800
-4.689500 1.726200
-4.672000 1.574600
-4.654500 1.391300
-4.637000 1.315600
-4.619600 1.248800
-4.602100 1.182100
-4.584600 1.340200
-4.567100 1.103000
-4.549600 0.865900
-4.532200 0.000000
-4.514700 0.000000
-4.497200 0.000000
-4.479700 0.000000
-4.462300 0.000000
-4.444800 0.000000
-4.427300 0.000000
-4.409800 0.000000
-4.392300 0.000000
-4.374900 0.000000
-4.357400 0.000000
-4.339900 0.000000
-4.322400 0.000000
-4.305000 0.000000
-4.287500 0.000000
-4.270000 0.000000
-4.252500 0.000000
-4.235000 0.000000
-4.217600 0.000000
-4.200100 0.000000
-4.182600 0.000000
-4.165100 0.000000
-4.147700 0.000000
-4.130200 0.000000
-4.112700 0.000000
-4.095200 0.000000
-4.077700 0.000000
-4.060300 0.000000
-4.042800 0.000000
-4.025300 0.000000
-4.007800 0.000000
-3.990400 0.000000
-3.972900 0.000000
-3.955400 0.000000
-3.937900 0.000000
-3.920400 0.000000
-3.903000 0.000000
-3.885500 0.000000
-3.868000 0.000000
-3.850500 0.000000
-3.833100 0.000000
-3.815600 0.000000
-3.798100 0.000000
-3.780600 0.000000
-3.763100 0.000000
-3.745700 0.000000
-3.728200 0.000000
-3.710700 0.000000
-3.693200 0.000000
-3.675800 0.000000
-3.658300 0.000000
-3.640800 0.000000
-3.623300 0.000000
-3.605800 0.000000
-3.588400 0.000000
-3.570900 0.000000
-3.553400 0.000000
-3.535900 0.000000
-3.518500 0.000000
-3.501000 0.000000
-3.483500 0.000000
-3.466000 0.000000
-3.448500 0.000000
-3.431100 0.000000
-3.413600 0.000000
-3.396100 0.000000
-3.378600 0.000000
-3.361200 0.000000
-3.343700 0.000000
-3.326200 0.000000
-3.308700 0.000000
-3.291200 0.000000
-3.273800 0.000000
-3.256300 0.000000
-3.238800 0.000000
-3.221300 0.000000
-3.203900 0.000000
-3.186400 0.000000
-3.168900 0.000000
-3.151400 0.000000
-3.133900 0.000000
-3.116500 0.000000
-3.099000 0.000000
-3.081500 0.000000
-3.064000 0.000000
-3.046600 0.000000
-3.029100 0.000000
-3.011600 0.000000
-2.994100 0.000000
-2.976600 0.000000
-2.959200 0.000000
-2.941700 0.000000
-2.924200 0.000000
-2.906700 0.000000
-2.889300 0.000000
-2.871800 0.000000
-2.854300 0.000000
-2.836800 0.000000
-2.819300 0.000000
-2.801900 0.000000
-2.784400 0.000000
-2.766900 0.000000
-2.749400 0.000000
-2.732000 0.000000
-2.714500 0.000900
-2.697000 0.013400
-2.679500 0.040300
-2.662000 0.081800
-2.644600 0.134100
-2.627100 0.182300
-2.609600 0.218000
-2.592100 0.239500
-2.574700 0.249100
-2.557200 0.253300
-2.539700 0.261400
-2.522200 0.274100
-2.504700 0.291400
-2.487300 0.312000
-2.469800 0.333100
-2.452300 0.354600
-2.434800 0.373900
-2.417400 0.389900
-2.399900 0.402500
-2.382400 0.411900
-2.364900 0.416700
-2.347400 0.418400
-2.330000 0.420100
-2.312500 0.422500
-2.295000 0.430300
-2.277500 0.441200
-2.260100 0.452700
-2.242600 0.464600
-2.225100 0.475200
-2.207600 0.485400
-2.190100 0.495500
-2.172700 0.505700
-2.155200 0.516100
-2.137700 0.526700
-2.120200 0.537400
-2.102800 0.547800
-2.085300 0.557500
-2.067800 0.566000
-2.050300 0.573300
-2.032800 0.579800
-2.015400 0.586300
-1.997900 0.593500
-1.980400 0.601400
-1.962900 0.610000
-1.945500 0.618800
-1.928000 0.627800
-1.910500 0.636900
-1.893000 0.646300
-1.875500 0.655800
-1.858100 0.665200
-1.840600 0.674600
-1.823100 0.684200
-1.805600 0.693800
-1.788200 0.703700
-1.770700 0.713900
-1.753200 0.724500
-1.735700 0.735300
-1.718200 0.746300
-1.700800 0.757500
-1.683300 0.768700
-1.665800 0.780000
-1.648300 0.791300
-1.630900 0.802300
-1.613400 0.812400
-1.595900 0.821800
-1.578400 0.830300
-1.560900 0.836600
-1.543500 0.839500
-1.526000 0.839300
-1.508500 0.836300
-1.491000 0.833900
-1.473600 0.832700
-1.456100 0.832800
-1.438600 0.833600
-1.421100 0.834200
-1.403600 0.834300
-1.386200 0.834100
-1.368700 0.833500
-1.351200 0.832600
-1.333700 0.831400
-1.316300 0.830100
-1.298800 0.829200
-1.281300 0.828900
-1.263800 0.829200
-1.246300 0.830000
-1.228900 0.830900
-1.211400 0.831800
-1.193900 0.832700
-1.176400 0.833500
-1.159000 0.834300
-1.141500 0.835100
-1.124000 0.835900
-1.106500 0.836600
-1.089000 0.837200
-1.071600 0.837800
-1.054100 0.838400
-1.036600 0.838900
-1.019100 0.839100
-1.001700 0.838800
-0.984200 0.837800
-0.966700 0.836700
-0.949200 0.835900
-0.931700 0.837300
-0.914300 0.841400
-0.896800 0.848000
-0.879300 0.856700
-0.861800 0.864900
-0.844400 0.872500
-0.826900 0.879200
-0.809400 0.885300
-0.791900 0.891600
-0.774400 0.898100
-0.757000 0.904900
-0.739500 0.912000
-0.722000 0.919400
-0.704500 0.927000
-0.687000 0.934800
-0.669600 0.942800
-0.652100 0.950400
-0.634600 0.957700
-0.617100 0.964700
-0.599700 0.971400
-0.582200 0.978100
-0.564700 0.984900
-0.547200 0.991700
-0.529700 0.998500
-0.512300 1.005600
-0.494800 1.012900
-0.477300 1.020400
-0.459800 1.028300
-0.442400 1.036300
-0.424900 1.044300
-0.407400 1.052400
-0.389900 1.060500
-0.372400 1.068500
-0.355000 1.076700
-0.337500 1.085100
-0.320000 1.093500
-0.302500 1.101900
-0.285100 1.110100
-0.267600 1.118000
-0.250100 1.125700
-0.232600 1.133200
-0.215100 1.140600
-0.197700 1.148000
-0.180200 1.155400
-0.162700 1.163000
-0.145200 1.170600
-0.127800 1.178400
-0.110300 1.186100
-0.092800 1.193900
-0.075300 1.201700
-0.057800 1.209400
-0.040400 1.217300
-0.022900 1.225100
-0.005400 1.233000
0.012100 1.241000
0.029500 1.249100
0.047000 1.257300
0.064500 1.265600
0.082000 1.274000
0.099500 1.282600
0.116900 1.291000
0.134400 1.297200
0.151900 1.301000
0.169400 1.302500
0.186800 1.302900
0.204300 1.304100
0.221800 1.305900
0.239300 1.308500
0.256800 1.311000
0.274200 1.313300
0.291700 1.315400
0.309200 1.317200
0.326700 1.318800
0.344100 1.320000
0.361600 1.321100
0.379100 1.322200
0.396600 1.323800
0.414100 1.325700
0.431500 1.327900
0.449000 1.330100
0.466500 1.332500
0.484000 1.335000
0.501400 1.337600
0.518900 1.372000
0.536400 1.442400
0.553900 1.509700
0.571400 1.573800
0.588800 1.581500
0.606300 1.563300
0.623800 1.545400
0.641300 1.528000
0.658700 1.531000
0.676200 1.536300
0.693700 1.541200
0.711200 1.545500
0.728700 1.516400
0.746100 1.480600
0.763600 1.443300
0.781100 1.414600
0.798600 1.400600
0.816000 1.387000
0.833500 1.375000
0.851000 1.365400
0.868500 1.356100
0.886000 1.347100
0.903400 1.338400
0.920900 1.329900
0.938400 1.327500
0.955900 1.346100
0.973300 1.366600
0.990800 1.386000
1.008300 1.396400
1.025800 1.398200
1.043300 1.399500
1.060700 1.400500
1.078200 1.399200
1.095700 1.394900
1.113200 1.390400
1.130600 1.386400
1.148100 1.396800
1.165600 1.406500
1.183100 1.414900
1.200600 1.419200
1.218000 1.412700
1.235500 1.405800
1.253000 1.401400
1.270500 1.366400
1.287900 1.327000
1.305400 1.291000
1.322900 1.267300
1.340400 1.261000
1.357900 1.254300
1.375300 1.247500
1.392800 1.239100
1.410300 1.231200
1.427800 1.223800
1.445200 1.217000
1.462700 1.210700
1.480200 1.205700
1.497700 1.202600
1.515200 1.206400
1.532600 1.208000
1.550100 1.209100
1.567600 1.210700
1.585100 1.213600
1.602500 1.217200
1.620000 1.221600
1.637500 1.226800
1.655000 1.232800
1.672500 1.240600
1.689900 1.250000
1.707400 1.259300
1.724900 1.269400
1.742400 1.280100
1.759800 1.291300
1.777300 1.303200
1.794800 1.315600
1.812300 1.550700
1.829800 1.865900
1.847200 1.969700
1.864700 2.020800
1.882200 1.878700
1.899700 1.785800
1.917100 1.769400
1.934600 1.732900
1.952100 1.692000
1.969600 1.647000
1.987100 1.630200
2.004500 1.609900
2.022000 1.591800
2.039500 1.598700
2.057000 1.596300
2.074400 1.563000
2.091900 1.534200
2.109400 1.522600
2.126900 1.516900
2.144400 1.512900
2.161800 1.509700
2.179300 1.514200
2.196800 1.671100
2.214300 1.794700
2.231700 1.790400
2.249200 1.737300
2.266700 1.606300
2.284200 1.609300
2.301700 1.613200
2.319100 1.617300
2.336600 1.621200
2.354100 1.623700
2.371600 1.623900
2.389000 1.617700
2.406500 1.603100
2.424000 1.595800
2.441500 1.567700
2.459000 1.566300
2.476400 1.567600
2.493900 1.571200
2.511400 1.576500
2.528900 1.582500
2.546300 1.589300
2.563800 1.596800
2.581300 1.603900
2.598800 1.609400
2.616300 1.614900
2.633700 1.620400
2.651200 1.625800
2.668700 1.631100
2.686200 1.636400
2.703600 1.641700
2.721100 1.644600
2.738600 1.649400
2.756100 1.703000
2.773600 1.788300
2.791000 1.840800
2.808500 1.844600
2.826000 1.818500
2.843500 1.789000
2.860900 1.783200
2.878400 1.782400
2.895900 1.779400
2.913400 1.774700
2.930900 1.768500
2.948300 1.763000
2.965800 1.757500
2.983300 1.750500
3.000800 1.736500
3.018200 1.718100
3.035700 1.704300
3.053200 1.691000
3.070700 1.676600
3.088200 1.661300
3.105600 1.645100
3.123100 1.628200
3.140600 1.611100
3.158100 1.587900
3.175600 1.571500
3.193000 1.555600
3.210500 1.539100
3.228000 1.522100
3.245500 1.504800
3.262900 1.487200
3.280400 1.469600
3.297900 1.449000
3.315400 1.424600
3.332900 1.402900
3.350300 1.375300
3.367800 1.333000
3.385300 1.568100
3.402800 1.169100
3.420200 1.132700
3.437700 1.100700
3.455200 1.076000
3.472700 1.052000
3.490200 1.028500
3.507600 1.006000
3.525100 0.985400
3.542600 0.965800
3.560100 0.946700
3.577500 0.930400
3.595000 0.916100
3.612500 0.902000
3.630000 0.888200
3.647500 0.874700
3.664900 0.861700
3.682400 0.849100
3.699900 0.832100
3.717400 0.818200
3.734800 0.803900
3.752300 0.985200
3.769800 1.057600
3.787300 1.076400
3.804800 1.100500
3.822200 1.032200
3.839700 0.972300
3.857200 0.983600
3.874700 0.991500
3.892100 1.000200
3.909600 1.009700
3.927100 1.020100
3.944600 1.031200
3.962100 1.043200
3.979500 1.056100
3.997000 1.069900
4.014500 1.085200
4.032000 1.102200
4.049400 1.087600
4.066900 1.104800
4.084400 1.123000
4.101900 1.141000
4.119400 1.158900
4.136800 1.168300
4.154300 1.127800
4.171800 1.207900
4.189300 1.220600
4.206700 1.205400
4.224200 1.191100
4.241700 1.148900
4.259200 1.153600
4.276700 1.232200
4.294100 1.248600
4.311600 1.229800
4.329100 1.222000
4.346600 1.240400
4.364000 1.248500
4.381500 1.254400
4.399000 1.255900
4.416500 1.258100
4.434000 1.264100
4.451400 1.260400
4.468900 1.260700
4.486400 1.267300
4.503900 1.275100
4.521300 1.283800
4.538800 1.293500
4.556300 1.304100
4.573800 1.315300
4.591300 1.326400
4.608700 1.336800
4.626200 1.346600
4.643700 1.355800
4.661200 1.364300
4.678600 1.372800
4.696100 1.381400
4.713600 1.389900
4.731100 1.397900
4.748600 1.405500
4.766000 1.412700
4.783500 1.405200
4.801000 1.394200
4.818500 1.382100
4.835900 1.371700
4.853400 1.365500
4.870900 1.358400
4.888400 1.465000
4.905900 1.446300
4.923300 1.410500
4.940800 1.401200
4.958300 1.290800
4.975800 1.534900
4.993200 1.244800
5.010700 1.338900
5.028200 1.354600
5.045700 1.371500
5.063200 1.346500
5.080600 1.361500
5.098100 1.377400
5.115600 1.400100
5.133100 1.427400
5.150500 1.456200
5.168000 1.445700
5.185500 1.468200
5.203000 1.489400
5.220500 1.511000
5.237900 1.532700
5.255400 1.554300
5.272900 1.575800
5.290400 1.597200
5.307800 1.618700
5.325300 1.642200
5.342800 1.668000
5.360300 1.695500
5.377800 1.723700
5.395200 1.753500
5.412700 1.787100
5.430200 1.824600
5.447700 1.865500
5.465100 1.911700
5.482600 1.951500
5.500100 1.980900
5.517600 2.007700
5.535100 2.031700
5.552500 2.052400
5.570000 2.071800
5.587500 2.093400
5.605000 2.118000
5.622400 2.146500
5.639900 2.167900
5.657400 2.180400
5.674900 2.187300
5.692400 2.190000
5.709800 2.192800
5.727300 2.196500
5.744800 2.201100
5.762300 2.207200
5.779700 2.216600
5.797200 2.224800
5.814700 2.276900
5.832200 2.304000
5.849700 2.329000
5.867100 2.353600
5.884600 2.350200
5.902100 2.440200
5.919600 2.464500
5.937000 2.485300
5.954500 2.356700
5.972000 2.549500
5.989500 2.768300
6.007000 2.610700
6.024400 2.516400
6.041900 2.429200
6.059400 2.339000
6.076900 2.245700
6.094300 2.150700
6.111800 2.018900
6.129300 1.945900
6.146800 1.910900
6.164300 1.900300
6.181700 1.890700
6.199200 1.882000
6.216700 1.874200
6.234200 1.867300
6.251600 1.860800
6.269100 1.885900
6.286600 1.884900
6.304100 1.884900
6.321600 1.886400
6.339000 1.890500
6.356500 1.895100
6.374000 1.900100
6.391500 1.904700
6.408900 1.908800
6.426400 1.891900
6.443900 1.890700
6.461400 1.892400
6.478900 1.921700
6.496300 1.978400
6.513800 2.023600
6.531300 2.062900
6.548800 2.135200
6.566200 2.340500
6.583700 2.265900
6.601200 2.160500
6.618700 2.135700
6.636200 2.111300
6.653600 2.087200
6.671100 2.064200
6.688600 2.042300
6.706100 2.021400
6.723500 1.997200
6.741000 1.979800
6.758500 1.957900
6.776000 1.951000
6.793500 1.940400
6.810900 1.937500
6.828400 1.958300
6.845900 1.975500
6.863400 1.982800
6.880800 1.988800
6.898300 2.005500
6.915800 1.966200
6.933300 1.941000
6.950800 1.886600
6.968200 1.809100
6.985700 1.772800
7.003200 1.769500
7.020700 1.779800
7.038200 1.789400
7.055600 1.804700
7.073100 1.826300
7.090600 1.852700
7.108100 1.868700
7.125500 1.881100
7.143000 1.893100
7.160500 1.908100
7.178000 1.925900
7.195500 1.951300
7.212900 1.979800
7.230400 2.008100
7.247900 2.035800
7.265400 2.065500
7.282800 2.098000
7.300300 2.127000
7.317800 2.150700
7.335300 2.165400
7.352800 2.177000
7.370200 2.188900
7.387700 2.203600
7.405200 2.217800
7.422700 2.231500
7.440100 2.244400
7.457600 2.256300
7.475100 2.259400
7.492600 2.258400
7.510100 2.234900
7.527500 2.193300
7.545000 2.166000
7.562500 2.161000
7.580000 2.156000
7.597400 2.155300
7.614900 2.160700
7.632400 2.176200
7.649900 2.189100
7.667400 2.201100
7.684800 2.214700
7.702300 2.224300
7.719800 2.232000
7.737300 2.240700
7.754700 2.244400
7.772200 2.237400
7.789700 2.217500
7.807200 2.211400
7.824700 2.207200
7.842100 2.199500
7.859600 2.191200
7.877100 2.176800
7.894600 2.121100
7.912000 2.058600
7.929500 1.996500
7.947000 1.944700
7.964500 1.898500
7.982000 1.856900
7.999400 1.821400
8.016900 1.791400
8.034400 1.766500
8.051900 1.746600
8.069300 1.730800
8.086800 1.717600
8.104300 1.703900
8.121800 1.709500
8.139300 1.738300
8.156700 1.759700
8.174200 1.792500
8.191700 1.840000
8.209200 1.894100
8.226600 1.984000
8.244100 2.079000
8.261600 2.122900
8.279100 2.143400
8.296600 2.163800
8.314000 2.182100
8.331500 2.195300
8.349000 2.204900
8.366500 2.212200
8.383900 2.215300
8.401400 2.217600
8.418900 2.214100
8.436400 2.210000
8.453900 2.204600
8.471300 2.189600
8.488800 2.174200
8.506300 2.163300
8.523800 2.156000
8.541200 2.153400
8.558700 2.151000
8.576200 2.144900
8.593700 2.138600
8.611200 2.149500
8.628600 2.165000
8.646100 2.179000
8.663600 2.190700
8.681100 2.200100
8.698500 2.208900
8.716000 2.218100
8.733500 2.230600
8.751000 2.335800
8.768500 2.361600
8.785900 2.386600
8.803400 2.302800
8.820900 2.336900
8.838400 2.340000
8.855800 2.342500
8.873300 2.345500
8.890800 2.352000
8.908300 2.444300
8.925800 2.471800
8.943200 2.491600
8.960700 2.510100
8.978200 2.392000
8.995700 2.405400
9.013100 2.413400
9.030600 2.404000
9.048100 2.393000
9.065600 2.354300
9.083100 2.350400
9.100500 2.362700
9.118000 2.396300
9.135500 2.426700
9.153000 2.431500
9.170400 2.436900
9.187900 2.411000
9.205400 2.373300
9.222900 2.364100
9.240400 2.448100
9.257800 2.452200
9.275300 2.454100
9.292800 2.383900
9.310300 2.373400
9.327700 2.752600
9.345200 2.391300
9.362700 2.438700
9.380200 2.436400
9.397700 2.431900
9.415100 2.426800
9.432600 2.419900
9.450100 2.367900
9.467600 2.374200
9.485000 2.384800
9.502500 2.395200
9.520000 2.392100
9.537500 2.425200
9.555000 2.475500
9.572400 2.497300
9.589900 2.517600
9.607400 2.546900
9.624900 2.583100
9.642300 2.628900
9.659800 2.582700
9.677300 2.586900
9.694800 2.593000
9.712300 2.595800
9.729700 2.586500
9.747200 2.593600
9.764700 2.611700
9.782200 2.624300
9.799600 2.639800
9.817100 2.661600
9.834600 2.692400
9.852100 2.737800
9.869600 2.785700
9.887000 2.821500
9.904500 2.878600
9.922000 2.887300
9.939500 2.870400
9.956900 2.883900
9.974400 2.881000
9.991900 2.862700
10.009400 2.845100
10.026900 2.834500
10.044300 2.872400
10.061800 2.869600
10.079300 2.873600
10.096800 2.879300
10.114200 2.932500
10.131700 2.937900
10.149200 2.943300
10.166700 2.949600
10.184200 2.870000
10.201600 2.850000
10.219100 2.829400
10.236600 2.817700
10.254100 2.815200
10.271500 2.823000
10.289000 2.841500
10.306500 2.849600
10.324000 2.855700
10.341500 2.866800
10.358900 2.884800
10.376400 2.899100
10.393900 2.922700
10.411400 2.915600
10.428800 2.900900
10.446300 2.823500
10.463800 2.725300
10.481300 2.711200
10.498800 2.707300
10.516200 2.708300
10.533700 2.707500
10.551200 2.709200
10.568700 2.711900
10.586100 2.714900
10.603600 2.714300
10.621100 2.713300
10.638600 2.710500
10.656100 2.706200
10.673500 2.697100
10.691000 2.700900
10.708500 2.699500
10.726000 2.687500
10.743500 2.674800
10.760900 2.662100
10.778400 2.651200
10.795900 2.598100
10.813400 2.583600
10.830800 2.575000
10.848300 2.567300
10.865800 2.558800
10.883300 2.552100
10.900800 2.550400
10.918200 2.528800
10.935700 2.510300
10.953200 2.495100
10.970700 2.485700
10.988100 2.481700
11.005600 2.482500
11.023100 2.489900
11.040600 2.513100
11.058100 2.527100
11.075500 2.549400
11.093000 2.583100
11.110500 2.579300
11.128000 2.578700
11.145400 2.593700
11.162900 2.609600
11.180400 2.628200
11.197900 2.650600
11.215400 2.670200
11.232800 2.692800
11.250300 2.734100
11.267800 2.795700
11.285300 2.794200
11.302700 2.760600
11.320200 2.741400
11.337700 2.725600
11.355200 2.710800
11.372700 2.698600
11.390100 2.685800
11.407600 2.673500
11.425100 2.661900
11.442600 2.655100
11.460000 2.657200
11.477500 2.662700
11.495000 2.678000
11.512500 2.709000
11.530000 2.747400
11.547400 2.749200
11.564900 2.716100
11.582400 2.653000
11.599900 2.626300
11.617300 2.620400
11.634800 2.618000
11.652300 2.619400
11.669800 2.623300
11.687300 2.625700
11.704700 2.626500
11.722200 2.629200
11.739700 2.633000
11.757200 2.636700
11.774600 2.641600
11.792100 2.653200
11.809600 2.638700
11.827100 2.620900
11.844600 2.612100
11.862000 2.630300
11.879500 2.648400
11.897000 2.657200
11.914500 2.661200
11.931900 2.661300
11.949400 2.657500
11.966900 2.649600
11.984400 2.634600
12.001900 2.616000
12.019300 2.597400
12.036800 2.587400
12.054300 2.606600
12.071800 2.673600
12.089200 2.647000
12.106700 2.622300
12.124200 2.600400
12.141700 2.584000
12.159200 2.570300
12.176600 2.562700
12.194100 2.560000
12.211600 2.552600
12.229100 2.540900
12.246500 2.529000
12.264000 2.518800
12.281500 2.513400
12.299000 2.514800
12.316500 2.514800
12.333900 2.498100
12.351400 2.480700
12.368900 2.466900
12.386400 2.444400
12.403800 2.412400
12.421300 2.380200
12.438800 2.357100
12.456300 2.342800
12.473800 2.339600
12.491200 2.342700
12.508700 2.340500
12.526200 2.342300
12.543700 2.348200
12.561100 2.356800
12.578600 2.401800
12.596100 2.423500
12.613600 2.461400
12.631100 2.479000
12.648500 2.504800
12.666000 2.514000
12.683500 2.502100
12.701000 2.472500
12.718400 2.456400
12.735900 2.447600
12.753400 2.441300
12.770900 2.437000
12.788400 2.428200
12.805800 2.417300
12.823300 2.402200
12.840800 2.384700
12.858300 2.367500
12.875700 2.358200
12.893200 2.352500
12.910700 2.344000
12.928200 2.336700
12.945700 2.359600
12.963100 2.366400
12.980600 2.350300
12.998100 2.288800
13.015600 2.257200
13.033000 2.217200
13.050500 2.181700
13.068000 2.156700
13.085500 2.139600
13.103000 2.126200
13.120400 2.115900
13.137900 2.108100
13.155400 2.102400
13.172900 2.099500
13.190300 2.097400
13.207800 2.088900
13.225300 2.082000
13.242800 2.074400
13.260300 2.069800
13.277700 2.072000
13.295200 2.079600
13.312700 2.084900
13.330200 2.086900
13.347600 2.081400
13.365100 2.068000
13.382600 2.169400
13.400100 2.247200
13.417600 2.144900
13.435000 2.055500
13.452500 2.042700
13.470000 2.039400
13.487500 2.053300
13.504900 2.052800
13.522400 2.051200
13.539900 2.049000
13.557400 2.046600
13.574900 2.045100
13.592300 2.047500
13.609800 2.051000
13.627300 2.053700
13.644800 2.061200
13.662200 2.078700
13.679700 2.100300
13.697200 2.124800
13.714700 2.152300
13.732200 2.180100
13.749600 2.206800
13.767100 2.255500
13.784600 2.254700
13.802100 2.232700
13.819500 2.240800
13.837000 2.256900
13.854500 2.262300
13.872000 2.266400
13.889500 2.278000
13.906900 2.300500
13.924400 2.318200
13.941900 2.338300
13.959400 2.315300
13.976800 2.311600
13.994300 2.309300
14.011800 2.308100
14.029300 2.307900
14.046800 2.310300
14.064200 2.315800
14.081700 2.329000
14.099200 2.351200
14.116700 2.372100
14.134100 2.387600
14.151600 2.377100
14.169100 2.365000
14.186600 2.345400
14.204100 2.325500
14.221500 2.312900
14.239000 2.303100
14.256500 2.284600
14.274000 2.273300
14.291400 2.268000
14.308900 2.262400
14.326400 2.266700
14.343900 2.287400
14.361400 2.305400
14.378800 2.316500
14.396300 2.311600
14.413800 2.299400
14.431300 2.286400
14.448700 2.293100
14.466200 2.301000
14.483700 2.311000
14.501200 2.322600
14.518700 2.334500
14.536100 2.348300
14.553600 2.363300
14.571100 2.379800
14.588600 2.391500
14.606100 2.407000
14.623500 2.422900
14.641000 2.442700
14.658500 2.463600
14.676000 2.477200
14.693400 2.490900
14.710900 2.512700
14.728400 2.571100
14.745900 2.660800
14.763400 2.778100
14.780800 2.896900
14.798300 2.823500
14.815800 2.796200
14.833300 2.725000
14.850700 2.699000
14.868200 2.692500
14.885700 2.698600
14.903200 2.719100
14.920700 2.748100
14.938100 2.846400
14.955600 2.900500
14.973100 2.930600
14.990600 2.955200
15.008000 2.972300
15.025500 2.978500
15.043000 2.974500
15.060500 2.973000
15.078000 2.972500
15.095400 2.915800
15.112900 2.893700
15.130400 2.873800
15.147900 2.849500
15.165300 2.824600
15.182800 2.805500
15.200300 2.790000
15.217800 2.762200
15.235300 2.698700
15.252700 2.624500
15.270200 2.606900
15.287700 2.594800
15.305200 2.598800
15.322600 2.595000
15.340100 2.576700
15.357600 2.587000
15.375100 2.628300
15.392600 2.654400
15.410000 2.621600
15.427500 2.609100
15.445000 2.627300
15.462500 2.638200
15.479900 2.654700
15.497400 2.684900
15.514900 2.660300
15.532400 2.687700
15.549900 2.714900
15.567300 2.745100
15.584800 2.773800
15.602300 2.788800
15.619800 2.801600
15.637200 2.831200
15.654700 2.893500
15.672200 3.001600
15.689700 3.165600
15.707200 3.137900
15.724600 3.076400
15.742100 3.071100
15.759600 3.085400
15.777100 3.069400
15.794500 3.029000
15.812000 2.962100
15.829500 2.890500
15.847000 2.793500
15.864500 2.698500
15.881900 2.706800
15.899400 2.747600
15.916900 2.803000
15.934400 2.839000
15.951800 2.854300
15.969300 2.786900
15.986800 2.789200
16.004300 2.797500
16.021800 2.810000
16.039200 2.873600
16.056700 2.885200
16.074200 2.892700
16.091700 2.883500
16.109100 2.855700
16.126600 2.827000
16.144100 2.810100
16.161600 2.792900
16.179100 2.773100
16.196500 2.752700
16.214000 2.735500
16.231500 2.717700
16.249000 2.699300
16.266400 2.687600
16.283900 2.677000
16.301400 2.680900
16.318900 2.692500
16.336400 2.713000
16.353800 2.743500
16.371300 2.766000
16.388800 2.778100
16.406300 2.805900
16.423700 2.836400
16.441200 2.872200
16.458700 2.934400
16.476200 2.993200
16.493700 3.000500
16.511100 3.051500
16.528600 3.104900
16.546100 3.156300
16.563600 3.190400
16.581000 3.221900
16.598500 3.249200
16.616000 3.269800
16.633500 3.286800
16.651000 3.300600
16.668400 3.313000
16.685900 3.323900
16.703400 3.332200
16.720900 3.360400
16.738300 3.408300
16.755800 3.339800
16.773300 3.252900
16.790800 3.174000
16.808300 3.647600
16.825700 3.111200
16.843200 3.072300
16.860700 3.087400
16.878200 3.129400
16.895600 3.167600
16.913100 3.232000
16.930600 3.298000
16.948100 3.364000
16.965600 3.418600
16.983000 3.464800
17.000500 3.505700
17.018000 3.526700
17.035500 3.539100
17.052900 3.551000
17.070400 3.558200
17.087900 3.561100
17.105400 3.571500
17.122900 3.578900
17.140300 3.585400
17.157800 3.590500
17.175300 3.595100
17.192800 3.605200
17.210200 3.619900
17.227700 3.640000
17.245200 3.673000
17.262700 3.706400
17.280200 3.730900
17.297600 3.745600
17.315100 3.744400
17.332600 3.726900
17.350100 3.722100
17.367500 3.684000
17.385000 3.646800
17.402500 3.634800
17.420000 3.668900
17.437500 3.723500
17.454900 3.779600
17.472400 3.848900
17.489900 3.863100
17.507400 3.694100
17.524800 3.751900
17.542300 3.884300
17.559800 4.137000
17.577300 4.442800
17.594800 4.551600
17.612200 4.651100
17.629700 4.780300
17.647200 4.643900
17.664700 4.434000
17.682100 4.357600
17.699600 4.295900
17.717100 4.242600
17.734600 4.303000
17.752100 4.278600
17.769500 4.380700
17.787000 4.141600
17.804500 3.986700
17.822000 3.883000
17.839400 3.750300
17.856900 3.647600
17.874400 3.575500
17.891900 3.460600
17.909400 3.414100
17.926800 3.452000
17.944300 3.487500
17.961800 3.529600
17.979300 3.555600
17.996700 3.558700
18.014200 3.563600
18.031700 3.506900
18.049200 3.469900
18.066700 3.486600
18.084100 3.512900
18.101600 3.567500
18.119100 3.637500
18.136600 3.700100
18.154000 3.755600
18.171500 3.776900
18.189000 3.727700
18.206500 3.653700
18.224000 3.567500
18.241400 3.492500
18.258900 3.447500
18.276400 3.417200
18.293900 3.440800
18.311300 3.261600
18.328800 3.062500
18.346300 2.970600
18.363800 2.937800
18.381300 2.913600
18.398700 2.897000
18.416200 2.884600
18.433700 2.875300
18.451200 2.872400
18.468700 2.874200
18.486100 2.886200
18.503600 2.916200
18.521100 2.945100
18.538600 2.932200
18.556000 2.911000
18.573500 2.908900
18.591000 2.919000
18.608500 2.943700
18.626000 2.949200
18.643400 2.904600
18.660900 2.861500
18.678400 2.840400
18.695900 2.820100
18.713300 2.801300
18.730800 2.773900
18.748300 2.751700
18.765800 2.732700
18.783300 2.716500
18.800700 2.702200
18.818200 2.692200
18.835700 2.688800
18.853200 2.687100
18.870600 2.693200
18.888100 2.712600
18.905600 2.711100
18.923100 2.687200
18.940600 2.648300
18.958000 2.594100
18.975500 2.547200
18.993000 2.508900
19.010500 2.472000
19.027900 2.437100
19.045400 2.396900
19.062900 2.359200
19.080400 2.326500
19.097900 2.300000
19.115300 2.279400
19.132800 2.263800
19.150300 2.253200
19.167800 2.252100
19.185200 2.287200
19.202700 2.330900
19.220200 2.382200
19.237700 2.433200
19.255200 2.483900
19.272600 2.457500
19.290100 2.444200
19.307600 2.442600
19.325100 2.464400
19.342500 2.468200
19.360000 2.458300
19.377500 2.451500
19.395000 2.448500
19.412500 2.447100
19.429900 2.429600
19.447400 2.422500
19.464900 2.416500
19.482400 2.411700
19.499800 2.418800
19.517300 2.440000
19.534800 2.435800
19.552300 2.422900
19.569800 2.412300
19.587200 2.404500
19.604700 2.399300
19.622200 2.350700
19.639700 2.307300
19.657100 2.267600
19.674600 2.230800
19.692100 2.197200
19.709600 2.171200
19.727100 2.147900
19.744500 2.127200
19.762000 2.110500
19.779500 2.102700
19.797000 2.097200
19.814400 2.108400
19.831900 2.140800
19.849400 2.187700
19.866900 2.246900
19.884400 2.315100
19.901800 2.392300
19.919300 2.548400
19.936800 2.716400
19.954300 2.778100
19.971700 2.806200
19.989200 2.810000
20.006700 2.790500
20.024200 2.662000
20.041700 2.747500
20.059100 2.868100
20.076600 3.167300
20.094100 3.461600
20.111600 3.529100
20.129000 3.554300
20.146500 3.529600
20.164000 3.583000
20.181500 3.375100
20.199000 3.430200
20.216400 3.437200
20.233900 3.418900
20.251400 3.445000
20.268900 3.423700
20.286300 3.402500
20.303800 3.356600
20.321300 3.282900
20.338800 3.207000
20.356300 3.165800
20.373700 3.169400
20.391200 3.283700
20.408700 3.394000
20.426200 3.403600
20.443600 3.438500
20.461100 3.395400
20.478600 3.277600
20.496100 3.237800
20.513600 3.264000
20.531000 3.280800
20.548500 3.305900
20.566000 3.328400
20.583500 3.367900
20.600900 3.420400
20.618400 3.484000
20.635900 3.545800
20.653400 3.602600
20.670900 3.665300
20.688300 3.706100
20.705800 3.729700
20.723300 3.759600
20.740800 3.879500
20.758200 3.962500
20.775700 3.953900
20.793200 3.942800
20.810700 3.944000
20.828200 3.966100
20.845600 4.001600
20.863100 4.036000
20.880600 4.072300
20.898100 4.114500
20.915500 4.155000
20.933000 4.192200
20.950500 4.266400
20.968000 4.157600
20.985500 4.121800
21.002900 4.110200
21.020400 4.091300
21.037900 4.071100
21.055400 4.034600
21.072800 3.962000
21.090300 3.862100
21.107800 3.843700
21.125300 3.823600
21.142800 3.696900
21.160200 3.699900
21.177700 3.718100
21.195200 3.740200
21.212700 3.749700
21.230100 3.759500
21.247600 3.790700
21.265100 3.825200
21.282600 3.811900
21.300100 3.772400
21.317500 3.726000
21.335000 3.652700
21.352500 3.577400
21.370000 3.514700
21.387400 3.468400
21.404900 3.436400
21.422400 3.422900
21.439900 3.435900
21.457400 3.473300
21.474800 3.535100
21.492300 3.572600
21.509800 3.595600
21.527300 3.619600
21.544700 3.650600
21.562200 3.662600
21.579700 3.677400
21.597200 3.704700
21.614700 3.741600
21.632100 3.774600
21.649600 3.836500
21.667100 3.835400
21.684600 3.738200
21.702000 3.665400
21.719500 3.513800
21.737000 3.340300
21.754500 3.228400
21.772000 3.205800
21.789400 3.210300
21.806900 3.241100
21.824400 3.299000
21.841900 3.371100
21.859300 3.445700
21.876800 3.494800
21.894300 3.518300
21.911800 3.556600
21.929300 3.521100
21.946700 3.494700
21.964200 3.476900
21.981700 3.447500
21.999200 3.397200
22.016600 3.343800
22.034100 3.277100
22.051600 3.205600
22.069100 3.146900
22.086600 3.100800
22.104000 3.038100
22.121500 2.955200
22.139000 2.857800
22.156500 2.775400
22.173900 2.695800
22.191400 2.531700
22.208900 2.298500
22.226400 2.160700
22.243900 2.040200
22.261300 1.929300
22.278800 1.835200
22.296300 1.752200
22.313800 1.685500
22.331300 1.632900
22.348700 1.586800
22.366200 1.545400
22.383700 1.506000
22.401200 1.468500
22.418600 1.431000
22.436100 1.395900
22.453600 1.365100
22.471100 1.333000
22.488600 1.300400
22.506000 1.268100
22.523500 1.236400
22.541000 1.205100
22.558500 1.173900
22.575900 1.136100
22.593400 1.014900
22.610900 0.958700
22.628400 0.940300
22.645900 0.922300
22.663300 0.904500
22.680800 0.883300
22.698300 0.866900
22.715800 0.850400
22.733200 0.843600
22.750700 0.850000
22.768200 0.842900
22.785700 0.809100
22.803200 0.776200
22.820600 0.744400
22.838100 0.712900
22.855600 0.681700
22.873100 0.650600
22.890500 0.632700
22.908000 0.614100
22.925500 0.594500
22.943000 0.574000
22.960500 0.552600
22.977900 0.530100
22.995400 0.504400
23.012900 0.512700
23.030400 0.437700
23.047800 0.382300
23.065300 0.339600
23.082800 0.302900
23.100300 0.272100
23.117800 0.242300
23.135200 0.215600
23.152700 0.192500
23.170200 0.172600
23.187700 0.154100
23.205100 0.136800
23.222600 0.120400
23.240100 0.104900
23.257600 0.090200
23.275100 0.076400
23.292500 0.063400
23.310000 0.051300
23.327500 0.040100
23.345000 0.031000
23.362400 0.023500
23.379900 0.017000
23.397400 0.011400
23.414900 0.006800
23.432400 0.003400
23.449800 0.001200
23.467300 0.000100
23.484800 0.000000
23.502300 0.000000
23.519700 0.000000
23.537200 0.000000
23.554700 0.000000
23.572200 0.000000
23.589700 0.000000
23.607100 0.000000
23.624600 0.000000
23.642100 0.000000
23.659600 0.000000
23.677000 0.000000
23.694500 0.000000
23.712000 0.000000
23.729500 0.000000
23.747000 0.000000
23.764400 0.000000
23.781900 0.000000
23.799400 0.000000
23.816900 0.000000
23.834300 0.000000
23.851800 0.000000
23.869300 0.000000
23.886800 0.000000
23.904300 0.000000
23.921700 0.000000
23.939200 0.000000
23.956700 0.000000
23.974200 0.000000
23.991600 0.000000
24.009100 0.000000
24.026600 0.000000
24.044100 0.000000
24.061600 0.000000
24.079000 0.000000
24.096500 0.000000
24.114000 0.000000
24.131500 0.000000
24.148900 0.000000
24.166400 0.000000
24.183900 0.000000
24.201400 0.000000
24.218900 0.000000
24.236300 0.000000
24.253800 0.000000
24.271300 0.000000
24.288800 0.000000
24.306200 0.000000
24.323700 0.000000
24.341200 0.000000
24.358700 0.000000
24.376200 0.000000
24.393600 0.000000
24.411100 0.000000
24.428600 0.000000
24.446100 0.000000
24.463500 0.000000
24.481000 0.000000
24.498500 0.000000
24.516000 0.000000
24.533500 0.000000
24.550900 0.000000
24.568400 0.000000
24.585900 0.000000
24.603400 0.000000
24.620800 0.000000
24.638300 0.000000
24.655800 0.000000
24.673300 0.000000
24.690800 0.000000
24.708200 0.000000
24.725700 0.000000
24.743200 0.000000
24.760700 0.000000
24.778100 0.000000
24.795600 0.000000
24.813100 0.000000
24.830600 0.000000
24.848100 0.000000
24.865500 0.000000
24.883000 0.000000
24.900500 0.000000
24.918000 0.000000
24.935400 0.000000
24.952900 0.000000
24.970400 0.000000
24.987900 0.000000
25.005400 0.000000
25.022800 0.000000
25.040300 0.000000
25.057800 0.000000
25.075300 0.000000
e
