set title 'mp-1228933 - Density of States'
set xlabel 'Energy (eV)'
set ylabel 'DOS (states/eV)'
set grid
set xrange [-10:10]
set yrange [0:13.524]
set xzeroaxis lt -1
set terminal png size 800,600
set output 'mp-1228933_dos_gnuplot.png'
plot '-' using 1:2 with lines title 'DOS'
-7.174400 0.000000
-7.144900 0.000000
-7.115500 0.000000
-7.086000 0.000000
-7.056500 0.000000
-7.027100 0.000000
-6.997600 0.000000
-6.968200 0.000000
-6.938700 0.000000
-6.909300 0.000000
-6.879800 0.000000
-6.850400 0.000000
-6.820900 0.000000
-6.791500 0.000000
-6.762000 0.000000
-6.732600 0.000000
-6.703100 0.000000
-6.673700 0.000000
-6.644200 0.000000
-6.614800 0.000000
-6.585300 0.000000
-6.555900 0.000000
-6.526400 0.000000
-6.497000 0.000000
-6.467500 0.000000
-6.438100 0.000000
-6.408600 0.000000
-6.379200 0.000000
-6.349700 0.000000
-6.320300 0.000000
-6.290800 0.000000
-6.261400 0.000000
-6.231900 0.000000
-6.202500 0.000000
-6.173000 0.000000
-6.143600 0.000000
-6.114100 0.000000
-6.084700 0.000000
-6.055200 0.000000
-6.025700 0.000000
-5.996300 0.000000
-5.966800 0.000000
-5.937400 0.000000
-5.907900 0.000000
-5.878500 0.000000
-5.849000 0.000000
-5.819600 0.000000
-5.790100 0.000000
-5.760700 0.000000
-5.731200 0.000000
-5.701800 0.000000
-5.672300 0.000000
-5.642900 0.000000
-5.613400 0.000000
-5.584000 0.000000
-5.554500 0.000000
-5.525100 0.000000
-5.495600 0.000000
-5.466200 0.000000
-5.436700 0.000000
-5.407300 0.000000
-5.377800 0.000000
-5.348400 0.000000
-5.318900 0.000000
-5.289500 0.000000
-5.260000 0.000000
-5.230600 0.000000
-5.201100 0.000000
-5.171700 0.000000
-5.142200 0.000000
-5.112800 0.000000
-5.083300 0.000000
-5.053900 0.000000
-5.024400 0.000000
-4.994900 0.000000
-4.965500 0.000000
-4.936000 0.000000
-4.906600 0.000000
-4.877100 0.000000
-4.847700 0.000000
-4.818200 0.000000
-4.788800 0.000000
-4.759300 0.000000
-4.729900 0.000000
-4.700400 0.000000
-4.671000 0.000000
-4.641500 0.000000
-4.612100 0.000000
-4.582600 0.000000
-4.553200 0.000000
-4.523700 0.000000
-4.494300 0.000000
-4.464800 0.000000
-4.435400 0.000000
-4.405900 0.000400
-4.376500 0.021900
-4.347000 0.052100
-4.317600 0.082200
-4.288100 0.112400
-4.258700 0.142500
-4.229200 0.172700
-4.199800 0.162400
-4.170300 0.106600
-4.140900 0.109200
-4.111400 0.111800
-4.082000 0.114400
-4.052500 0.117000
-4.023100 0.119600
-3.993600 0.122200
-3.964100 0.124800
-3.934700 0.127400
-3.905200 0.130000
-3.875800 0.132600
-3.846300 0.135200
-3.816900 0.137800
-3.787400 0.138700
-3.758000 0.135800
-3.728500 0.132800
-3.699100 0.129900
-3.669600 0.127000
-3.640200 0.124100
-3.610700 0.121100
-3.581300 0.120600
-3.551800 0.121600
-3.522400 0.122600
-3.492900 0.123600
-3.463500 0.124500
-3.434000 0.125500
-3.404600 0.126500
-3.375100 0.127500
-3.345700 0.128500
-3.316200 0.129500
-3.286800 0.130400
-3.257300 0.131400
-3.227900 0.132400
-3.198400 0.133400
-3.169000 0.134400
-3.139500 0.135400
-3.110100 0.136400
-3.080600 0.137300
-3.051200 0.138300
-3.021700 0.139300
-2.992300 0.130300
-2.962800 0.130300
-2.933300 0.130300
-2.903900 0.130300
-2.874400 0.130300
-2.845000 0.130200
-2.815500 0.130200
-2.786100 0.130200
-2.756600 0.130200
-2.727200 0.130100
-2.697700 0.130100
-2.668300 0.130100
-2.638800 0.130100
-2.609400 0.130600
-2.579900 0.131100
-2.550500 0.131700
-2.521000 0.132300
-2.491600 0.132900
-2.462100 0.133500
-2.432700 0.134000
-2.403200 0.134600
-2.373800 0.135200
-2.344300 0.135800
-2.314900 0.136400
-2.285400 0.136900
-2.256000 0.137500
-2.226500 0.138100
-2.197100 0.138700
-2.167600 0.139300
-2.138200 0.139800
-2.108700 0.140400
-2.079300 0.141000
-2.049800 0.141100
-2.020400 0.144600
-1.990900 0.150600
-1.961500 0.158300
-1.932000 0.167500
-1.902500 0.177900
-1.873100 0.189800
-1.843600 0.203200
-1.814200 0.201300
-1.784700 0.203600
-1.755300 0.206600
-1.725800 0.210800
-1.696400 0.214900
-1.666900 0.219200
-1.637500 0.223900
-1.608000 0.228800
-1.578600 0.233800
-1.549100 0.239400
-1.519700 0.246000
-1.490200 0.252100
-1.460800 0.257600
-1.431300 0.262600
-1.401900 0.266400
-1.372400 0.267800
-1.343000 0.265700
-1.313500 0.262200
-1.284100 0.263400
-1.254600 0.264400
-1.225200 0.265200
-1.195700 0.266600
-1.166300 0.270600
-1.136800 0.275400
-1.107400 0.280700
-1.077900 0.286500
-1.048500 0.292800
-1.019000 0.299300
-0.989600 0.301800
-0.960100 0.304500
-0.930700 0.307200
-0.901200 0.310000
-0.871700 0.313200
-0.842300 0.316600
-0.812800 0.319000
-0.783400 0.322700
-0.753900 0.326500
-0.724500 0.330600
-0.695000 0.334900
-0.665600 0.339400
-0.636100 0.343900
-0.606700 0.348400
-0.577200 0.353000
-0.547800 0.356100
-0.518300 0.359700
-0.488900 0.363300
-0.459400 0.367200
-0.430000 0.371100
-0.400500 0.374900
-0.371100 0.378800
-0.341600 0.382800
-0.312200 0.386800
-0.282700 0.390900
-0.253300 0.395100
-0.223800 0.399300
-0.194400 0.403500
-0.164900 0.407600
-0.135500 0.412100
-0.106000 0.416800
-0.076600 0.421600
-0.047100 0.426500
-0.017700 0.431500
0.011800 0.436500
0.041200 0.442600
0.070700 0.448900
0.100100 0.454900
0.129600 0.461000
0.159000 0.466700
0.188500 0.471600
0.218000 0.475700
0.247400 0.479100
0.276900 0.481700
0.306300 0.488700
0.335800 0.501000
0.365200 0.510200
0.394700 0.516800
0.424100 0.523700
0.453600 0.530900
0.483000 0.539000
0.512500 0.548800
0.541900 0.559000
0.571400 0.569800
0.600800 0.581300
0.630300 0.593900
0.659700 0.606900
0.689200 0.620400
0.718600 0.634200
0.748100 0.648200
0.777500 0.662400
0.807000 0.677000
0.836400 0.692100
0.865900 0.707300
0.895300 0.723000
0.924800 0.936500
0.954200 0.918300
0.983700 0.900600
1.013100 0.884100
1.042600 0.870000
1.072000 0.856900
1.101500 0.844700
1.130900 0.833500
1.160400 0.823800
1.189800 0.828100
1.219300 0.849500
1.248800 0.875100
1.278200 0.900600
1.307700 0.925400
1.337100 0.950400
1.366600 0.993200
1.396000 1.110800
1.425500 1.346000
1.454900 1.549800
1.484400 1.683200
1.513800 1.941000
1.543300 1.851200
1.572700 2.014300
1.602200 2.357400
1.631600 2.628300
1.661100 2.619800
1.690500 2.566100
1.720000 2.464100
1.749400 2.081200
1.778900 2.100500
1.808300 2.192400
1.837800 2.318700
1.867200 2.459300
1.896700 2.564700
1.926100 2.476500
1.955600 2.505500
1.985000 2.548300
2.014500 2.683000
2.043900 2.793000
2.073400 3.096300
2.102800 3.604300
2.132300 4.062200
2.161700 3.797000
2.191200 3.829300
2.220600 4.083400
2.250100 4.685300
2.279600 4.417500
2.309000 3.884400
2.338500 3.899600
2.367900 3.886100
2.397400 3.855700
2.426800 4.003900
2.456300 3.936100
2.485700 4.181800
2.515200 5.057600
2.544600 4.755300
2.574100 3.414600
2.603500 3.917600
2.633000 4.241700
2.662400 4.158600
2.691900 3.995900
2.721300 3.579500
2.750800 3.138700
2.780200 3.279500
2.809700 3.665300
2.839100 4.270700
2.868600 3.196400
2.898000 3.321900
2.927500 3.892600
2.956900 4.394400
2.986400 4.226200
3.015800 3.644900
3.045300 3.714000
3.074700 3.782500
3.104200 4.119800
3.133600 3.867900
3.163100 4.719100
3.192500 4.223900
3.222000 4.191000
3.251400 4.354300
3.280900 4.590200
3.310400 4.460400
3.339800 4.372200
3.369300 6.047200
3.398700 4.754200
3.428200 4.599900
3.457600 4.328500
3.487100 4.210500
3.516500 4.689200
3.546000 5.157400
3.575400 7.486800
3.604900 5.394200
3.634300 6.133100
3.663800 7.445700
3.693200 7.292900
3.722700 5.764800
3.752100 7.383100
3.781600 8.017900
3.811000 9.006200
3.840500 6.337300
3.869900 6.580400
3.899400 4.785900
3.928800 6.129700
3.958300 5.319900
3.987700 5.710500
4.017200 7.690300
4.046600 5.510700
4.076100 3.937200
4.105500 3.668500
4.135000 3.714800
4.164400 4.655900
4.193900 12.294900
4.223300 6.427200
4.252800 4.953800
4.282200 4.622700
4.311700 4.593800
4.341200 5.367200
4.370600 5.450400
4.400100 4.857200
4.429500 5.188800
4.459000 4.624100
4.488400 3.953300
4.517900 4.183900
4.547300 5.043100
4.576800 5.531900
4.606200 4.273800
4.635700 5.646200
4.665100 4.810500
4.694600 4.513000
4.724000 4.704000
4.753500 4.514300
4.782900 4.937900
4.812400 7.384100
4.841800 8.646300
4.871300 6.794800
4.900700 7.617000
4.930200 7.581200
4.959600 5.846800
4.989100 5.706500
5.018500 5.541700
5.048000 4.876500
5.077400 4.368100
5.106900 4.093600
5.136300 4.055200
5.165800 4.023300
5.195200 3.988700
5.224700 6.513700
5.254100 6.315900
5.283600 5.774600
5.313000 4.749200
5.342500 4.278900
5.372000 7.891300
5.401400 5.312700
5.430900 4.877400
5.460300 6.690000
5.489800 7.541900
5.519200 10.191800
5.548700 6.301800
5.578100 2.650800
5.607600 2.120400
5.637000 1.871900
5.666500 1.872800
5.695900 1.928200
5.725400 1.895200
5.754800 1.867500
5.784300 1.832400
5.813700 1.781200
5.843200 1.709500
5.872600 1.670900
5.902100 1.635400
5.931500 1.594900
5.961000 1.538200
5.990400 1.516500
6.019900 1.493300
6.049300 1.480300
6.078800 1.462200
6.108200 1.441500
6.137700 1.450900
6.167100 1.450300
6.196600 1.441500
6.226000 1.434200
6.255500 1.436800
6.284900 1.333800
6.314400 1.278000
6.343800 1.014900
6.373300 0.989100
6.402800 0.967000
6.432200 0.948500
6.461700 0.933300
6.491100 0.918400
6.520600 0.905200
6.550000 0.894600
6.579500 0.886900
6.608900 0.877300
6.638400 0.867900
6.667800 0.857700
6.697300 0.841600
6.726700 0.826000
6.756200 0.818300
6.785600 0.826200
6.815100 0.842100
6.844500 0.859800
6.874000 0.880400
6.903400 0.907000
6.932900 0.942900
6.962300 0.991100
6.991800 1.039100
7.021200 1.069100
7.050700 1.071700
7.080100 1.082800
7.109600 1.132800
7.139000 1.201100
7.168500 1.229400
7.197900 1.008500
7.227400 0.619300
7.256800 0.582200
7.286300 0.572200
7.315700 0.573900
7.345200 0.581400
7.374600 0.591900
7.404100 0.603100
7.433600 0.614300
7.463000 0.628500
7.492500 0.647400
7.521900 0.667600
7.551400 0.679000
7.580800 0.682200
7.610300 0.680900
7.639700 0.687500
7.669200 0.695300
7.698600 0.705600
7.728100 0.717900
7.757500 0.729200
7.787000 0.736700
7.816400 0.739400
7.845900 0.737100
7.875300 0.731900
7.904800 0.717900
7.934200 0.694400
7.963700 0.666700
7.993100 0.648900
8.022600 0.645200
8.052000 0.633800
8.081500 0.614100
8.110900 0.598700
8.140400 0.588400
8.169800 0.583500
8.199300 0.582100
8.228700 0.582100
8.258200 0.583400
8.287600 0.586200
8.317100 0.592700
8.346500 0.605800
8.376000 0.625400
8.405400 0.647100
8.434900 0.666200
8.464400 0.691100
8.493800 0.713700
8.523300 0.734800
8.552700 0.777400
8.582200 0.832300
8.611600 0.884700
8.641100 0.907800
8.670500 0.908000
8.700000 0.831200
8.729400 0.741500
8.758900 0.637100
8.788300 0.629100
8.817800 0.631700
8.847200 0.626500
8.876700 0.623000
8.906100 0.624800
8.935600 0.629200
8.965000 0.632700
8.994500 0.653500
9.023900 0.649500
9.053400 0.601700
9.082800 0.581400
9.112300 0.578100
9.141700 0.583200
9.171200 0.593900
9.200600 0.607100
9.230100 0.620300
9.259500 0.633700
9.289000 0.645200
9.318400 0.655500
9.347900 0.660200
9.377300 0.663800
9.406800 0.662900
9.436200 0.661800
9.465700 0.631900
9.495200 0.629300
9.524600 0.629300
9.554100 0.633200
9.583500 0.642000
9.613000 0.653400
9.642400 0.662700
9.671900 0.665500
9.701300 0.664400
9.730800 0.670900
9.760200 0.674900
9.789700 0.686500
9.819100 0.733700
9.848600 0.731800
9.878000 0.658400
9.907500 0.606800
9.936900 0.557800
9.966400 0.554700
9.995800 0.522900
10.025300 0.459900
10.054700 0.417200
10.084200 0.390400
10.113600 0.369900
10.143100 0.354500
10.172500 0.341100
10.202000 0.331100
10.231400 0.314600
10.260900 0.323200
10.290300 0.345500
10.319800 0.369100
10.349200 0.386900
10.378700 0.397800
10.408100 0.404500
10.437600 0.410100
10.467000 0.415000
10.496500 0.418400
10.526000 0.421300
10.555400 0.425600
10.584900 0.431400
10.614300 0.436100
10.643800 0.440900
10.673200 0.445900
10.702700 0.450200
10.732100 0.455000
10.761600 0.464000
10.791000 0.481200
10.820500 0.515000
10.849900 0.658600
10.879400 0.801300
10.908800 1.149000
10.938300 0.921600
10.967700 0.786400
10.997200 0.673600
11.026600 0.570400
11.056100 0.531900
11.085500 0.616800
11.115000 0.639200
11.144400 0.695900
11.173900 0.658700
11.203300 0.647400
11.232800 0.639100
11.262200 0.634300
11.291700 0.631000
11.321100 0.625300
11.350600 0.621900
11.380000 0.621100
11.409500 0.622800
11.438900 0.624900
11.468400 0.631200
11.497800 0.639500
11.527300 0.624100
11.556800 0.603900
11.586200 0.585500
11.615700 0.569600
11.645100 0.561200
11.674600 0.551700
11.704000 0.537400
11.733500 0.523600
11.762900 0.510600
11.792400 0.501200
11.821800 0.492700
11.851300 0.484700
11.880700 0.477400
11.910200 0.471200
11.939600 0.465800
11.969100 0.461100
11.998500 0.471300
12.028000 0.487000
12.057400 0.511800
12.086900 0.592200
12.116300 0.724900
12.145800 0.816700
12.175200 0.899600
12.204700 0.964700
12.234100 0.951700
12.263600 0.879500
12.293000 0.808500
12.322500 0.852300
12.351900 0.844300
12.381400 0.901400
12.410800 1.020100
12.440300 1.138100
12.469700 1.234300
12.499200 1.271900
12.528600 1.250300
12.558100 1.217600
12.587600 1.137500
12.617000 1.072900
12.646500 1.003700
12.675900 0.914100
12.705400 0.810200
12.734800 0.748000
12.764300 0.725400
12.793700 0.705700
12.823200 0.682700
12.852600 0.659200
12.882100 0.639000
12.911500 0.621700
12.941000 0.609000
12.970400 0.602800
12.999900 0.598500
13.029300 0.606200
13.058800 0.642500
13.088200 0.649900
13.117700 0.646300
13.147100 0.648900
13.176600 0.663400
13.206000 0.707300
13.235500 0.800500
13.264900 0.865800
13.294400 0.888600
13.323800 0.887000
13.353300 0.886500
13.382700 0.872700
13.412200 0.834800
13.441600 0.825300
13.471100 0.812400
13.500500 0.798200
13.530000 0.783600
13.559400 0.773100
13.588900 0.766700
13.618400 0.737300
13.647800 0.726200
13.677300 0.717000
13.706700 0.708600
13.736200 0.703300
13.765600 0.699700
13.795100 0.697200
13.824500 0.695700
13.854000 0.695600
13.883400 0.698200
13.912900 0.705600
13.942300 0.732400
13.971800 0.759600
14.001200 0.765200
14.030700 0.760100
14.060100 0.739300
14.089600 0.715400
14.119000 0.688300
14.148500 0.661000
14.177900 0.633600
14.207400 0.626300
14.236800 0.627800
14.266300 0.637800
14.295700 0.658300
14.325200 0.668900
14.354600 0.679100
14.384100 0.692400
14.413500 0.710600
14.443000 0.734400
14.472400 0.763800
14.501900 0.782000
14.531300 0.804500
14.560800 0.817500
14.590200 0.784700
14.619700 0.760100
14.649200 0.731100
14.678600 0.750600
14.708100 0.766900
14.737500 0.777000
14.767000 0.784800
14.796400 0.795600
14.825900 0.822000
14.855300 0.821200
14.884800 0.821300
14.914200 0.805500
14.943700 0.796800
14.973100 0.787500
15.002600 0.777700
15.032000 0.768800
15.061500 0.761100
15.090900 0.759200
15.120400 0.760000
15.149800 0.761500
15.179300 0.777900
15.208700 0.795400
15.238200 0.813600
15.267600 0.834500
15.297100 0.856300
15.326500 0.872200
15.356000 0.869000
15.385400 0.855800
15.414900 0.847600
15.444300 0.847600
15.473800 0.844000
15.503200 0.867000
15.532700 0.840700
15.562100 0.809200
15.591600 0.782000
15.621000 0.757100
15.650500 0.740900
15.680000 0.730800
15.709400 0.720000
15.738900 0.713100
15.768300 0.710600
15.797800 0.712300
15.827200 0.714400
15.856700 0.726400
15.886100 0.755500
15.915600 0.773600
15.945000 0.783800
15.974500 0.790600
16.003900 0.793900
16.033400 0.794400
16.062800 0.793200
16.092300 0.791300
16.121700 0.791000
16.151200 0.786600
16.180600 0.785000
16.210100 0.785800
16.239500 0.789300
16.269000 0.794200
16.298400 0.799600
16.327900 0.804200
16.357300 0.810600
16.386800 0.820300
16.416200 0.835300
16.445700 0.857400
16.475100 0.885300
16.504600 0.916800
16.534000 0.972400
16.563500 1.017400
16.592900 1.041900
16.622400 1.009300
16.651800 1.020300
16.681300 1.025900
16.710800 1.035500
16.740200 1.058600
16.769700 1.086700
16.799100 1.106900
16.828600 1.135000
16.858000 1.147700
16.887500 1.150000
16.916900 1.141400
16.946400 1.127100
16.975800 1.116400
17.005300 1.036300
17.034700 0.999700
17.064200 1.003300
17.093600 0.971200
17.123100 0.952000
17.152500 0.937100
17.182000 0.922700
17.211400 0.919300
17.240900 0.916100
17.270300 0.915800
17.299800 0.930900
17.329200 0.941700
17.358700 0.954600
17.388100 0.925700
17.417600 0.918600
17.447000 0.918200
17.476500 0.921400
17.505900 0.926200
17.535400 0.931400
17.564800 0.931100
17.594300 0.932600
17.623700 0.933800
17.653200 0.930500
17.682600 0.933000
17.712100 0.939300
17.741600 0.943900
17.771000 0.946100
17.800500 0.944400
17.829900 0.938600
17.859400 0.930400
17.888800 0.922600
17.918300 0.912500
17.947700 0.903000
17.977200 0.893300
18.006600 0.884700
18.036100 0.877800
18.065500 0.874300
18.095000 0.872500
18.124400 0.870900
18.153900 0.870200
18.183300 0.900400
18.212800 0.883900
18.242200 0.876300
18.271700 0.881600
18.301100 0.891300
18.330600 0.906900
18.360000 0.927600
18.389500 0.953400
18.418900 0.981700
18.448400 1.000900
18.477800 1.018300
18.507300 1.040200
18.536700 1.035800
18.566200 1.052100
18.595600 1.079700
18.625100 1.093000
18.654500 1.084700
18.684000 1.063600
18.713400 1.035100
18.742900 1.012100
18.772400 0.996500
18.801800 1.000700
18.831300 1.009800
18.860700 1.026600
18.890200 1.033300
18.919600 1.038800
18.949100 1.037100
18.978500 1.033700
19.008000 1.031100
19.037400 1.028800
19.066900 1.035000
19.096300 1.145400
19.125800 1.077400
19.155200 1.098900
19.184700 1.159200
19.214100 1.165000
19.243600 1.157000
19.273000 1.135900
19.302500 1.121900
19.331900 1.098900
19.361400 1.072800
19.390800 1.045100
19.420300 1.029700
19.449700 1.017200
19.479200 1.008300
19.508600 1.003100
19.538100 1.006800
19.567500 1.007200
19.597000 0.999300
19.626400 0.992900
19.655900 0.989400
19.685300 0.992400
19.714800 1.000600
19.744200 1.009200
19.773700 1.021300
19.803200 1.036800
19.832600 1.054400
19.862100 1.077900
19.891500 1.103300
19.921000 1.123600
19.950400 1.134100
19.979900 1.140600
20.009300 1.156800
20.038800 1.166500
20.068200 1.163000
20.097700 1.160500
20.127100 1.159200
20.156600 1.158500
20.186000 1.152400
20.215500 1.136500
20.244900 1.121400
20.274400 1.112000
20.303800 1.106200
20.333300 1.131400
20.362700 1.127900
20.392200 1.126000
20.421600 1.127200
20.451100 1.123900
20.480500 1.113200
20.510000 1.104900
20.539400 1.098100
20.568900 1.091400
20.598300 1.085200
20.627800 1.080900
20.657200 1.080500
20.686700 1.101300
20.716100 1.093400
20.745600 1.083900
20.775000 1.080100
20.804500 1.076900
20.833900 1.074400
20.863400 1.072200
20.892900 1.071100
20.922300 1.071800
20.951800 1.077100
20.981200 1.081700
21.010700 1.084400
21.040100 1.092300
21.069600 1.108800
21.099000 1.133000
21.128500 1.172100
21.157900 1.206900
21.187400 1.221800
21.216800 1.217700
21.246300 1.185800
21.275700 1.162700
21.305200 1.147600
21.334600 1.101600
21.364100 1.089000
21.393500 1.082600
21.423000 1.087300
21.452400 1.099300
21.481900 1.105300
21.511300 1.110700
21.540800 1.112000
21.570200 1.107000
21.599700 1.097500
21.629100 1.085400
21.658600 1.075400
21.688000 1.041200
21.717500 1.022000
21.746900 1.008300
21.776400 0.995100
21.805800 0.984400
21.835300 0.978600
21.864700 0.975800
21.894200 0.968600
21.923700 0.961500
21.953100 0.957800
21.982600 0.959400
22.012000 0.985600
22.041500 0.985500
22.070900 0.966000
22.100400 0.949600
22.129800 0.948900
22.159300 0.959200
22.188700 0.980500
22.218200 1.003500
22.247600 1.014600
22.277100 1.026800
22.306500 1.037700
22.336000 1.045800
22.365400 1.052100
22.394900 1.063000
22.424300 1.067400
22.453800 1.067600
22.483200 1.068700
22.512700 1.069000
22.542100 1.078100
22.571600 1.080000
22.601000 1.076000
22.630500 1.059800
22.659900 1.040700
22.689400 1.036000
22.718800 1.006000
22.748300 0.976500
22.777700 0.966400
22.807200 0.955000
22.836600 0.942700
22.866100 0.934300
22.895500 0.934500
22.925000 0.934300
22.954500 0.936100
22.983900 0.940500
23.013400 0.947500
23.042800 0.958200
23.072300 0.968400
23.101700 0.975500
23.131200 1.082000
23.160600 0.983900
23.190100 0.976000
23.219500 0.976200
23.249000 0.973600
23.278400 0.971100
23.307900 0.967900
23.337300 0.972900
23.366800 0.975400
23.396200 0.973100
23.425700 0.974300
23.455100 0.976300
23.484600 0.979700
23.514000 0.984400
23.543500 1.018500
23.572900 1.024800
23.602400 1.024600
23.631800 1.023100
23.661300 1.021800
23.690700 1.020300
23.720200 1.022200
23.749600 1.030500
23.779100 1.028700
23.808500 1.001000
23.838000 0.994000
23.867400 0.985200
23.896900 0.989800
23.926300 0.983600
23.955800 0.961100
23.985300 0.950000
24.014700 0.939600
24.044200 0.931100
24.073600 0.928400
24.103100 0.929700
24.132500 0.930900
24.162000 0.935300
24.191400 0.939800
24.220900 0.943600
24.250300 0.942900
24.279800 0.940100
24.309200 0.938900
24.338700 0.937600
24.368100 0.938400
24.397600 0.940600
24.427000 0.950000
24.456500 0.943600
24.485900 0.938000
24.515400 0.944800
24.544800 0.948400
24.574300 0.936300
24.603700 0.894400
24.633200 0.865100
24.662600 0.841900
24.692100 0.832500
24.721500 0.826800
24.751000 0.825300
24.780400 0.827300
24.809900 0.829300
24.839300 0.831000
24.868800 0.833600
24.898200 0.837400
24.927700 0.842900
24.957100 0.850600
24.986600 0.860400
25.016100 0.872300
25.045500 0.889200
25.075000 0.912000
25.104400 0.933600
25.133900 0.980300
25.163300 1.044600
25.192800 1.066200
25.222200 1.103700
25.251700 1.127800
25.281100 1.144700
25.310600 1.151800
25.340000 1.147300
25.369500 1.142000
25.398900 1.165000
25.428400 1.185100
25.457800 1.196200
25.487300 1.194500
25.516700 1.187600
25.546200 1.204200
25.575600 1.268200
25.605100 1.249200
25.634500 1.183700
25.664000 1.142200
25.693400 1.157200
25.722900 1.148100
25.752300 1.113900
25.781800 1.080100
25.811200 1.054500
25.840700 1.034700
25.870100 1.013900
25.899600 0.989500
25.929000 0.979400
25.958500 0.970700
25.987900 0.964200
26.017400 0.967200
26.046900 0.969600
26.076300 0.976800
26.105800 0.985800
26.135200 0.993600
26.164700 0.997500
26.194100 0.996700
26.223600 0.993000
26.253000 0.988600
26.282500 0.992900
26.311900 0.996100
26.341400 0.996400
26.370800 0.994200
26.400300 0.994600
26.429700 0.993000
26.459200 0.983500
26.488600 0.965400
26.518100 0.942800
26.547500 0.918300
26.577000 0.905900
26.606400 0.906400
26.635900 0.910500
26.665300 0.916800
26.694800 0.924600
26.724200 0.937200
26.753700 0.955500
26.783100 0.983800
26.812600 1.017700
26.842000 1.039500
26.871500 1.057600
26.900900 1.081300
26.930400 1.111200
26.959800 1.146800
26.989300 1.172400
27.018700 1.184000
27.048200 1.175700
27.077700 1.161400
27.107100 1.151200
27.136600 1.142900
27.166000 1.136000
27.195500 1.132300
27.224900 1.133400
27.254400 1.137300
27.283800 1.147900
27.313300 1.168800
27.342700 1.204700
27.372200 1.241500
27.401600 1.268800
27.431100 1.283400
27.460500 1.297300
27.490000 1.311300
27.519400 1.326700
27.548900 1.344500
27.578300 1.344100
27.607800 1.335800
27.637200 1.386600
27.666700 1.303200
27.696100 1.382200
27.725600 1.351300
27.755000 1.350500
27.784500 1.303400
27.813900 1.267900
27.843400 1.245400
27.872800 1.228200
27.902300 1.183200
27.931700 1.166900
27.961200 1.174700
27.990600 1.201100
28.020100 1.230200
28.049500 1.248700
28.079000 1.356900
28.108500 1.318700
28.137900 1.263100
28.167400 1.276900
28.196800 1.284600
28.226300 1.265300
28.255700 1.243600
28.285200 1.274300
28.314600 1.287900
28.344100 1.303800
28.373500 1.311400
28.403000 1.314200
28.432400 1.313000
28.461900 1.325800
28.491300 1.418900
28.520800 1.396500
28.550200 1.427100
28.579700 1.398200
28.609100 1.404100
28.638600 1.421300
28.668000 1.424000
28.697500 1.449900
28.726900 1.480100
28.756400 1.467700
28.785800 1.443000
28.815300 1.416100
28.844700 1.382800
28.874200 1.349900
28.903600 1.345700
28.933100 1.377200
28.962500 1.394700
28.992000 1.394500
29.021400 1.400300
29.050900 1.395800
29.080300 1.359600
29.109800 1.323200
29.139300 1.327800
29.168700 1.350400
29.198200 1.366200
29.227600 1.375100
29.257100 1.399000
29.286500 1.440900
29.316000 1.399600
29.345400 1.345900
29.374900 1.283500
29.404300 1.239400
29.433800 1.202500
29.463200 1.171400
29.492700 1.148300
29.522100 1.160600
29.551600 1.122100
29.581000 1.104600
29.610500 1.098300
29.639900 1.097200
29.669400 1.104200
29.698800 1.117000
29.728300 1.135500
29.757700 1.120200
29.787200 1.110300
29.816600 1.096200
29.846100 1.086500
29.875500 1.107200
29.905000 1.141600
29.934400 1.224600
29.963900 1.253100
29.993300 1.244300
30.022800 1.216000
30.052200 1.192200
30.081700 1.190800
30.111100 1.203700
30.140600 1.219200
30.170100 1.244900
30.199500 1.224100
30.229000 1.219400
30.258400 1.209400
30.287900 1.167300
30.317300 1.152100
30.346800 1.150100
30.376200 1.141000
30.405700 1.102200
30.435100 1.099100
30.464600 1.097300
30.494000 1.093200
30.523500 1.089000
30.552900 1.082700
30.582400 1.077700
30.611800 1.079800
30.641300 1.091900
30.670700 1.092200
30.700200 1.093900
30.729600 1.093000
30.759100 1.087000
30.788500 1.088900
30.818000 1.096500
30.847400 1.114300
30.876900 1.119400
30.906300 1.112100
30.935800 1.093500
30.965200 1.080800
30.994700 1.066000
31.024100 1.049800
31.053600 1.051300
31.083000 1.067900
31.112500 1.087000
31.141900 1.111900
31.171400 1.144700
31.200900 1.208700
31.230300 1.265300
31.259800 1.316100
31.289200 1.350900
31.318700 1.386100
31.348100 1.482300
31.377600 1.560300
31.407000 1.441300
31.436500 1.423900
31.465900 1.439900
31.495400 1.453500
31.524800 1.428300
31.554300 1.357300
31.583700 1.328600
31.613200 1.329700
31.642600 1.370700
31.672100 1.385200
31.701500 1.356800
31.731000 1.334700
31.760400 1.305800
31.789900 1.249100
31.819300 1.200000
31.848800 1.160300
31.878200 1.126800
31.907700 1.097400
31.937100 1.074100
31.966600 1.056300
31.996000 1.061700
32.025500 1.111100
32.054900 1.049100
32.084400 1.026800
32.113800 0.992600
32.143300 0.954300
32.172700 0.922700
32.202200 0.903700
32.231700 0.905000
32.261100 0.918000
32.290600 0.930100
32.320000 0.943400
32.349500 0.932700
32.378900 0.941200
32.408400 0.945400
32.437800 0.969300
32.467300 0.986900
32.496700 1.011700
32.526200 1.042700
32.555600 1.079300
32.585100 1.127900
32.614500 1.160000
32.644000 1.162600
32.673400 1.154800
32.702900 1.183400
32.732300 1.209100
32.761800 1.221600
32.791200 1.238100
32.820700 1.258500
32.850100 1.284200
32.879600 1.364100
32.909000 1.406300
32.938500 1.381600
32.967900 1.365500
32.997400 1.372500
33.026800 1.289300
33.056300 1.290100
33.085700 1.297000
33.115200 1.307400
33.144600 1.299200
33.174100 1.308100
33.203500 1.358400
33.233000 1.420200
33.262500 1.452500
33.291900 1.493100
33.321400 1.500400
33.350800 1.496300
33.380300 1.446000
33.409700 1.391800
33.439200 1.374700
33.468600 1.389400
33.498100 1.265700
33.527500 1.210900
33.557000 1.160200
33.586400 1.130900
33.615900 1.115900
33.645300 1.118300
33.674800 1.152300
33.704200 1.175800
33.733700 1.135900
33.763100 1.155200
33.792600 1.194000
33.822000 1.113900
33.851500 1.086500
33.880900 1.071900
33.910400 1.076200
33.939800 1.084300
33.969300 1.110900
33.998700 1.167900
34.028200 1.206700
34.057600 1.279000
34.087100 1.319800
34.116500 1.340900
34.146000 1.306500
34.175400 1.327100
34.204900 1.389200
34.234300 1.387000
34.263800 1.341100
34.293300 1.290700
34.322700 1.278200
34.352200 1.253000
34.381600 1.227300
34.411100 1.226600
34.440500 1.214200
34.470000 1.247900
34.499400 1.279100
34.528900 1.280300
34.558300 1.262200
34.587800 1.236700
34.617200 1.211600
34.646700 1.204300
34.676100 1.212400
34.705600 1.227600
34.735000 1.245100
34.764500 1.251000
34.793900 1.233900
34.823400 1.201200
34.852800 1.155900
34.882300 1.119800
34.911700 1.114200
34.941200 1.104100
34.970600 1.071600
35.000100 1.048100
35.029500 1.036300
35.059000 1.050900
35.088400 1.039300
35.117900 1.022500
35.147300 1.017600
35.176800 1.024800
35.206200 1.037300
35.235700 1.050700
35.265100 1.072300
35.294600 1.067100
35.324100 1.078700
35.353500 1.104500
35.383000 1.134300
35.412400 1.165000
35.441900 1.179500
35.471300 1.185800
35.500800 1.237500
35.530200 1.303700
35.559700 1.372500
35.589100 1.439200
35.618600 1.571600
35.648000 1.581100
35.677500 1.524900
35.706900 1.516900
35.736400 1.472600
35.765800 1.412600
35.795300 1.360000
35.824700 1.337200
35.854200 1.329600
35.883600 1.320600
35.913100 1.318300
35.942500 1.321600
35.972000 1.348500
36.001400 1.384400
36.030900 1.395700
36.060300 1.401600
36.089800 1.403000
36.119200 1.394000
36.148700 1.383200
36.178100 1.376600
36.207600 1.376100
36.237000 1.378400
36.266500 1.389400
36.295900 1.397100
36.325400 1.395100
36.354900 1.387200
36.384300 1.381400
36.413800 1.372800
36.443200 1.358100
36.472700 1.355000
36.502100 1.358800
36.531600 1.358900
36.561000 1.350000
36.590500 1.353600
36.619900 1.356800
36.649400 1.358800
36.678800 1.369100
36.708300 1.396900
36.737700 1.445600
36.767200 1.462800
36.796600 1.439800
36.826100 1.340400
36.855500 1.259300
36.885000 1.206600
36.914400 1.191100
36.943900 1.192600
36.973300 1.200700
37.002800 1.208600
37.032200 1.210300
37.061700 1.210800
37.091100 1.210500
37.120600 1.216700
37.150000 1.232800
37.179500 1.247300
37.208900 1.239100
37.238400 1.237100
37.267800 1.245200
37.297300 1.247400
37.326700 1.250600
37.356200 1.266300
37.385700 1.298300
37.415100 1.335700
37.444600 1.386800
37.474000 1.445400
37.503500 1.464800
37.532900 1.334200
37.562400 1.266600
37.591800 1.232500
37.621300 1.205900
37.650700 1.196600
37.680200 1.203600
37.709600 1.217700
37.739100 1.220500
37.768500 1.215100
37.798000 1.201300
37.827400 1.185900
37.856900 1.188100
37.886300 1.186900
37.915800 1.180600
37.945200 1.166500
37.974700 1.148300
38.004100 1.139000
38.033600 1.132300
38.063000 1.124200
38.092500 1.107900
38.121900 1.092300
38.151400 1.115700
38.180800 1.103500
38.210300 1.098400
38.239700 1.082600
38.269200 1.130400
38.298600 1.119500
38.328100 1.060400
38.357500 1.044500
38.387000 1.038200
38.416500 1.035800
38.445900 1.034900
38.475400 1.038400
38.504800 1.045600
38.534300 1.047000
38.563700 1.038900
38.593200 1.024100
38.622600 1.023400
38.652100 1.038200
38.681500 1.048200
38.711000 1.063200
38.740400 1.084000
38.769900 1.110900
38.799300 1.130800
38.828800 1.145100
38.858200 1.152900
38.887700 1.155400
38.917100 1.159800
38.946600 1.156600
38.976000 1.143300
39.005500 1.122200
39.034900 1.105100
39.064400 1.087200
39.093800 1.077200
39.123300 1.063000
39.152700 1.056400
39.182200 1.054700
39.211600 1.059200
39.241100 1.072000
39.270500 1.088100
39.300000 1.107900
39.329400 1.228600
39.358900 1.172000
39.388300 1.201600
39.417800 1.278900
39.447300 1.229500
39.476700 1.232100
39.506200 1.251000
39.535600 1.270400
39.565100 1.291300
39.594500 1.308400
39.624000 1.319100
39.653400 1.327900
39.682900 1.343200
39.712300 1.353000
39.741800 1.364600
39.771200 1.377700
39.800700 1.390100
39.830100 1.397600
39.859600 1.379800
39.889000 1.365300
39.918500 1.357700
39.947900 1.349100
39.977400 1.339700
40.006800 1.331100
40.036300 1.322900
40.065700 1.315400
40.095200 1.313700
40.124600 1.315100
40.154100 1.323100
40.183500 1.337700
40.213000 1.355100
40.242400 1.367600
40.271900 1.367600
40.301300 1.356900
40.330800 1.337300
40.360200 1.309500
40.389700 1.288100
40.419100 1.284600
40.448600 1.290100
40.478100 1.303400
40.507500 1.322900
40.537000 1.353500
40.566400 1.411600
40.595900 1.429900
40.625300 1.407800
40.654800 1.443900
40.684200 1.430200
40.713700 1.376800
40.743100 1.365100
40.772600 1.369300
40.802000 1.379500
40.831500 1.388500
40.860900 1.395200
40.890400 1.396400
40.919800 1.388300
40.949300 1.375400
40.978700 1.364500
41.008200 1.365200
41.037600 1.356200
41.067100 1.338200
41.096500 1.316700
41.126000 1.301200
41.155400 1.288500
41.184900 1.274100
41.214300 1.260100
41.243800 1.245400
41.273200 1.230600
41.302700 1.216300
41.332100 1.216600
41.361600 1.194100
41.391000 1.182900
41.420500 1.174600
41.449900 1.166600
41.479400 1.159100
41.508900 1.156000
41.538300 1.154300
41.567800 1.157600
41.597200 1.160500
41.626700 1.162300
41.656100 1.167500
41.685600 1.174500
41.715000 1.180400
41.744500 1.187800
41.773900 1.168100
41.803400 1.150500
41.832800 1.142900
41.862300 1.139700
41.891700 1.142000
41.921200 1.170600
41.950600 1.169200
41.980100 1.167900
42.009500 1.170900
42.039000 1.176300
42.068400 1.182400
42.097900 1.182600
42.127300 1.178300
42.156800 1.169200
42.186200 1.161800
42.215700 1.155800
42.245100 1.151500
42.274600 1.141200
42.304000 1.129800
42.333500 1.121800
42.362900 1.093400
42.392400 1.086300
42.421800 1.083200
42.451300 1.080900
42.480700 1.082300
42.510200 1.085000
42.539600 1.087300
42.569100 1.088300
42.598600 1.090700
42.628000 1.090400
42.657500 1.090400
42.686900 1.092300
42.716400 1.093100
42.745800 1.113500
42.775300 1.079700
42.804700 1.067400
42.834200 1.048100
42.863600 1.022400
42.893100 0.994900
42.922500 0.965700
42.952000 0.943600
42.981400 0.938100
43.010900 0.932700
43.040300 0.927100
43.069800 0.920500
43.099200 0.916900
43.128700 0.922100
43.158100 0.945500
43.187600 0.962200
43.217000 0.978000
43.246500 0.988400
43.275900 0.996700
43.305400 1.004700
43.334800 1.012700
43.364300 1.021100
43.393700 1.030300
43.423200 1.042700
43.452600 1.056300
43.482100 1.071500
43.511500 1.076900
43.541000 1.062900
43.570400 1.047200
43.599900 1.026300
43.629400 1.014800
43.658800 1.018900
43.688300 1.024500
43.717700 1.032300
43.747200 1.041700
43.776600 1.049500
43.806100 1.055300
43.835500 1.058600
43.865000 1.058000
43.894400 1.055300
43.923900 1.052700
43.953300 1.049800
43.982800 1.047000
44.012200 1.044200
44.041700 1.035400
44.071100 1.000100
44.100600 0.987900
44.130000 0.976100
44.159500 0.967500
44.188900 0.961000
44.218400 0.956100
44.247800 0.952300
44.277300 0.949300
44.306700 0.951200
44.336200 0.956000
44.365600 0.959500
44.395100 0.968400
44.424500 0.984700
44.454000 0.996400
44.483400 1.003200
44.512900 1.007700
44.542300 1.011900
44.571800 1.014700
44.601200 1.017000
44.630700 1.039700
44.660200 1.051500
44.689600 1.058900
44.719100 1.064400
44.748500 1.070000
44.778000 1.070700
44.807400 1.058600
44.836900 1.015300
44.866300 1.016000
44.895800 1.024500
44.925200 1.029800
44.954700 1.035000
44.984100 1.040000
45.013600 1.041700
45.043000 1.043800
45.072500 1.045900
45.101900 1.050500
45.131400 1.056000
45.160800 1.067200
45.190300 1.079300
45.219700 1.088600
45.249200 1.084600
45.278600 1.061100
45.308100 1.032700
45.337500 0.999800
45.367000 0.972900
45.396400 0.950900
45.425900 0.924300
45.455300 0.903400
45.484800 0.890900
45.514200 0.974600
45.543700 0.931400
45.573100 0.949500
45.602600 0.959500
45.632000 0.964600
45.661500 0.969800
45.691000 0.976300
45.720400 0.978400
45.749900 0.974500
45.779300 0.962200
45.808800 0.951400
45.838200 0.946200
45.867700 0.933500
45.897100 0.919700
45.926600 0.894100
45.956000 0.860000
45.985500 0.857300
46.014900 0.865100
46.044400 0.870500
46.073800 0.866700
46.103300 0.858800
46.132700 0.856800
46.162200 0.867700
46.191600 0.880700
46.221100 0.887700
46.250500 0.880800
46.280000 0.867500
46.309400 0.853600
46.338900 0.848100
46.368300 0.837800
46.397800 0.818400
46.427200 0.801000
46.456700 0.784000
46.486100 0.767900
46.515600 0.745600
46.545000 0.725200
46.574500 0.701600
46.603900 0.680700
46.633400 0.663300
46.662800 0.645000
46.692300 0.625500
46.721800 0.607000
46.751200 0.591900
46.780700 0.577500
46.810100 0.563000
46.839600 0.549000
46.869000 0.535200
46.898500 0.525100
46.927900 0.513600
46.957400 0.500300
46.986800 0.485900
47.016300 0.470600
47.045700 0.457400
47.075200 0.436100
47.104600 0.423200
47.134100 0.410000
47.163500 0.396300
47.193000 0.381800
47.222400 0.365600
47.251900 0.348200
47.281300 0.333900
47.310800 0.322900
47.340200 0.314300
47.369700 0.305700
47.399100 0.297100
47.428600 0.289100
47.458000 0.281600
47.487500 0.274800
47.516900 0.268700
47.546400 0.263200
47.575800 0.256600
47.605300 0.248400
47.634700 0.237300
47.664200 0.222200
47.693600 0.205800
47.723100 0.188900
47.752600 0.173200
47.782000 0.159700
47.811500 0.149400
47.840900 0.142200
47.870400 0.135900
47.899800 0.130200
47.929300 0.125300
47.958700 0.121200
47.988200 0.117800
48.017600 0.114500
48.047100 0.111900
48.076500 0.109400
48.106000 0.102600
48.135400 0.089100
48.164900 0.074000
48.194300 0.065500
48.223800 0.057800
48.253200 0.050900
48.282700 0.044700
48.312100 0.039400
48.341600 0.034900
48.371000 0.031100
48.400500 0.027900
48.429900 0.024900
48.459400 0.022100
48.488800 0.019600
48.518300 0.017300
48.547700 0.015300
48.577200 0.013500
48.606600 0.011800
48.636100 0.010200
48.665500 0.008700
48.695000 0.007400
48.724400 0.006100
48.753900 0.005000
48.783400 0.004300
48.812800 0.003600
48.842300 0.003000
48.871700 0.002300
48.901200 0.001700
48.930600 0.001200
48.960100 0.000600
48.989500 0.000200
49.019000 0.000000
49.048400 0.000000
49.077900 0.000000
49.107300 0.000000
49.136800 0.000000
49.166200 0.000000
49.195700 0.000000
49.225100 0.000000
49.254600 0.000000
49.284000 0.000000
49.313500 0.000000
49.342900 0.000000
49.372400 0.000000
49.401800 0.000000
49.431300 0.000000
49.460700 0.000000
49.490200 0.000000
49.519600 0.000000
49.549100 0.000000
49.578500 0.000000
49.608000 0.000000
49.637400 0.000000
49.666900 0.000000
49.696300 0.000000
49.725800 0.000000
49.755200 0.000000
49.784700 0.000000
49.814200 0.000000
49.843600 0.000000
49.873100 0.000000
49.902500 0.000000
49.932000 0.000000
49.961400 0.000000
49.990900 0.000000
50.020300 0.000000
50.049800 0.000000
50.079200 0.000000
50.108700 0.000000
50.138100 0.000000
50.167600 0.000000
50.197000 0.000000
50.226500 0.000000
50.255900 0.000000
50.285400 0.000000
50.314800 0.000000
50.344300 0.000000
50.373700 0.000000
50.403200 0.000000
50.432600 0.000000
50.462100 0.000000
50.491500 0.000000
50.521000 0.000000
50.550400 0.000000
50.579900 0.000000
50.609300 0.000000
50.638800 0.000000
50.668200 0.000000
50.697700 0.000000
50.727100 0.000000
50.756600 0.000000
50.786000 0.000000
50.815500 0.000000
50.845000 0.000000
50.874400 0.000000
50.903900 0.000000
50.933300 0.000000
50.962800 0.000000
50.992200 0.000000
51.021700 0.000000
51.051100 0.000000
51.080600 0.000000
51.110000 0.000000
51.139500 0.000000
51.168900 0.000000
51.198400 0.000000
51.227800 0.000000
51.257300 0.000000
51.286700 0.000000
51.316200 0.000000
51.345600 0.000000
51.375100 0.000000
51.404500 0.000000
51.434000 0.000000
51.463400 0.000000
51.492900 0.000000
51.522300 0.000000
51.551800 0.000000
51.581200 0.000000
51.610700 0.000000
51.640100 0.000000
51.669600 0.000000
51.699000 0.000000
51.728500 0.000000
e
