set title 'mp-8638 - Density of States'
set xlabel 'Energy (eV)'
set ylabel 'DOS (states/eV)'
set grid
set xrange [-10:10]
set yrange [0:2.306]
set xzeroaxis lt -1
set terminal png size 800,600
set output 'mp-8638_dos_gnuplot.png'
plot '-' using 1:2 with lines title 'DOS'
-38.351600 0.000000
-38.272000 0.000000
-38.192400 0.000000
-38.112800 0.000000
-38.033100 0.000000
-37.953500 0.000000
-37.873900 0.000000
-37.794300 0.000000
-37.714600 0.000000
-37.635000 0.000000
-37.555400 0.000000
-37.475800 0.000000
-37.396200 0.000000
-37.316500 0.000000
-37.236900 0.000000
-37.157300 0.000000
-37.077700 0.000000
-36.998000 0.000000
-36.918400 0.000000
-36.838800 0.000000
-36.759200 0.000000
-36.679600 0.000000
-36.599900 0.000000
-36.520300 0.000000
-36.440700 0.000000
-36.361100 0.000000
-36.281500 0.000000
-36.201800 0.000000
-36.122200 0.000000
-36.042600 0.000000
-35.963000 0.000000
-35.883300 0.000000
-35.803700 0.000000
-35.724100 0.000000
-35.644500 0.000000
-35.564900 0.000000
-35.485200 0.000000
-35.405600 0.000000
-35.326000 0.000000
-35.246400 0.000000
-35.166800 0.000000
-35.087100 0.000000
-35.007500 0.000000
-34.927900 0.000000
-34.848300 0.000000
-34.768600 0.000000
-34.689000 0.000000
-34.609400 0.000000
-34.529800 0.000000
-34.450200 0.000000
-34.370500 0.000000
-34.290900 0.000000
-34.211300 0.000000
-34.131700 0.000000
-34.052000 0.000000
-33.972400 0.000000
-33.892800 0.000000
-33.813200 0.000000
-33.733600 0.000000
-33.653900 0.000000
-33.574300 0.000000
-33.494700 0.000000
-33.415100 0.000000
-33.335500 0.000000
-33.255800 0.000000
-33.176200 0.000000
-33.096600 0.000000
-33.017000 0.000000
-32.937300 0.000000
-32.857700 0.000000
-32.778100 0.000000
-32.698500 0.000000
-32.618900 0.000000
-32.539200 0.000000
-32.459600 0.000000
-32.380000 0.000000
-32.300400 0.000000
-32.220700 0.000000
-32.141100 0.000000
-32.061500 0.000000
-31.981900 0.000000
-31.902300 0.000000
-31.822600 0.000000
-31.743000 0.000000
-31.663400 0.000000
-31.583800 0.000000
-31.504200 0.000000
-31.424500 0.000000
-31.344900 0.000000
-31.265300 0.000000
-31.185700 0.000000
-31.106000 0.407400
-31.026400 2.059900
-30.946800 4.422400
-30.867200 7.418300
-30.787600 4.400700
-30.707900 1.463200
-30.628300 2.976200
-30.548700 3.538000
-30.469100 3.972800
-30.389500 4.349300
-30.309800 8.467600
-30.230200 8.955500
-30.150600 9.634600
-30.071000 7.205600
-29.991300 3.685900
-29.911700 0.000000
-29.832100 0.000000
-29.752500 0.000000
-29.672900 0.000000
-29.593200 0.000000
-29.513600 0.000000
-29.434000 0.000000
-29.354400 0.000000
-29.274700 0.000000
-29.195100 0.000000
-29.115500 0.000000
-29.035900 0.000000
-28.956300 0.000000
-28.876600 0.000000
-28.797000 0.000000
-28.717400 0.000000
-28.637800 0.000000
-28.558200 0.000000
-28.478500 0.000000
-28.398900 0.000000
-28.319300 0.000000
-28.239700 0.000000
-28.160000 0.000000
-28.080400 0.000000
-28.000800 0.000000
-27.921200 0.000000
-27.841600 0.000000
-27.761900 0.000000
-27.682300 0.000000
-27.602700 0.000000
-27.523100 0.000000
-27.443400 0.000000
-27.363800 0.000000
-27.284200 0.000000
-27.204600 0.000000
-27.125000 0.000000
-27.045300 0.000000
-26.965700 0.000000
-26.886100 0.000000
-26.806500 0.000000
-26.726900 0.000000
-26.647200 0.000000
-26.567600 0.000000
-26.488000 0.000000
-26.408400 0.000000
-26.328700 0.000000
-26.249100 0.000000
-26.169500 0.000000
-26.089900 0.000000
-26.010300 0.000000
-25.930600 0.000000
-25.851000 0.000000
-25.771400 0.000000
-25.691800 0.000000
-25.612200 0.000000
-25.532500 0.000000
-25.452900 0.000000
-25.373300 0.000000
-25.293700 0.000000
-25.214000 0.000000
-25.134400 0.000000
-25.054800 0.000000
-24.975200 0.000000
-24.895600 0.000000
-24.815900 0.000000
-24.736300 0.000000
-24.656700 0.000000
-24.577100 0.000000
-24.497400 0.000000
-24.417800 0.000000
-24.338200 0.000000
-24.258600 0.000000
-24.179000 0.000000
-24.099300 0.000000
-24.019700 0.000000
-23.940100 0.000000
-23.860500 0.000000
-23.780900 0.000000
-23.701200 0.000000
-23.621600 0.000000
-23.542000 0.000000
-23.462400 0.000000
-23.382700 0.000000
-23.303100 0.000000
-23.223500 0.000000
-23.143900 0.000000
-23.064300 0.000000
-22.984600 0.000000
-22.905000 0.000000
-22.825400 0.000000
-22.745800 0.000000
-22.666200 0.000000
-22.586500 0.000000
-22.506900 0.000000
-22.427300 0.000000
-22.347700 0.000000
-22.268000 0.000000
-22.188400 0.000000
-22.108800 0.000000
-22.029200 0.000000
-21.949600 0.000000
-21.869900 0.000000
-21.790300 0.000000
-21.710700 0.000000
-21.631100 0.000000
-21.551400 0.000000
-21.471800 0.000000
-21.392200 0.000000
-21.312600 0.000000
-21.233000 0.000000
-21.153300 0.000000
-21.073700 0.000000
-20.994100 0.000000
-20.914500 0.000000
-20.834900 0.000000
-20.755200 0.000000
-20.675600 0.000000
-20.596000 0.000000
-20.516400 0.000000
-20.436700 0.000000
-20.357100 0.000000
-20.277500 0.000000
-20.197900 0.000000
-20.118300 0.000000
-20.038600 0.000000
-19.959000 0.000000
-19.879400 0.000000
-19.799800 0.000000
-19.720100 0.000000
-19.640500 0.000000
-19.560900 0.000000
-19.481300 0.000000
-19.401700 0.000000
-19.322000 0.000000
-19.242400 0.000000
-19.162800 0.000000
-19.083200 0.000000
-19.003600 0.000000
-18.923900 0.000000
-18.844300 0.000000
-18.764700 0.000000
-18.685100 0.000000
-18.605400 0.000000
-18.525800 0.000000
-18.446200 0.000000
-18.366600 0.000000
-18.287000 0.000000
-18.207300 0.000000
-18.127700 0.000000
-18.048100 0.000000
-17.968500 0.000000
-17.888900 0.000000
-17.809200 0.000000
-17.729600 0.000000
-17.650000 0.000000
-17.570400 0.000000
-17.490700 0.000000
-17.411100 0.000000
-17.331500 0.000000
-17.251900 0.000000
-17.172300 0.000000
-17.092600 0.000000
-17.013000 0.000000
-16.933400 0.000000
-16.853800 0.000000
-16.774100 0.000000
-16.694500 0.000000
-16.614900 0.000000
-16.535300 0.000000
-16.455700 0.000000
-16.376000 0.000000
-16.296400 0.000000
-16.216800 0.000000
-16.137200 0.000000
-16.057600 0.000000
-15.977900 0.000000
-15.898300 0.000000
-15.818700 0.000000
-15.739100 0.000000
-15.659400 0.000000
-15.579800 0.000000
-15.500200 0.000000
-15.420600 0.000000
-15.341000 0.000000
-15.261300 0.000000
-15.181700 0.000000
-15.102100 0.000000
-15.022500 0.000000
-14.942800 0.000000
-14.863200 0.000000
-14.783600 0.000000
-14.704000 0.000000
-14.624400 0.000000
-14.544700 0.000000
-14.465100 0.000000
-14.385500 0.000000
-14.305900 0.000000
-14.226300 0.000000
-14.146600 0.000000
-14.067000 0.000000
-13.987400 0.000000
-13.907800 0.000000
-13.828100 0.000000
-13.748500 0.000000
-13.668900 0.000000
-13.589300 0.000000
-13.509700 0.000000
-13.430000 0.000000
-13.350400 0.000000
-13.270800 0.000000
-13.191200 0.000000
-13.111600 0.000000
-13.031900 0.000000
-12.952300 0.000000
-12.872700 0.000000
-12.793100 0.000000
-12.713400 0.000000
-12.633800 0.000000
-12.554200 0.000000
-12.474600 0.000000
-12.395000 0.000000
-12.315300 0.000000
-12.235700 0.000000
-12.156100 0.000000
-12.076500 0.000000
-11.996800 0.000000
-11.917200 0.000000
-11.837600 0.000000
-11.758000 0.000000
-11.678400 0.000000
-11.598700 0.000000
-11.519100 0.000000
-11.439500 0.000000
-11.359900 0.000000
-11.280300 0.000000
-11.200600 0.000000
-11.121000 0.000000
-11.041400 0.000000
-10.961800 0.000000
-10.882100 0.000000
-10.802500 0.000000
-10.722900 0.000000
-10.643300 0.000000
-10.563700 0.000000
-10.484000 0.000000
-10.404400 0.000000
-10.324800 0.000000
-10.245200 0.000000
-10.165500 0.000000
-10.085900 0.000000
-10.006300 0.000000
-9.926700 0.000000
-9.847100 0.000000
-9.767400 0.000000
-9.687800 0.000000
-9.608200 0.000000
-9.528600 0.000000
-9.449000 0.000000
-9.369300 0.000000
-9.289700 0.000000
-9.210100 0.000000
-9.130500 0.000000
-9.050800 0.000000
-8.971200 0.000000
-8.891600 0.000000
-8.812000 0.000000
-8.732400 0.000000
-8.652700 0.000000
-8.573100 0.000000
-8.493500 0.000000
-8.413900 0.000000
-8.334300 0.000000
-8.254600 0.000000
-8.175000 0.000000
-8.095400 0.000000
-8.015800 0.000000
-7.936100 0.000000
-7.856500 0.000000
-7.776900 0.000000
-7.697300 0.000000
-7.617700 0.000000
-7.538000 0.000000
-7.458400 0.000000
-7.378800 0.000000
-7.299200 0.000000
-7.219500 0.000000
-7.139900 0.000000
-7.060300 0.000000
-6.980700 0.000000
-6.901100 0.000000
-6.821400 0.000000
-6.741800 0.000000
-6.662200 0.000000
-6.582600 0.000000
-6.503000 0.000000
-6.423300 0.000000
-6.343700 0.000000
-6.264100 0.000000
-6.184500 0.000000
-6.104800 0.000000
-6.025200 0.000000
-5.945600 0.000000
-5.866000 0.000000
-5.786400 0.000000
-5.706700 0.000000
-5.627100 0.000000
-5.547500 0.000000
-5.467900 0.000000
-5.388200 0.000000
-5.308600 0.000000
-5.229000 0.000000
-5.149400 0.000000
-5.069800 0.000000
-4.990100 0.000000
-4.910500 0.000000
-4.830900 0.000000
-4.751300 0.000000
-4.671700 0.000000
-4.592000 0.000000
-4.512400 0.000000
-4.432800 0.000000
-4.353200 0.000000
-4.273500 0.000000
-4.193900 0.000000
-4.114300 0.000000
-4.034700 0.000000
-3.955100 0.000000
-3.875400 0.000000
-3.795800 0.000000
-3.716200 0.000000
-3.636600 0.000000
-3.557000 0.000000
-3.477300 0.000000
-3.397700 0.000000
-3.318100 0.000000
-3.238500 0.000000
-3.158800 0.000000
-3.079200 0.000000
-2.999600 0.000000
-2.920000 0.000000
-2.840400 0.000000
-2.760700 0.000000
-2.681100 0.000000
-2.601500 0.000000
-2.521900 0.000000
-2.442200 0.000000
-2.362600 0.000000
-2.283000 0.000000
-2.203400 0.000000
-2.123800 0.000000
-2.044100 0.000000
-1.964500 0.000000
-1.884900 0.000000
-1.805300 0.000000
-1.725700 0.000000
-1.646000 0.000000
-1.566400 0.000000
-1.486800 0.000000
-1.407200 0.000000
-1.327500 0.000000
-1.247900 0.000000
-1.168300 0.000000
-1.088700 0.000000
-1.009100 0.000000
-0.929400 0.000000
-0.849800 0.000000
-0.770200 0.000000
-0.690600 0.000000
-0.611000 0.000000
-0.531300 0.000000
-0.451700 0.000000
-0.372100 0.000000
-0.292500 0.000000
-0.212800 0.000000
-0.133200 0.000000
-0.053600 0.000000
0.026000 0.000000
0.105600 0.000000
0.185300 0.000000
0.264900 0.000000
0.344500 0.000000
0.424100 0.000000
0.503800 0.000000
0.583400 0.000000
0.663000 0.000000
0.742600 0.000000
0.822200 0.000000
0.901900 0.000000
0.981500 0.000000
1.061100 0.006500
1.140700 0.018800
1.220300 0.025500
1.300000 0.031800
1.379600 0.036400
1.459200 0.042400
1.538800 0.046200
1.618500 0.050700
1.698100 0.055700
1.777700 0.060200
1.857300 0.064300
1.936900 0.069200
2.016600 0.074400
2.096200 0.079100
2.175800 0.084300
2.255400 0.089800
2.335100 0.095600
2.414700 0.102300
2.494300 0.109200
2.573900 0.116400
2.653500 0.173400
2.733200 0.235100
2.812800 0.286400
2.892400 0.333100
2.972000 0.385400
3.051600 0.587900
3.131300 0.799500
3.210900 0.930800
3.290500 1.046800
3.370100 1.152700
3.449800 1.252800
3.529400 1.418000
3.609000 1.490400
3.688600 1.594900
3.768200 1.757800
3.847900 1.952200
3.927500 1.705100
4.007100 1.592400
4.086700 1.552500
4.166300 1.497200
4.246000 1.411500
4.325600 1.321800
4.405200 1.235900
4.484800 1.163200
4.564500 1.094300
4.644100 0.981900
4.723700 0.907600
4.803300 0.880100
4.882900 0.960400
4.962600 1.255300
5.042200 1.187500
5.121800 1.199000
5.201400 1.193400
5.281100 1.190600
5.360700 1.113300
5.440300 1.034400
5.519900 0.976300
5.599500 0.985300
5.679200 0.946000
5.758800 0.975400
5.838400 1.097200
5.918000 1.198200
5.997600 1.187300
6.077300 1.235600
6.156900 1.174400
6.236500 1.188300
6.316100 1.223600
6.395800 1.286500
6.475400 1.336700
6.555000 1.510200
6.634600 1.568000
6.714200 1.681000
6.793900 1.777700
6.873500 1.974000
6.953100 1.904200
7.032700 2.096600
7.112400 1.973900
7.192000 1.536400
7.271600 1.238900
7.351200 1.100700
7.430800 1.168400
7.510500 1.291300
7.590100 1.230900
7.669700 1.084500
7.749300 1.034800
7.828900 1.019100
7.908600 0.999300
7.988200 0.959400
8.067800 0.931000
8.147400 0.974600
8.227100 1.003600
8.306700 1.094800
8.386300 1.189700
8.465900 1.213100
8.545500 1.218400
8.625200 1.254100
8.704800 1.313700
8.784400 1.359900
8.864000 1.220400
8.943600 1.061000
9.023300 0.972500
9.102900 0.932400
9.182500 1.134200
9.262100 1.021500
9.341800 0.984500
9.421400 0.956800
9.501000 0.931800
9.580600 0.917600
9.660200 0.904200
9.739900 0.897900
9.819500 0.894000
9.899100 0.896300
9.978700 0.902900
10.058400 0.910400
10.138000 0.925700
10.217600 0.939500
10.297200 0.960500
10.376800 0.992600
10.456500 1.026800
10.536100 1.077400
10.615700 1.146100
10.695300 1.223900
10.774900 1.375600
10.854600 1.670300
10.934200 1.696600
11.013800 1.709400
11.093400 1.766300
11.173100 1.354700
11.252700 1.184300
11.332300 1.005100
11.411900 0.847300
11.491500 0.730800
11.571200 0.735800
11.650800 0.543100
11.730400 0.253200
11.810000 0.253800
11.889700 0.254200
11.969300 0.254600
12.048900 0.255100
12.128500 0.256000
12.208100 0.256600
12.287800 0.257400
12.367400 0.258900
12.447000 0.259500
12.526600 0.260500
12.606200 0.261200
12.685900 0.262200
12.765500 0.263000
12.845100 0.263500
12.924700 0.263500
13.004400 0.263100
13.084000 0.263400
13.163600 0.263600
13.243200 0.263600
13.322800 0.263500
13.402500 0.263400
13.482100 0.263300
13.561700 0.262700
13.641300 0.262400
13.720900 0.261900
13.800600 0.261200
13.880200 0.260700
13.959800 0.259900
14.039400 0.259000
14.119100 0.257900
14.198700 0.256700
14.278300 0.255700
14.357900 0.254900
14.437500 0.253700
14.517200 0.252200
14.596800 0.250700
14.676400 0.249000
14.756000 0.246900
14.835700 0.245000
14.915300 0.243100
14.994900 0.241200
15.074500 0.239200
15.154100 0.237400
15.233800 0.235400
15.313400 0.232700
15.393000 0.229700
15.472600 0.226800
15.552200 0.224000
15.631900 0.221200
15.711500 0.217900
15.791100 0.214700
15.870700 0.211900
15.950400 0.209000
16.030000 0.206100
16.109600 0.202100
16.189200 0.197500
16.268800 0.192800
16.348500 0.188800
16.428100 0.185300
16.507700 0.181800
16.587300 0.177500
16.666900 0.172900
16.746600 0.167700
16.826200 0.162700
16.905800 0.157900
16.985400 0.152900
17.065100 0.147200
17.144700 0.141200
17.224300 0.138800
17.303900 0.130800
17.383500 0.123200
17.463200 0.114000
17.542800 0.104900
17.622400 0.093900
17.702000 0.083500
17.781700 0.073300
17.861300 0.063000
17.940900 0.059000
18.020500 0.059200
18.100100 0.063400
18.179800 0.095700
18.259400 0.161600
18.339000 0.281900
18.418600 0.449500
18.498200 0.478400
18.577900 0.495400
18.657500 0.497600
18.737100 0.491200
18.816700 0.506900
18.896400 0.506300
18.976000 0.467700
19.055600 0.434900
19.135200 0.422300
19.214800 0.419800
19.294500 0.427300
19.374100 0.451000
19.453700 0.502900
19.533300 0.593400
19.613000 0.817000
19.692600 2.551500
19.772200 0.865300
19.851800 0.591800
19.931400 0.477300
20.011100 0.416900
20.090700 0.381800
20.170300 0.356100
20.249900 0.340400
20.329500 0.329900
20.409200 0.322800
20.488800 0.318400
20.568400 0.314800
20.648000 0.311900
20.727700 0.310000
20.807300 0.323800
20.886900 0.325600
20.966500 0.330900
21.046100 0.335500
21.125800 0.341600
21.205400 0.348000
21.285000 0.354800
21.364600 0.362500
21.444200 0.376800
21.523900 0.393400
21.603500 0.418700
21.683100 0.461300
21.762700 0.555000
21.842400 0.519500
21.922000 0.529900
22.001600 0.593300
22.081200 0.563100
22.160800 0.565700
22.240500 0.561000
22.320100 0.559200
22.399700 0.527200
22.479300 0.544000
22.559000 0.588000
22.638600 0.611000
22.718200 0.627800
22.797800 0.634900
22.877400 0.621300
22.957100 0.613500
23.036700 0.596900
23.116300 0.616100
23.195900 0.643800
23.275500 0.653500
23.355200 0.654200
23.434800 0.662900
23.514400 0.675900
23.594000 0.689600
23.673700 0.707200
23.753300 0.722800
23.832900 0.738500
23.912500 0.753100
23.992100 0.777300
24.071800 0.793400
24.151400 0.816100
24.231000 0.845100
24.310600 0.883500
24.390300 0.946200
24.469900 1.081000
24.549500 1.056000
24.629100 1.043000
24.708700 1.029800
24.788400 0.921900
24.868000 0.864200
24.947600 0.823000
25.027200 0.798000
25.106800 0.780600
25.186500 0.753200
25.266100 0.726500
25.345700 0.702800
25.425300 0.678700
25.505000 0.650400
25.584600 0.627000
25.664200 0.627500
25.743800 0.657700
25.823400 0.695500
25.903100 0.715800
25.982700 0.751100
26.062300 0.726900
26.141900 0.719700
26.221500 0.702500
26.301200 0.687400
26.380800 0.675600
26.460400 0.666200
26.540000 0.660200
26.619700 0.591800
26.699300 0.559200
26.778900 0.540400
26.858500 0.524400
26.938100 0.529400
27.017800 0.558900
27.097400 0.560500
27.177000 0.537600
27.256600 0.510000
27.336300 0.450600
27.415900 0.413900
27.495500 0.406700
27.575100 0.355300
27.654700 0.307100
27.734400 0.283600
27.814000 0.263600
27.893600 0.248000
27.973200 0.238500
28.052800 0.230900
28.132500 0.227800
28.212100 0.228200
28.291700 0.231400
28.371300 0.240600
28.451000 0.251800
28.530600 0.269100
28.610200 0.287600
28.689800 0.316800
28.769400 0.353500
28.849100 0.372100
28.928700 0.383100
29.008300 0.406400
29.087900 0.432200
29.167600 0.470500
29.247200 0.544200
29.326800 0.637700
29.406400 0.771800
29.486000 0.910300
29.565700 0.972500
29.645300 0.845800
29.724900 0.838400
29.804500 0.841000
29.884100 0.849700
29.963800 0.833500
30.043400 0.831300
30.123000 0.811400
30.202600 0.796500
30.282300 0.785200
30.361900 0.775400
30.441500 0.767400
30.521100 0.756500
30.600700 0.740500
30.680400 0.727200
30.760000 0.717200
30.839600 0.706500
30.919200 0.692700
30.998800 0.679500
31.078500 0.667100
31.158100 0.656600
31.237700 0.647800
31.317300 0.643700
31.397000 0.664200
31.476600 0.647900
31.556200 0.640700
31.635800 0.627900
31.715400 0.612100
31.795100 0.579300
31.874700 0.528100
31.954300 0.481600
32.033900 0.432800
32.113600 0.396600
32.193200 0.371200
32.272800 0.346200
32.352400 0.328900
32.432000 0.314700
32.511700 0.311400
32.591300 0.293300
32.670900 0.309400
32.750500 0.301800
32.830100 0.264700
32.909800 0.255600
32.989400 0.252500
33.069000 0.250300
33.148600 0.253800
33.228300 0.260400
33.307900 0.265000
33.387500 0.274900
33.467100 0.286700
33.546700 0.301000
33.626400 0.319600
33.706000 0.346800
33.785600 0.389900
33.865200 0.413800
33.944900 0.460700
34.024500 0.494800
34.104100 0.546400
34.183700 0.615100
34.263300 0.663500
34.343000 0.638200
34.422600 0.618200
34.502200 0.609600
34.581800 0.613300
34.661400 0.618200
34.741100 0.620500
34.820700 0.625900
34.900300 0.635500
34.979900 0.634700
35.059600 0.635600
35.139200 0.633700
35.218800 0.632600
35.298400 0.630000
35.378000 0.627900
35.457700 0.629500
35.537300 0.630100
35.616900 0.642600
35.696500 0.644200
35.776100 0.645600
35.855800 0.641900
35.935400 0.643200
36.015000 0.642800
36.094600 0.621700
36.174300 0.599900
36.253900 0.584500
36.333500 0.555600
36.413100 0.553900
36.492700 0.569800
36.572400 0.599000
36.652000 0.622200
36.731600 0.639300
36.811200 0.674600
36.890900 0.694400
36.970500 0.658600
37.050100 0.638000
37.129700 0.628500
37.209300 0.630700
37.289000 0.838400
37.368600 0.881200
37.448200 0.938700
37.527800 1.080900
37.607400 1.087900
37.687100 1.029200
37.766700 1.030200
37.846300 1.058600
37.925900 1.104200
38.005600 1.169100
38.085200 1.288800
38.164800 1.273200
38.244400 1.147800
38.324000 1.049100
38.403700 0.941200
38.483300 0.892400
38.562900 0.839600
38.642500 0.803100
38.722100 0.768700
38.801800 0.739400
38.881400 0.717000
38.961000 0.704900
39.040600 0.702900
39.120300 0.711300
39.199900 0.736300
39.279500 0.727700
39.359100 0.701900
39.438700 0.680000
39.518400 0.667900
39.598000 0.664700
39.677600 0.659400
39.757200 0.626900
39.836900 0.610500
39.916500 0.572000
39.996100 0.557400
40.075700 0.535900
40.155300 0.548700
40.235000 0.535500
40.314600 0.516000
40.394200 0.493300
40.473800 0.472700
40.553400 0.457000
40.633100 0.465900
40.712700 0.458300
40.792300 0.465000
40.871900 0.487800
40.951600 0.517800
41.031200 0.511300
41.110800 0.527700
41.190400 0.535300
41.270000 0.533100
41.349700 0.533800
41.429300 0.532500
41.508900 0.536900
41.588500 0.564800
41.668200 0.565200
41.747800 0.562900
41.827400 0.563400
41.907000 0.556200
41.986600 0.550500
42.066300 0.543300
42.145900 0.541000
42.225500 0.544500
42.305100 0.545800
42.384700 0.550200
42.464400 0.547800
42.544000 0.551800
42.623600 0.557800
42.703200 0.560300
42.782900 0.567600
42.862500 0.573900
42.942100 0.580300
43.021700 0.597500
43.101300 0.613300
43.181000 0.641300
43.260600 0.641100
43.340200 0.647300
43.419800 0.607800
43.499400 0.549100
43.579100 0.526700
43.658700 0.540700
43.738300 0.552900
43.817900 0.555700
43.897600 0.557200
43.977200 0.582700
44.056800 0.617000
44.136400 0.624200
44.216000 0.654900
44.295700 0.712500
44.375300 0.739300
44.454900 0.804500
44.534500 0.958600
44.614200 1.014400
44.693800 0.810900
44.773400 0.708000
44.853000 0.661300
44.932600 0.644700
45.012300 0.641800
45.091900 0.663300
45.171500 0.715000
45.251100 0.666100
45.330700 0.642100
45.410400 0.642200
45.490000 0.635200
45.569600 0.636500
45.649200 0.641900
45.728900 0.644500
45.808500 0.648700
45.888100 0.649000
45.967700 0.649200
46.047300 0.648100
46.127000 0.658400
46.206600 0.663500
46.286200 0.672800
46.365800 0.689300
46.445500 0.703100
46.525100 0.721600
46.604700 0.742100
46.684300 0.781600
46.763900 0.807600
46.843600 0.814000
46.923200 0.846500
47.002800 0.847200
47.082400 0.878200
47.162000 0.915900
47.241700 0.973600
47.321300 1.042400
47.400900 1.117900
47.480500 1.327400
47.560200 1.184600
47.639800 1.107400
47.719400 1.005500
47.799000 0.957700
47.878600 0.953200
47.958300 0.950700
48.037900 0.875300
48.117500 0.812300
48.197100 0.765000
48.276700 0.709400
48.356400 0.763400
48.436000 0.722500
48.515600 0.716900
48.595200 0.714400
48.674900 0.724500
48.754500 0.727700
48.834100 0.734900
48.913700 0.765600
48.993300 0.797700
49.073000 0.810700
49.152600 0.826200
49.232200 0.840900
49.311800 0.832600
49.391500 0.857500
49.471100 0.865500
49.550700 0.815300
49.630300 0.790400
49.709900 0.763400
49.789600 0.735200
49.869200 0.723600
49.948800 0.729800
50.028400 0.704100
50.108000 0.693100
50.187700 0.648200
50.267300 0.590000
50.346900 0.536000
50.426500 0.516800
50.506200 0.500900
50.585800 0.467000
50.665400 0.450800
50.745000 0.453600
50.824600 0.448900
50.904300 0.467400
50.983900 0.496600
51.063500 0.531100
51.143100 0.596000
51.222800 0.647700
51.302400 0.704000
51.382000 0.734300
51.461600 0.728900
51.541200 0.703200
51.620900 0.651200
51.700500 0.661100
51.780100 0.672600
51.859700 0.690500
51.939300 0.696100
52.019000 0.719600
52.098600 0.734800
52.178200 0.750000
52.257800 0.767800
52.337500 0.784600
52.417100 0.758100
52.496700 0.679600
52.576300 0.642500
52.655900 0.624100
52.735600 0.615500
52.815200 0.605700
52.894800 0.594100
52.974400 0.593300
53.054000 0.587300
53.133700 0.603700
53.213300 0.645500
53.292900 0.665100
53.372500 0.653700
53.452200 0.665800
53.531800 0.673700
53.611400 0.687300
53.691000 0.721800
53.770600 0.750000
53.850300 0.772800
53.929900 0.805600
54.009500 0.817800
54.089100 0.848500
54.168800 0.884900
54.248400 0.928800
54.328000 0.968500
54.407600 0.959300
54.487200 0.945100
54.566900 0.948400
54.646500 0.942700
54.726100 0.936700
54.805700 0.936100
54.885300 0.941200
54.965000 0.944100
55.044600 0.955100
55.124200 0.945700
55.203800 0.945800
55.283500 0.891000
55.363100 0.851900
55.442700 0.835200
55.522300 0.839800
55.601900 0.888600
55.681600 0.855500
55.761200 0.842500
55.840800 0.861300
55.920400 0.765700
56.000000 0.750200
56.079700 0.723300
56.159300 0.726900
56.238900 0.747500
56.318500 0.737900
56.398200 0.734900
56.477800 0.742100
56.557400 0.751200
56.637000 0.762300
56.716600 0.786300
56.796300 0.806600
56.875900 0.838200
56.955500 0.852900
57.035100 0.843400
57.114800 0.822000
57.194400 0.804800
57.274000 0.800500
57.353600 0.806900
57.433200 0.816500
57.512900 0.814500
57.592500 0.825400
57.672100 0.842100
57.751700 0.855500
57.831300 0.878200
57.911000 0.910000
57.990600 0.966600
58.070200 1.065700
58.149800 1.093600
58.229500 1.094100
58.309100 1.077900
58.388700 1.094300
58.468300 1.111000
58.547900 0.999200
58.627600 0.916300
58.707200 0.842200
58.786800 0.798500
58.866400 0.720800
58.946100 0.632200
59.025700 0.574900
59.105300 0.599900
59.184900 0.706200
59.264500 0.720300
59.344200 0.749600
59.423800 0.776200
59.503400 0.789900
59.583000 0.788600
59.662600 0.831500
59.742300 0.848100
59.821900 0.865800
59.901500 0.874300
59.981100 0.877900
60.060800 0.869700
60.140400 0.848600
60.220000 0.801700
60.299600 0.789800
60.379200 0.755600
60.458900 0.732600
60.538500 0.727500
60.618100 0.717800
60.697700 0.718900
60.777300 0.735200
60.857000 0.800500
60.936600 0.842800
61.016200 0.820900
61.095800 0.844400
61.175500 0.876500
61.255100 0.947900
61.334700 1.063800
61.414300 1.189700
61.493900 1.143700
61.573600 1.087000
61.653200 1.027700
61.732800 1.010500
61.812400 0.987000
61.892100 0.964700
61.971700 0.928500
62.051300 0.919800
62.130900 0.864900
62.210500 0.802200
62.290200 0.763000
62.369800 0.724200
62.449400 0.696500
62.529000 0.677200
62.608600 0.656800
62.688300 0.653900
62.767900 0.653100
62.847500 0.643500
62.927100 0.665500
63.006800 0.688200
63.086400 0.734600
63.166000 0.798200
63.245600 0.842900
63.325200 0.890800
63.404900 0.985900
63.484500 0.994900
63.564100 0.987100
63.643700 0.965900
63.723400 0.916000
63.803000 0.980100
63.882600 0.994500
63.962200 0.999700
64.041800 1.002800
64.121500 1.034400
64.201100 1.108100
64.280700 1.372000
64.360300 1.156200
64.439900 1.017500
64.519600 0.988800
64.599200 0.969300
64.678800 1.037600
64.758400 1.143000
64.838100 1.219100
64.917700 1.065400
64.997300 0.982800
65.076900 0.789400
65.156500 0.755900
65.236200 0.740500
65.315800 0.735900
65.395400 0.763000
65.475000 0.792100
65.554600 0.795000
65.634300 0.787100
65.713900 0.772500
65.793500 0.774500
65.873100 0.786400
65.952800 0.833800
66.032400 0.839200
66.112000 0.820900
66.191600 0.786900
66.271200 0.770300
66.350900 0.731000
66.430500 0.713000
66.510100 0.715400
66.589700 0.737700
66.669400 0.711100
66.749000 0.707400
66.828600 0.739900
66.908200 0.755800
66.987800 0.771700
67.067500 0.789300
67.147100 0.801300
67.226700 0.813400
67.306300 0.838900
67.385900 0.840800
67.465600 0.847700
67.545200 0.858000
67.624800 0.841300
67.704400 0.839700
67.784100 0.815500
67.863700 0.808600
67.943300 0.801800
68.022900 0.824900
68.102500 0.845000
68.182200 0.865900
68.261800 0.838100
68.341400 0.786800
68.421000 0.773100
68.500700 0.769900
68.580300 0.757800
68.659900 0.754200
68.739500 0.770400
68.819100 0.791800
68.898800 0.803400
68.978400 0.827500
69.058000 0.841500
69.137600 0.844500
69.217200 0.851700
69.296900 0.860300
69.376500 0.883000
69.456100 0.901300
69.535700 0.916900
69.615400 0.928300
69.695000 0.929600
69.774600 0.913500
69.854200 0.904200
69.933800 0.914000
70.013500 0.924500
70.093100 0.943700
70.172700 0.975700
70.252300 1.014900
70.331900 1.060300
70.411600 1.077400
70.491200 1.082200
70.570800 1.105800
70.650400 1.110100
70.730100 1.086200
70.809700 1.071100
70.889300 1.057100
70.968900 1.057700
71.048500 1.012100
71.128200 0.966000
71.207800 0.935100
71.287400 0.934200
71.367000 0.945600
71.446700 0.948300
71.526300 0.947800
71.605900 0.950700
71.685500 0.951500
71.765100 0.952600
71.844800 0.939900
71.924400 0.910900
72.004000 0.896600
72.083600 0.868900
72.163200 0.850000
72.242900 0.846700
72.322500 0.862800
72.402100 0.911200
72.481700 0.906500
72.561400 0.907700
72.641000 0.912100
72.720600 0.908400
72.800200 0.899400
72.879800 0.913300
72.959500 0.949900
73.039100 0.971600
73.118700 1.008500
73.198300 1.031000
73.277900 1.024000
73.357600 1.009500
73.437200 0.952500
73.516800 0.893700
73.596400 0.868000
73.676100 0.865900
73.755700 0.880100
73.835300 0.917600
73.914900 0.916400
73.994500 0.920400
74.074200 0.912000
74.153800 0.898500
74.233400 0.907800
74.313000 0.916900
74.392700 0.920200
74.472300 0.895500
74.551900 0.922000
74.631500 0.913000
74.711100 0.924800
74.790800 0.941500
74.870400 0.923200
74.950000 0.937600
75.029600 0.951800
75.109200 0.956400
75.188900 0.987200
75.268500 0.949100
75.348100 0.942900
75.427700 0.914700
75.507400 0.890400
75.587000 0.889700
75.666600 0.884400
75.746200 0.866400
75.825800 0.842300
75.905500 0.823200
75.985100 0.814600
76.064700 0.812100
76.144300 0.808100
76.224000 0.829200
76.303600 0.790100
76.383200 0.783700
76.462800 0.806700
76.542400 0.773200
76.622100 0.722200
76.701700 0.688400
76.781300 0.642700
76.860900 0.632300
76.940500 0.643600
77.020200 0.603300
77.099800 0.581500
77.179400 0.571900
77.259000 0.565400
77.338700 0.564400
77.418300 0.552500
77.497900 0.544800
77.577500 0.544300
77.657100 0.564800
77.736800 0.605200
77.816400 0.636800
77.896000 0.658000
77.975600 0.675900
78.055200 0.696800
78.134900 0.716900
78.214500 0.702000
78.294100 0.741800
78.373700 0.800000
78.453400 0.877400
78.533000 0.960400
78.612600 1.129500
78.692200 1.310000
78.771800 1.302500
78.851500 1.215200
78.931100 1.195500
79.010700 1.216100
79.090300 1.260600
79.170000 1.349400
79.249600 1.406900
79.329200 1.484600
79.408800 1.571400
79.488400 1.649000
79.568100 1.567200
79.647700 1.511400
79.727300 1.436700
79.806900 1.365100
79.886500 1.325400
79.966200 1.282800
80.045800 1.306400
80.125400 1.360800
80.205000 1.352700
80.284700 1.352900
80.364300 1.325400
80.443900 1.249100
80.523500 1.142400
80.603100 1.079600
80.682800 1.028100
80.762400 0.992500
80.842000 0.955600
80.921600 0.945300
81.001300 0.982200
81.080900 1.035000
81.160500 1.075300
81.240100 1.070500
81.319700 1.023500
81.399400 0.928200
81.479000 0.875600
81.558600 0.854100
81.638200 0.883300
81.717800 0.925600
81.797500 1.015900
81.877100 1.049000
81.956700 1.077900
82.036300 1.073600
82.116000 1.079700
82.195600 1.057200
82.275200 1.058300
82.354800 1.033900
82.434400 1.018700
82.514100 1.007300
82.593700 1.021000
82.673300 1.021900
82.752900 1.042000
82.832500 1.068800
82.912200 1.134400
82.991800 1.158400
83.071400 1.056700
83.151000 0.977400
83.230700 0.950700
83.310300 0.880400
83.389900 0.818400
83.469500 0.763500
83.549100 0.745900
83.628800 0.748300
83.708400 0.743100
83.788000 0.723500
83.867600 0.725900
83.947300 0.748800
84.026900 0.799100
84.106500 0.796800
84.186100 0.784900
84.265700 0.758000
84.345400 0.741200
84.425000 0.728100
84.504600 0.729600
84.584200 0.722400
84.663800 0.722900
84.743500 0.699900
84.823100 0.682300
84.902700 0.654800
84.982300 0.649500
85.062000 0.636000
85.141600 0.633600
85.221200 0.643600
85.300800 0.640700
85.380400 0.640500
85.460100 0.640400
85.539700 0.643200
85.619300 0.652500
85.698900 0.655300
85.778600 0.671500
85.858200 0.702200
85.937800 0.718200
86.017400 0.736300
86.097000 0.752500
86.176700 0.779700
86.256300 0.838300
86.335900 0.819900
86.415500 0.787500
86.495100 0.759400
86.574800 0.747900
86.654400 0.733000
86.734000 0.698300
86.813600 0.683300
86.893300 0.680200
86.972900 0.675500
87.052500 0.667000
87.132100 0.671000
87.211700 0.705300
87.291400 0.716400
87.371000 0.740000
87.450600 0.778900
87.530200 0.807600
87.609800 0.851200
87.689500 0.914800
87.769100 0.968500
87.848700 1.004700
87.928300 0.975500
88.008000 0.976700
88.087600 0.988400
88.167200 0.980700
88.246800 0.994000
88.326400 1.017400
88.406100 1.044700
88.485700 1.081100
88.565300 1.160900
88.644900 1.213800
88.724600 1.247500
88.804200 1.319800
88.883800 1.299600
88.963400 1.320100
89.043000 1.319400
89.122700 1.341900
89.202300 1.340400
89.281900 1.356200
89.361500 1.344400
89.441100 1.360000
89.520800 1.325900
89.600400 1.221700
89.680000 1.252800
89.759600 1.273500
89.839300 1.275900
89.918900 1.193500
89.998500 1.068800
90.078100 1.012100
90.157700 0.985000
90.237400 0.982700
90.317000 0.958300
90.396600 0.956600
90.476200 0.932800
90.555900 0.904800
90.635500 0.894800
90.715100 0.927800
90.794700 0.956200
90.874300 0.907700
90.954000 0.845600
91.033600 0.819200
91.113200 0.809400
91.192800 0.820200
91.272400 0.813600
91.352100 0.811700
91.431700 0.810000
91.511300 0.826900
91.590900 0.851700
91.670600 0.886600
91.750200 0.893500
91.829800 0.892500
91.909400 0.936900
91.989000 0.985300
92.068700 0.993700
92.148300 0.902000
92.227900 0.889800
92.307500 0.837700
92.387100 0.791800
92.466800 0.765100
92.546400 0.756400
92.626000 0.754800
92.705600 0.736600
92.785300 0.733100
92.864900 0.751400
92.944500 0.758100
93.024100 0.790300
93.103700 0.818700
93.183400 0.802500
93.263000 0.807100
93.342600 0.824800
93.422200 0.856900
93.501900 0.899500
93.581500 0.917300
93.661100 0.927600
93.740700 0.951100
93.820300 0.961000
93.900000 0.995800
93.979600 1.042500
94.059200 1.060500
94.138800 1.094600
94.218400 1.158300
94.298100 1.213800
94.377700 1.177900
94.457300 1.152600
94.536900 1.126500
94.616600 1.121400
94.696200 1.098700
94.775800 1.048700
94.855400 0.991400
94.935000 0.949600
95.014700 0.931500
95.094300 0.955800
95.173900 0.995600
95.253500 1.044800
95.333100 1.080000
95.412800 1.172100
95.492400 1.163700
95.572000 1.160500
95.651600 1.145900
95.731300 1.094700
95.810900 1.000200
95.890500 0.927200
95.970100 0.908300
96.049700 0.910000
96.129400 0.929500
96.209000 0.971600
96.288600 1.001300
96.368200 1.038800
96.447900 1.068800
96.527500 1.105500
96.607100 1.134600
96.686700 1.116000
96.766300 1.114700
96.846000 1.119300
96.925600 1.115700
97.005200 1.090100
97.084800 1.102300
97.164400 1.054600
97.244100 1.045900
97.323700 1.036600
97.403300 1.022500
97.482900 1.004300
97.562600 0.993200
97.642200 0.991400
97.721800 0.995100
97.801400 0.992200
97.881000 1.013200
97.960700 1.014600
98.040300 1.001200
98.119900 0.999500
98.199500 0.986400
98.279200 1.005800
98.358800 0.995900
98.438400 1.010300
98.518000 0.982000
98.597600 1.002800
98.677300 1.050800
98.756900 1.101800
98.836500 1.119800
98.916100 1.128600
98.995700 1.116100
99.075400 1.100500
99.155000 1.098700
99.234600 1.017300
99.314200 0.997800
99.393900 0.962700
99.473500 0.959500
99.553100 0.959000
99.632700 0.974200
99.712300 0.951000
99.792000 0.941500
99.871600 0.906700
99.951200 0.905900
100.030800 0.910500
100.110400 0.924900
100.190100 0.944800
100.269700 0.953600
100.349300 0.961600
100.428900 0.974100
100.508600 0.987400
100.588200 1.016500
100.667800 0.959700
100.747400 0.929900
100.827000 0.921300
100.906700 0.918300
100.986300 0.919200
101.065900 0.920900
101.145500 0.908100
101.225200 0.922000
101.304800 0.956900
101.384400 0.982600
101.464000 0.972400
101.543600 0.958800
101.623300 0.970800
101.702900 0.962200
101.782500 0.955500
101.862100 0.956800
101.941700 0.952400
102.021400 0.951800
102.101000 0.945200
102.180600 0.947100
102.260200 0.960200
102.339900 0.965700
102.419500 0.970500
102.499100 0.983200
102.578700 0.953700
102.658300 0.937500
102.738000 0.922400
102.817600 0.906600
102.897200 0.889300
102.976800 0.878800
103.056500 0.860600
103.136100 0.838000
103.215700 0.825300
103.295300 0.818500
103.374900 0.828400
103.454600 0.849000
103.534200 0.854900
103.613800 0.858400
103.693400 0.850200
103.773000 0.863600
103.852700 0.884600
103.932300 0.880500
104.011900 0.877900
104.091500 0.885400
104.171200 0.889400
104.250800 0.910500
104.330400 0.914000
104.410000 0.920600
104.489600 0.918700
104.569300 0.909800
104.648900 0.904700
104.728500 0.896100
104.808100 0.896400
104.887700 0.897400
104.967400 0.908600
105.047000 0.913400
105.126600 0.913900
105.206200 0.915600
105.285900 0.940300
105.365500 0.967800
105.445100 0.954500
105.524700 0.958500
105.604300 0.957200
105.684000 0.963100
105.763600 0.980700
105.843200 1.009900
105.922800 0.997000
106.002500 1.003800
106.082100 0.966200
106.161700 0.943100
106.241300 0.925000
106.320900 0.902800
106.400600 0.874300
106.480200 0.871500
106.559800 0.866400
106.639400 0.867800
106.719000 0.882000
106.798700 0.917200
106.878300 0.936400
106.957900 0.910100
107.037500 0.877500
107.117200 0.840500
107.196800 0.820700
107.276400 0.810500
107.356000 0.781600
107.435600 0.768600
107.515300 0.770400
107.594900 0.773900
107.674500 0.781100
107.754100 0.806000
107.833800 0.828300
107.913400 0.847900
107.993000 0.838400
108.072600 0.860100
108.152200 0.898500
108.231900 0.954100
108.311500 0.979700
108.391100 0.961800
108.470700 0.961800
108.550300 0.978300
108.630000 0.987400
108.709600 1.054100
108.789200 1.028500
108.868800 0.993300
108.948500 0.982800
109.028100 0.982500
109.107700 1.003300
109.187300 1.040700
109.266900 1.025700
109.346600 1.056700
109.426200 1.188100
109.505800 1.254700
109.585400 1.261500
109.665000 1.284000
109.744700 1.345800
109.824300 1.371500
109.903900 1.414600
109.983500 1.465100
110.063200 1.463300
110.142800 1.374800
110.222400 1.311000
110.302000 1.308000
110.381600 1.323600
110.461300 1.247500
110.540900 1.159300
110.620500 1.017900
110.700100 0.975500
110.779800 0.923500
110.859400 0.890700
110.939000 0.877400
111.018600 0.865300
111.098200 0.839600
111.177900 0.833500
111.257500 0.798900
111.337100 0.767300
111.416700 0.727600
111.496300 0.696500
111.576000 0.667600
111.655600 0.616600
111.735200 0.573100
111.814800 0.516200
111.894500 0.446000
111.974100 0.403300
112.053700 0.383300
112.133300 0.378400
112.212900 0.374100
112.292600 0.377900
112.372200 0.354700
112.451800 0.312700
112.531400 0.257400
112.611000 0.204300
112.690700 0.162700
112.770300 0.130000
112.849900 0.101500
112.929500 0.084900
113.009200 0.070700
113.088800 0.058500
113.168400 0.046400
113.248000 0.035500
113.327600 0.026000
113.407300 0.019000
113.486900 0.011700
113.566500 0.005300
113.646100 0.000000
113.725800 0.000000
113.805400 0.000000
113.885000 0.000000
113.964600 0.000000
114.044200 0.000000
114.123900 0.000000
114.203500 0.000000
114.283100 0.000000
114.362700 0.000000
114.442300 0.000000
114.522000 0.000000
114.601600 0.000000
114.681200 0.000000
114.760800 0.000000
114.840500 0.000000
114.920100 0.000000
114.999700 0.000000
115.079300 0.000000
115.158900 0.000000
115.238600 0.000000
115.318200 0.000000
115.397800 0.000000
115.477400 0.000000
115.557100 0.000000
115.636700 0.000000
115.716300 0.000000
115.795900 0.000000
115.875500 0.000000
115.955200 0.000000
116.034800 0.000000
116.114400 0.000000
116.194000 0.000000
116.273600 0.000000
116.353300 0.000000
116.432900 0.000000
116.512500 0.000000
116.592100 0.000000
116.671800 0.000000
116.751400 0.000000
116.831000 0.000000
116.910600 0.000000
116.990200 0.000000
117.069900 0.000000
117.149500 0.000000
117.229100 0.000000
117.308700 0.000000
117.388300 0.000000
117.468000 0.000000
117.547600 0.000000
117.627200 0.000000
117.706800 0.000000
117.786500 0.000000
117.866100 0.000000
117.945700 0.000000
118.025300 0.000000
118.104900 0.000000
118.184600 0.000000
118.264200 0.000000
118.343800 0.000000
118.423400 0.000000
118.503100 0.000000
118.582700 0.000000
118.662300 0.000000
118.741900 0.000000
118.821500 0.000000
118.901200 0.000000
118.980800 0.000000
119.060400 0.000000
119.140000 0.000000
119.219600 0.000000
119.299300 0.000000
119.378900 0.000000
119.458500 0.000000
119.538100 0.000000
119.617800 0.000000
119.697400 0.000000
119.777000 0.000000
119.856600 0.000000
119.936200 0.000000
120.015900 0.000000
120.095500 0.000000
120.175100 0.000000
120.254700 0.000000
120.334400 0.000000
120.414000 0.000000
120.493600 0.000000
120.573200 0.000000
120.652800 0.000000
120.732500 0.000000
120.812100 0.000000
120.891700 0.000000
e
